,subjID,experimentName,versionName,sequenceName,url,selected_row,windowWidth,windowHeight,screenWidth,screenHeight,startDate,startTime,trial,stimulus,duration,actual_depth,depth_estimate,trial_RT,log_sceneDuration,unitSelection,seq_filepath,experimentTime,totalTime,age,gender
0,925779,DepthScenes,duration_manipulation_targetAtFixation,jsons/v1_VE250_randls_71_rotated.json,http://54.235.29.9/FacialAge/BNav_EC2/DepthDuration/v2_depth_duration_MTurk/v2_DepthDuration_HTML.html#19,19,1364,768,1364,768,8-29-2022,14-24-49,1,depth_duration_stimuli/003228_2014-05-14_13-42-35_094959634447_rgbf000101-resize_1/003228_2014-05-14_13-42-35_094959634447_rgbf000101-resize_1-target.png,250,1.9680000000000002,3.0,8932,254,feet,jsons/v1_VE250_randls_71_rotated.json,1309329,1489770,31,Woman
1,925779,DepthScenes,duration_manipulation_targetAtFixation,jsons/v1_VE250_randls_71_rotated.json,http://54.235.29.9/FacialAge/BNav_EC2/DepthDuration/v2_depth_duration_MTurk/v2_DepthDuration_HTML.html#19,19,1364,768,1364,768,8-29-2022,14-24-49,2,depth_duration_stimuli/002600_2014-06-24_14-27-04_094959634447_rgbf000074-resize_2/002600_2014-06-24_14-27-04_094959634447_rgbf000074-resize_2-target.png,250,2.7575,5.0,5330,156,feet,jsons/v1_VE250_randls_71_rotated.json,1309329,1489770,31,Woman
2,925779,DepthScenes,duration_manipulation_targetAtFixation,jsons/v1_VE250_randls_71_rotated.json,http://54.235.29.9/FacialAge/BNav_EC2/DepthDuration/v2_depth_duration_MTurk/v2_DepthDuration_HTML.html#19,19,1364,768,1364,768,8-29-2022,14-24-49,3,depth_duration_stimuli/002805_2014-06-22_19-54-03_094959634447_rgbf000079-resize_1/002805_2014-06-22_19-54-03_094959634447_rgbf000079-resize_1-target.png,250,3.1439999999999997,8.0,9891,249,feet,jsons/v1_VE250_randls_71_rotated.json,1309329,1489770,31,Woman
3,925779,DepthScenes,duration_manipulation_targetAtFixation,jsons/v1_VE250_randls_71_rotated.json,http://54.235.29.9/FacialAge/BNav_EC2/DepthDuration/v2_depth_duration_MTurk/v2_DepthDuration_HTML.html#19,19,1364,768,1364,768,8-29-2022,14-24-49,4,depth_duration_stimuli/000906_2014-06-08_13-35-43_260595134347_rgbf000155-resize_1/000906_2014-06-08_13-35-43_260595134347_rgbf000155-resize_1-target.png,250,2.8489999999999998,6.0,5172,242,feet,jsons/v1_VE250_randls_71_rotated.json,1309329,1489770,31,Woman
4,925779,DepthScenes,duration_manipulation_targetAtFixation,jsons/v1_VE250_randls_71_rotated.json,http://54.235.29.9/FacialAge/BNav_EC2/DepthDuration/v2_depth_duration_MTurk/v2_DepthDuration_HTML.html#19,19,1364,768,1364,768,8-29-2022,14-24-49,5,depth_duration_stimuli/001052_2014-06-08_18-24-54_260595134347_rgbf000130-resize_1/001052_2014-06-08_18-24-54_260595134347_rgbf000130-resize_1-target.png,250,4.1045,5.0,7001,247,feet,jsons/v1_VE250_randls_71_rotated.json,1309329,1489770,31,Woman
5,925779,DepthScenes,duration_manipulation_targetAtFixation,jsons/v1_VE250_randls_71_rotated.json,http://54.235.29.9/FacialAge/BNav_EC2/DepthDuration/v2_depth_duration_MTurk/v2_DepthDuration_HTML.html#19,19,1364,768,1364,768,8-29-2022,14-24-49,6,depth_duration_stimuli/002988_2014-06-15_12-24-20_094959634447_rgbf000150-resize_1/002988_2014-06-15_12-24-20_094959634447_rgbf000150-resize_1-target.png,250,4.7669999999999995,8.0,4757,256,feet,jsons/v1_VE250_randls_71_rotated.json,1309329,1489770,31,Woman
6,925779,DepthScenes,duration_manipulation_targetAtFixation,jsons/v1_VE250_randls_71_rotated.json,http://54.235.29.9/FacialAge/BNav_EC2/DepthDuration/v2_depth_duration_MTurk/v2_DepthDuration_HTML.html#19,19,1364,768,1364,768,8-29-2022,14-24-49,7,depth_duration_stimuli/000677_2014-06-08_23-10-32_260595134347_rgbf000158-resize_6/000677_2014-06-08_23-10-32_260595134347_rgbf000158-resize_6-target.png,250,3.556,4.0,5444,246,feet,jsons/v1_VE250_randls_71_rotated.json,1309329,1489770,31,Woman
7,925779,DepthScenes,duration_manipulation_targetAtFixation,jsons/v1_VE250_randls_71_rotated.json,http://54.235.29.9/FacialAge/BNav_EC2/DepthDuration/v2_depth_duration_MTurk/v2_DepthDuration_HTML.html#19,19,1364,768,1364,768,8-29-2022,14-24-49,8,depth_duration_stimuli/001029_2014-06-08_13-17-57_260595134347_rgbf000065-resize_1/001029_2014-06-08_13-17-57_260595134347_rgbf000065-resize_1-target.png,250,3.0835,4.0,4166,249,feet,jsons/v1_VE250_randls_71_rotated.json,1309329,1489770,31,Woman
8,925779,DepthScenes,duration_manipulation_targetAtFixation,jsons/v1_VE250_randls_71_rotated.json,http://54.235.29.9/FacialAge/BNav_EC2/DepthDuration/v2_depth_duration_MTurk/v2_DepthDuration_HTML.html#19,19,1364,768,1364,768,8-29-2022,14-24-49,9,depth_duration_stimuli/000780_2014-06-08_22-28-29_260595134347_rgbf000126-resize_1/000780_2014-06-08_22-28-29_260595134347_rgbf000126-resize_1-target.png,250,3.3825,3.0,5331,249,feet,jsons/v1_VE250_randls_71_rotated.json,1309329,1489770,31,Woman
9,925779,DepthScenes,duration_manipulation_targetAtFixation,jsons/v1_VE250_randls_71_rotated.json,http://54.235.29.9/FacialAge/BNav_EC2/DepthDuration/v2_depth_duration_MTurk/v2_DepthDuration_HTML.html#19,19,1364,768,1364,768,8-29-2022,14-24-49,10,depth_duration_stimuli/002445_2014-06-28_20-32-16_260595134347_rgbf000029-resize_4/002445_2014-06-28_20-32-16_260595134347_rgbf000029-resize_4-target.png,250,2.5315,3.0,6324,243,feet,jsons/v1_VE250_randls_71_rotated.json,1309329,1489770,31,Woman
10,925779,DepthScenes,duration_manipulation_targetAtFixation,jsons/v1_VE250_randls_71_rotated.json,http://54.235.29.9/FacialAge/BNav_EC2/DepthDuration/v2_depth_duration_MTurk/v2_DepthDuration_HTML.html#19,19,1364,768,1364,768,8-29-2022,14-24-49,11,depth_duration_stimuli/003048_2014-06-15_13-49-43_094959634447_rgbf000150-resize_1/003048_2014-06-15_13-49-43_094959634447_rgbf000150-resize_1-target.png,250,4.0035,5.0,6217,246,feet,jsons/v1_VE250_randls_71_rotated.json,1309329,1489770,31,Woman
11,925779,DepthScenes,duration_manipulation_targetAtFixation,jsons/v1_VE250_randls_71_rotated.json,http://54.235.29.9/FacialAge/BNav_EC2/DepthDuration/v2_depth_duration_MTurk/v2_DepthDuration_HTML.html#19,19,1364,768,1364,768,8-29-2022,14-24-49,12,depth_duration_stimuli/002043_2014-06-24_20-29-38_260595134347_rgbf000039-resize_4/002043_2014-06-24_20-29-38_260595134347_rgbf000039-resize_4-target.png,250,2.8435,4.0,11506,255,feet,jsons/v1_VE250_randls_71_rotated.json,1309329,1489770,31,Woman
12,925779,DepthScenes,duration_manipulation_targetAtFixation,jsons/v1_VE250_randls_71_rotated.json,http://54.235.29.9/FacialAge/BNav_EC2/DepthDuration/v2_depth_duration_MTurk/v2_DepthDuration_HTML.html#19,19,1364,768,1364,768,8-29-2022,14-24-49,13,depth_duration_stimuli/002344_2014-06-28_20-06-29_260595134347_rgbf000030-resize_1/002344_2014-06-28_20-06-29_260595134347_rgbf000030-resize_1-target.png,250,1.5795,2.0,7421,338,feet,jsons/v1_VE250_randls_71_rotated.json,1309329,1489770,31,Woman
13,925779,DepthScenes,duration_manipulation_targetAtFixation,jsons/v1_VE250_randls_71_rotated.json,http://54.235.29.9/FacialAge/BNav_EC2/DepthDuration/v2_depth_duration_MTurk/v2_DepthDuration_HTML.html#19,19,1364,768,1364,768,8-29-2022,14-24-49,14,depth_duration_stimuli/002725_2014-06-22_11-47-51_094959634447_rgbf000070-resize_1/002725_2014-06-22_11-47-51_094959634447_rgbf000070-resize_1-target.png,250,2.195,3.0,3656,249,feet,jsons/v1_VE250_randls_71_rotated.json,1309329,1489770,31,Woman
14,925779,DepthScenes,duration_manipulation_targetAtFixation,jsons/v1_VE250_randls_71_rotated.json,http://54.235.29.9/FacialAge/BNav_EC2/DepthDuration/v2_depth_duration_MTurk/v2_DepthDuration_HTML.html#19,19,1364,768,1364,768,8-29-2022,14-24-49,15,depth_duration_stimuli/000709_2014-06-08_13-51-55_260595134347_rgbf000068-resize_3/000709_2014-06-08_13-51-55_260595134347_rgbf000068-resize_3-target.png,250,1.8030000000000002,4.0,7795,252,feet,jsons/v1_VE250_randls_71_rotated.json,1309329,1489770,31,Woman
15,925779,DepthScenes,duration_manipulation_targetAtFixation,jsons/v1_VE250_randls_71_rotated.json,http://54.235.29.9/FacialAge/BNav_EC2/DepthDuration/v2_depth_duration_MTurk/v2_DepthDuration_HTML.html#19,19,1364,768,1364,768,8-29-2022,14-24-49,16,depth_duration_stimuli/002057_2014-06-24_21-00-13_260595134347_rgbf000120-resize_1/002057_2014-06-24_21-00-13_260595134347_rgbf000120-resize_1-target.png,250,2.967,5.0,3512,278,feet,jsons/v1_VE250_randls_71_rotated.json,1309329,1489770,31,Woman
16,925779,DepthScenes,duration_manipulation_targetAtFixation,jsons/v1_VE250_randls_71_rotated.json,http://54.235.29.9/FacialAge/BNav_EC2/DepthDuration/v2_depth_duration_MTurk/v2_DepthDuration_HTML.html#19,19,1364,768,1364,768,8-29-2022,14-24-49,17,depth_duration_stimuli/001815_2014-06-26_20-52-55_260595134347_rgbf000020-resize_0/001815_2014-06-26_20-52-55_260595134347_rgbf000020-resize_0-target.png,250,3.3865,6.0,4461,247,feet,jsons/v1_VE250_randls_71_rotated.json,1309329,1489770,31,Woman
17,925779,DepthScenes,duration_manipulation_targetAtFixation,jsons/v1_VE250_randls_71_rotated.json,http://54.235.29.9/FacialAge/BNav_EC2/DepthDuration/v2_depth_duration_MTurk/v2_DepthDuration_HTML.html#19,19,1364,768,1364,768,8-29-2022,14-24-49,18,depth_duration_stimuli/001808_2014-06-26_20-50-58_260595134347_rgbf000029-resize_1/001808_2014-06-26_20-50-58_260595134347_rgbf000029-resize_1-target.png,250,4.249,4.0,5132,254,feet,jsons/v1_VE250_randls_71_rotated.json,1309329,1489770,31,Woman
18,925779,DepthScenes,duration_manipulation_targetAtFixation,jsons/v1_VE250_randls_71_rotated.json,http://54.235.29.9/FacialAge/BNav_EC2/DepthDuration/v2_depth_duration_MTurk/v2_DepthDuration_HTML.html#19,19,1364,768,1364,768,8-29-2022,14-24-49,19,depth_duration_stimuli/001498_2014-06-19_17-45-14_260595134347_rgbf000129-resize_4/001498_2014-06-19_17-45-14_260595134347_rgbf000129-resize-original.jpg,250,1.4075,0.0,4026,252,feet,jsons/v1_VE250_randls_71_rotated.json,1309329,1489770,31,Woman
19,925779,DepthScenes,duration_manipulation_targetAtFixation,jsons/v1_VE250_randls_71_rotated.json,http://54.235.29.9/FacialAge/BNav_EC2/DepthDuration/v2_depth_duration_MTurk/v2_DepthDuration_HTML.html#19,19,1364,768,1364,768,8-29-2022,14-24-49,20,depth_duration_stimuli/003423_2014-05-21_10-23-26_094959634447_rgbf002665-resize_2/003423_2014-05-21_10-23-26_094959634447_rgbf002665-resize_2-target.png,250,3.2575,4.0,5958,249,feet,jsons/v1_VE250_randls_71_rotated.json,1309329,1489770,31,Woman
20,925779,DepthScenes,duration_manipulation_targetAtFixation,jsons/v1_VE250_randls_71_rotated.json,http://54.235.29.9/FacialAge/BNav_EC2/DepthDuration/v2_depth_duration_MTurk/v2_DepthDuration_HTML.html#19,19,1364,768,1364,768,8-29-2022,14-24-49,21,depth_duration_stimuli/002905_2014-06-03_18-04-43_094959634447_rgbf000151-resize_2/002905_2014-06-03_18-04-43_094959634447_rgbf000151-resize_2-target.png,250,2.0295,3.0,5571,247,feet,jsons/v1_VE250_randls_71_rotated.json,1309329,1489770,31,Woman
21,925779,DepthScenes,duration_manipulation_targetAtFixation,jsons/v1_VE250_randls_71_rotated.json,http://54.235.29.9/FacialAge/BNav_EC2/DepthDuration/v2_depth_duration_MTurk/v2_DepthDuration_HTML.html#19,19,1364,768,1364,768,8-29-2022,14-24-49,22,depth_duration_stimuli/001094_2014-06-15_17-36-00_260595134347_rgbf000205-resize_0/001094_2014-06-15_17-36-00_260595134347_rgbf000205-resize_0-target.png,250,4.2175,6.0,8512,254,feet,jsons/v1_VE250_randls_71_rotated.json,1309329,1489770,31,Woman
22,925779,DepthScenes,duration_manipulation_targetAtFixation,jsons/v1_VE250_randls_71_rotated.json,http://54.235.29.9/FacialAge/BNav_EC2/DepthDuration/v2_depth_duration_MTurk/v2_DepthDuration_HTML.html#19,19,1364,768,1364,768,8-29-2022,14-24-49,23,depth_duration_stimuli/000692_2014-06-08_13-09-42_260595134347_rgbf000199-resize_2/000692_2014-06-08_13-09-42_260595134347_rgbf000199-resize_2-target.png,250,3.661,4.0,8550,325,feet,jsons/v1_VE250_randls_71_rotated.json,1309329,1489770,31,Woman
23,925779,DepthScenes,duration_manipulation_targetAtFixation,jsons/v1_VE250_randls_71_rotated.json,http://54.235.29.9/FacialAge/BNav_EC2/DepthDuration/v2_depth_duration_MTurk/v2_DepthDuration_HTML.html#19,19,1364,768,1364,768,8-29-2022,14-24-49,24,depth_duration_stimuli/000409_2014-06-04_19-23-33_260595134347_rgbf000067-resize_0/000409_2014-06-04_19-23-33_260595134347_rgbf000067-resize_0-target.png,250,3.7335,4.0,8770,249,feet,jsons/v1_VE250_randls_71_rotated.json,1309329,1489770,31,Woman
24,925779,DepthScenes,duration_manipulation_targetAtFixation,jsons/v1_VE250_randls_71_rotated.json,http://54.235.29.9/FacialAge/BNav_EC2/DepthDuration/v2_depth_duration_MTurk/v2_DepthDuration_HTML.html#19,19,1364,768,1364,768,8-29-2022,14-24-49,25,depth_duration_stimuli/002663_2014-06-13_15-50-26_094959634447_rgbf000075-resize_1/002663_2014-06-13_15-50-26_094959634447_rgbf000075-resize_1-target.png,250,4.7495,5.0,5221,250,feet,jsons/v1_VE250_randls_71_rotated.json,1309329,1489770,31,Woman
25,925779,DepthScenes,duration_manipulation_targetAtFixation,jsons/v1_VE250_randls_71_rotated.json,http://54.235.29.9/FacialAge/BNav_EC2/DepthDuration/v2_depth_duration_MTurk/v2_DepthDuration_HTML.html#19,19,1364,768,1364,768,8-29-2022,14-24-49,26,depth_duration_stimuli/000749_2014-06-08_21-55-06_260595134347_rgbf000070-resize_2/000749_2014-06-08_21-55-06_260595134347_rgbf000070-resize_2-target.png,250,2.331,3.0,8343,247,feet,jsons/v1_VE250_randls_71_rotated.json,1309329,1489770,31,Woman
26,925779,DepthScenes,duration_manipulation_targetAtFixation,jsons/v1_VE250_randls_71_rotated.json,http://54.235.29.9/FacialAge/BNav_EC2/DepthDuration/v2_depth_duration_MTurk/v2_DepthDuration_HTML.html#19,19,1364,768,1364,768,8-29-2022,14-24-49,27,depth_duration_stimuli/002788_2014-06-22_19-36-03_094959634447_rgbf000088-resize_2/002788_2014-06-22_19-36-03_094959634447_rgbf000088-resize_2-target.png,250,1.6465,4.0,3764,193,feet,jsons/v1_VE250_randls_71_rotated.json,1309329,1489770,31,Woman
27,925779,DepthScenes,duration_manipulation_targetAtFixation,jsons/v1_VE250_randls_71_rotated.json,http://54.235.29.9/FacialAge/BNav_EC2/DepthDuration/v2_depth_duration_MTurk/v2_DepthDuration_HTML.html#19,19,1364,768,1364,768,8-29-2022,14-24-49,28,depth_duration_stimuli/001617_2014-06-20_11-35-32_260595134347_rgbf000066-resize_1/001617_2014-06-20_11-35-32_260595134347_rgbf000066-resize_1-target.png,250,3.7910000000000004,5.0,5585,251,feet,jsons/v1_VE250_randls_71_rotated.json,1309329,1489770,31,Woman
28,925779,DepthScenes,duration_manipulation_targetAtFixation,jsons/v1_VE250_randls_71_rotated.json,http://54.235.29.9/FacialAge/BNav_EC2/DepthDuration/v2_depth_duration_MTurk/v2_DepthDuration_HTML.html#19,19,1364,768,1364,768,8-29-2022,14-24-49,29,depth_duration_stimuli/001806_2014-06-26_20-50-20_260595134347_rgbf000091-resize_1/001806_2014-06-26_20-50-20_260595134347_rgbf000091-resize_1-target.png,250,2.7305,4.0,15306,251,feet,jsons/v1_VE250_randls_71_rotated.json,1309329,1489770,31,Woman
29,925779,DepthScenes,duration_manipulation_targetAtFixation,jsons/v1_VE250_randls_71_rotated.json,http://54.235.29.9/FacialAge/BNav_EC2/DepthDuration/v2_depth_duration_MTurk/v2_DepthDuration_HTML.html#19,19,1364,768,1364,768,8-29-2022,14-24-49,30,depth_duration_stimuli/002072_2014-06-24_21-48-06_260595134347_rgbf000115-resize_0/002072_2014-06-24_21-48-06_260595134347_rgbf000115-resize-original.jpg,250,4.702,0.0,7753,256,feet,jsons/v1_VE250_randls_71_rotated.json,1309329,1489770,31,Woman
30,925779,DepthScenes,duration_manipulation_targetAtFixation,jsons/v1_VE250_randls_71_rotated.json,http://54.235.29.9/FacialAge/BNav_EC2/DepthDuration/v2_depth_duration_MTurk/v2_DepthDuration_HTML.html#19,19,1364,768,1364,768,8-29-2022,14-24-49,31,depth_duration_stimuli/001214_2014-06-17_16-13-55_260595134347_rgbf000111-resize_0/001214_2014-06-17_16-13-55_260595134347_rgbf000111-resize_0-target.png,250,2.6505,3.0,4131,244,feet,jsons/v1_VE250_randls_71_rotated.json,1309329,1489770,31,Woman
31,925779,DepthScenes,duration_manipulation_targetAtFixation,jsons/v1_VE250_randls_71_rotated.json,http://54.235.29.9/FacialAge/BNav_EC2/DepthDuration/v2_depth_duration_MTurk/v2_DepthDuration_HTML.html#19,19,1364,768,1364,768,8-29-2022,14-24-49,32,depth_duration_stimuli/000810_2014-06-08_17-20-01_260595134347_rgbf000105-resize_0/000810_2014-06-08_17-20-01_260595134347_rgbf000105-resize_0-target.png,250,1.4865,2.0,3447,251,feet,jsons/v1_VE250_randls_71_rotated.json,1309329,1489770,31,Woman
32,925779,DepthScenes,duration_manipulation_targetAtFixation,jsons/v1_VE250_randls_71_rotated.json,http://54.235.29.9/FacialAge/BNav_EC2/DepthDuration/v2_depth_duration_MTurk/v2_DepthDuration_HTML.html#19,19,1364,768,1364,768,8-29-2022,14-24-49,33,depth_duration_stimuli/003587_2014-05-23_16-48-02_094959634447_rgbf002384-resize_2/003587_2014-05-23_16-48-02_094959634447_rgbf002384-resize_2-target.png,250,1.357,2.0,5927,251,feet,jsons/v1_VE250_randls_71_rotated.json,1309329,1489770,31,Woman
33,925779,DepthScenes,duration_manipulation_targetAtFixation,jsons/v1_VE250_randls_71_rotated.json,http://54.235.29.9/FacialAge/BNav_EC2/DepthDuration/v2_depth_duration_MTurk/v2_DepthDuration_HTML.html#19,19,1364,768,1364,768,8-29-2022,14-24-49,34,depth_duration_stimuli/001167_2014-06-17_15-38-07_260595134347_rgbf000108-resize_0/001167_2014-06-17_15-38-07_260595134347_rgbf000108-resize_0-target.png,250,1.8505,2.0,3506,248,feet,jsons/v1_VE250_randls_71_rotated.json,1309329,1489770,31,Woman
34,925779,DepthScenes,duration_manipulation_targetAtFixation,jsons/v1_VE250_randls_71_rotated.json,http://54.235.29.9/FacialAge/BNav_EC2/DepthDuration/v2_depth_duration_MTurk/v2_DepthDuration_HTML.html#19,19,1364,768,1364,768,8-29-2022,14-24-49,35,depth_duration_stimuli/001650_2014-06-20_12-09-00_260595134347_rgbf000087-resize_3/001650_2014-06-20_12-09-00_260595134347_rgbf000087-resize_3-target.png,250,1.9505,1.0,6717,240,feet,jsons/v1_VE250_randls_71_rotated.json,1309329,1489770,31,Woman
35,925779,DepthScenes,duration_manipulation_targetAtFixation,jsons/v1_VE250_randls_71_rotated.json,http://54.235.29.9/FacialAge/BNav_EC2/DepthDuration/v2_depth_duration_MTurk/v2_DepthDuration_HTML.html#19,19,1364,768,1364,768,8-29-2022,14-24-49,36,depth_duration_stimuli/000682_2014-06-08_23-14-58_260595134347_rgbf000041-resize_5/000682_2014-06-08_23-14-58_260595134347_rgbf000041-resize_5-target.png,250,2.7239999999999998,5.0,4364,257,feet,jsons/v1_VE250_randls_71_rotated.json,1309329,1489770,31,Woman
36,925779,DepthScenes,duration_manipulation_targetAtFixation,jsons/v1_VE250_randls_71_rotated.json,http://54.235.29.9/FacialAge/BNav_EC2/DepthDuration/v2_depth_duration_MTurk/v2_DepthDuration_HTML.html#19,19,1364,768,1364,768,8-29-2022,14-24-49,37,depth_duration_stimuli/000742_2014-06-08_18-48-09_260595134347_rgbf000164-resize_4/000742_2014-06-08_18-48-09_260595134347_rgbf000164-resize_4-target.png,250,4.632,4.0,7797,253,feet,jsons/v1_VE250_randls_71_rotated.json,1309329,1489770,31,Woman
37,925779,DepthScenes,duration_manipulation_targetAtFixation,jsons/v1_VE250_randls_71_rotated.json,http://54.235.29.9/FacialAge/BNav_EC2/DepthDuration/v2_depth_duration_MTurk/v2_DepthDuration_HTML.html#19,19,1364,768,1364,768,8-29-2022,14-24-49,38,depth_duration_stimuli/001066_2014-06-08_22-03-20_260595134347_rgbf000066-resize_4/001066_2014-06-08_22-03-20_260595134347_rgbf000066-resize_4-target.png,250,4.2330000000000005,4.0,11791,255,feet,jsons/v1_VE250_randls_71_rotated.json,1309329,1489770,31,Woman
38,925779,DepthScenes,duration_manipulation_targetAtFixation,jsons/v1_VE250_randls_71_rotated.json,http://54.235.29.9/FacialAge/BNav_EC2/DepthDuration/v2_depth_duration_MTurk/v2_DepthDuration_HTML.html#19,19,1364,768,1364,768,8-29-2022,14-24-49,39,depth_duration_stimuli/001392_2014-06-19_16-07-59_260595134347_rgbf000046-resize_1/001392_2014-06-19_16-07-59_260595134347_rgbf000046-resize_1-target.png,250,4.135,5.0,8074,249,feet,jsons/v1_VE250_randls_71_rotated.json,1309329,1489770,31,Woman
39,925779,DepthScenes,duration_manipulation_targetAtFixation,jsons/v1_VE250_randls_71_rotated.json,http://54.235.29.9/FacialAge/BNav_EC2/DepthDuration/v2_depth_duration_MTurk/v2_DepthDuration_HTML.html#19,19,1364,768,1364,768,8-29-2022,14-24-49,40,depth_duration_stimuli/001570_2014-06-20_17-21-09_260595134347_rgbf000135-resize_4/001570_2014-06-20_17-21-09_260595134347_rgbf000135-resize_4-target.png,250,4.467,4.0,6168,249,feet,jsons/v1_VE250_randls_71_rotated.json,1309329,1489770,31,Woman
40,925779,DepthScenes,duration_manipulation_targetAtFixation,jsons/v1_VE250_randls_71_rotated.json,http://54.235.29.9/FacialAge/BNav_EC2/DepthDuration/v2_depth_duration_MTurk/v2_DepthDuration_HTML.html#19,19,1364,768,1364,768,8-29-2022,14-24-49,41,depth_duration_stimuli/002678_2014-06-13_16-15-32_094959634447_rgbf000151-resize_6/002678_2014-06-13_16-15-32_094959634447_rgbf000151-resize_6-target.png,250,2.1830000000000003,3.0,6180,253,feet,jsons/v1_VE250_randls_71_rotated.json,1309329,1489770,31,Woman
41,925779,DepthScenes,duration_manipulation_targetAtFixation,jsons/v1_VE250_randls_71_rotated.json,http://54.235.29.9/FacialAge/BNav_EC2/DepthDuration/v2_depth_duration_MTurk/v2_DepthDuration_HTML.html#19,19,1364,768,1364,768,8-29-2022,14-24-49,42,depth_duration_stimuli/000368_2014-06-09_15-53-01_260595134347_rgbf000155-resize_2/000368_2014-06-09_15-53-01_260595134347_rgbf000155-resize_2-target.png,250,2.4859999999999998,4.0,5549,252,feet,jsons/v1_VE250_randls_71_rotated.json,1309329,1489770,31,Woman
42,925779,DepthScenes,duration_manipulation_targetAtFixation,jsons/v1_VE250_randls_71_rotated.json,http://54.235.29.9/FacialAge/BNav_EC2/DepthDuration/v2_depth_duration_MTurk/v2_DepthDuration_HTML.html#19,19,1364,768,1364,768,8-29-2022,14-24-49,43,depth_duration_stimuli/002953_2014-06-08_17-32-18_094959634447_rgbf000059-resize_5/002953_2014-06-08_17-32-18_094959634447_rgbf000059-resize_5-target.png,250,1.551,2.0,6763,271,feet,jsons/v1_VE250_randls_71_rotated.json,1309329,1489770,31,Woman
43,925779,DepthScenes,duration_manipulation_targetAtFixation,jsons/v1_VE250_randls_71_rotated.json,http://54.235.29.9/FacialAge/BNav_EC2/DepthDuration/v2_depth_duration_MTurk/v2_DepthDuration_HTML.html#19,19,1364,768,1364,768,8-29-2022,14-24-49,44,depth_duration_stimuli/000878_2014-06-08_22-52-45_260595134347_rgbf000045-resize_2/000878_2014-06-08_22-52-45_260595134347_rgbf000045-resize_2-target.png,250,2.092,3.0,8199,248,feet,jsons/v1_VE250_randls_71_rotated.json,1309329,1489770,31,Woman
44,925779,DepthScenes,duration_manipulation_targetAtFixation,jsons/v1_VE250_randls_71_rotated.json,http://54.235.29.9/FacialAge/BNav_EC2/DepthDuration/v2_depth_duration_MTurk/v2_DepthDuration_HTML.html#19,19,1364,768,1364,768,8-29-2022,14-24-49,45,depth_duration_stimuli/000549_2014-06-08_22-10-24_260595134347_rgbf000247-resize_3/000549_2014-06-08_22-10-24_260595134347_rgbf000247-resize_3-target.png,250,1.841,2.0,5864,253,feet,jsons/v1_VE250_randls_71_rotated.json,1309329,1489770,31,Woman
45,925779,DepthScenes,duration_manipulation_targetAtFixation,jsons/v1_VE250_randls_71_rotated.json,http://54.235.29.9/FacialAge/BNav_EC2/DepthDuration/v2_depth_duration_MTurk/v2_DepthDuration_HTML.html#19,19,1364,768,1364,768,8-29-2022,14-24-49,46,depth_duration_stimuli/001055_2014-06-08_18-45-35_260595134347_rgbf000111-resize_4/001055_2014-06-08_18-45-35_260595134347_rgbf000111-resize_4-target.png,250,2.4290000000000003,6.0,4582,247,feet,jsons/v1_VE250_randls_71_rotated.json,1309329,1489770,31,Woman
46,925779,DepthScenes,duration_manipulation_targetAtFixation,jsons/v1_VE250_randls_71_rotated.json,http://54.235.29.9/FacialAge/BNav_EC2/DepthDuration/v2_depth_duration_MTurk/v2_DepthDuration_HTML.html#19,19,1364,768,1364,768,8-29-2022,14-24-49,47,depth_duration_stimuli/001447_2014-06-19_17-00-32_260595134347_rgbf000082-resize_5/001447_2014-06-19_17-00-32_260595134347_rgbf000082-resize_5-target.png,250,4.13775,4.0,5541,251,feet,jsons/v1_VE250_randls_71_rotated.json,1309329,1489770,31,Woman
47,925779,DepthScenes,duration_manipulation_targetAtFixation,jsons/v1_VE250_randls_71_rotated.json,http://54.235.29.9/FacialAge/BNav_EC2/DepthDuration/v2_depth_duration_MTurk/v2_DepthDuration_HTML.html#19,19,1364,768,1364,768,8-29-2022,14-24-49,48,depth_duration_stimuli/000447_2014-06-08_16-15-46_260595134347_rgbf000130-resize_1/000447_2014-06-08_16-15-46_260595134347_rgbf000130-resize_1-target.png,250,4.479,5.0,5274,249,feet,jsons/v1_VE250_randls_71_rotated.json,1309329,1489770,31,Woman
48,925779,DepthScenes,duration_manipulation_targetAtFixation,jsons/v1_VE250_randls_71_rotated.json,http://54.235.29.9/FacialAge/BNav_EC2/DepthDuration/v2_depth_duration_MTurk/v2_DepthDuration_HTML.html#19,19,1364,768,1364,768,8-29-2022,14-24-49,49,depth_duration_stimuli/001170_2014-06-17_15-43-44_260595134347_rgbf000096-resize_6/001170_2014-06-17_15-43-44_260595134347_rgbf000096-resize-original.jpg,250,1.1909999999999998,0.0,7590,113,feet,jsons/v1_VE250_randls_71_rotated.json,1309329,1489770,31,Woman
49,925779,DepthScenes,duration_manipulation_targetAtFixation,jsons/v1_VE250_randls_71_rotated.json,http://54.235.29.9/FacialAge/BNav_EC2/DepthDuration/v2_depth_duration_MTurk/v2_DepthDuration_HTML.html#19,19,1364,768,1364,768,8-29-2022,14-24-49,50,depth_duration_stimuli/002425_2014-06-28_20-27-29_260595134347_rgbf000031-resize_8/002425_2014-06-28_20-27-29_260595134347_rgbf000031-resize_8-target.png,250,3.8960000000000004,6.0,7743,239,feet,jsons/v1_VE250_randls_71_rotated.json,1309329,1489770,31,Woman
50,925779,DepthScenes,duration_manipulation_targetAtFixation,jsons/v1_VE250_randls_71_rotated.json,http://54.235.29.9/FacialAge/BNav_EC2/DepthDuration/v2_depth_duration_MTurk/v2_DepthDuration_HTML.html#19,19,1364,768,1364,768,8-29-2022,14-24-49,51,depth_duration_stimuli/000642_2014-06-08_16-59-25_260595134347_rgbf000098-resize_2/000642_2014-06-08_16-59-25_260595134347_rgbf000098-resize_2-target.png,250,2.8815,5.0,8052,248,feet,jsons/v1_VE250_randls_71_rotated.json,1309329,1489770,31,Woman
51,925779,DepthScenes,duration_manipulation_targetAtFixation,jsons/v1_VE250_randls_71_rotated.json,http://54.235.29.9/FacialAge/BNav_EC2/DepthDuration/v2_depth_duration_MTurk/v2_DepthDuration_HTML.html#19,19,1364,768,1364,768,8-29-2022,14-24-49,52,depth_duration_stimuli/003079_2014-06-15_15-18-20_094959634447_rgbf000152-resize_8/003079_2014-06-15_15-18-20_094959634447_rgbf000152-resize_8-target.png,250,2.8775,5.0,7224,265,feet,jsons/v1_VE250_randls_71_rotated.json,1309329,1489770,31,Woman
52,925779,DepthScenes,duration_manipulation_targetAtFixation,jsons/v1_VE250_randls_71_rotated.json,http://54.235.29.9/FacialAge/BNav_EC2/DepthDuration/v2_depth_duration_MTurk/v2_DepthDuration_HTML.html#19,19,1364,768,1364,768,8-29-2022,14-24-49,53,depth_duration_stimuli/000506_2014-06-08_23-21-00_260595134347_rgbf000070-resize_7/000506_2014-06-08_23-21-00_260595134347_rgbf000070-resize_7-target.png,250,4.0585,4.0,6501,250,feet,jsons/v1_VE250_randls_71_rotated.json,1309329,1489770,31,Woman
53,925779,DepthScenes,duration_manipulation_targetAtFixation,jsons/v1_VE250_randls_71_rotated.json,http://54.235.29.9/FacialAge/BNav_EC2/DepthDuration/v2_depth_duration_MTurk/v2_DepthDuration_HTML.html#19,19,1364,768,1364,768,8-29-2022,14-24-49,54,depth_duration_stimuli/002136_2014-06-25_21-18-03_260595134347_rgbf000109-resize_3/002136_2014-06-25_21-18-03_260595134347_rgbf000109-resize_3-target.png,250,1.9569999999999999,3.0,7828,250,feet,jsons/v1_VE250_randls_71_rotated.json,1309329,1489770,31,Woman
54,925779,DepthScenes,duration_manipulation_targetAtFixation,jsons/v1_VE250_randls_71_rotated.json,http://54.235.29.9/FacialAge/BNav_EC2/DepthDuration/v2_depth_duration_MTurk/v2_DepthDuration_HTML.html#19,19,1364,768,1364,768,8-29-2022,14-24-49,55,depth_duration_stimuli/002964_2014-06-08_17-46-11_094959634447_rgbf000091-resize_4/002964_2014-06-08_17-46-11_094959634447_rgbf000091-resize_4-target.png,250,1.6909999999999998,2.0,6105,237,feet,jsons/v1_VE250_randls_71_rotated.json,1309329,1489770,31,Woman
55,925779,DepthScenes,duration_manipulation_targetAtFixation,jsons/v1_VE250_randls_71_rotated.json,http://54.235.29.9/FacialAge/BNav_EC2/DepthDuration/v2_depth_duration_MTurk/v2_DepthDuration_HTML.html#19,19,1364,768,1364,768,8-29-2022,14-24-49,56,depth_duration_stimuli/002467_2014-06-28_20-38-07_260595134347_rgbf000026-resize_2/002467_2014-06-28_20-38-07_260595134347_rgbf000026-resize_2-target.png,250,4.742,8.0,11675,250,feet,jsons/v1_VE250_randls_71_rotated.json,1309329,1489770,31,Woman
56,925779,DepthScenes,duration_manipulation_targetAtFixation,jsons/v1_VE250_randls_71_rotated.json,http://54.235.29.9/FacialAge/BNav_EC2/DepthDuration/v2_depth_duration_MTurk/v2_DepthDuration_HTML.html#19,19,1364,768,1364,768,8-29-2022,14-24-49,57,depth_duration_stimuli/002570_2014-06-24_13-59-54_094959634447_rgbf000059-resize_0/002570_2014-06-24_13-59-54_094959634447_rgbf000059-resize_0-target.png,250,4.037,4.0,4537,232,feet,jsons/v1_VE250_randls_71_rotated.json,1309329,1489770,31,Woman
57,925779,DepthScenes,duration_manipulation_targetAtFixation,jsons/v1_VE250_randls_71_rotated.json,http://54.235.29.9/FacialAge/BNav_EC2/DepthDuration/v2_depth_duration_MTurk/v2_DepthDuration_HTML.html#19,19,1364,768,1364,768,8-29-2022,14-24-49,58,depth_duration_stimuli/000635_2014-06-08_16-38-42_260595134347_rgbf000106-resize_1/000635_2014-06-08_16-38-42_260595134347_rgbf000106-resize_1-target.png,250,2.074,4.0,8216,263,feet,jsons/v1_VE250_randls_71_rotated.json,1309329,1489770,31,Woman
58,925779,DepthScenes,duration_manipulation_targetAtFixation,jsons/v1_VE250_randls_71_rotated.json,http://54.235.29.9/FacialAge/BNav_EC2/DepthDuration/v2_depth_duration_MTurk/v2_DepthDuration_HTML.html#19,19,1364,768,1364,768,8-29-2022,14-24-49,59,depth_duration_stimuli/002279_2014-06-28_18-55-32_260595134347_rgbf000040-resize_5/002279_2014-06-28_18-55-32_260595134347_rgbf000040-resize_5-target.png,250,1.5043333333333,0.0,3348,329,feet,jsons/v1_VE250_randls_71_rotated.json,1309329,1489770,31,Woman
59,925779,DepthScenes,duration_manipulation_targetAtFixation,jsons/v1_VE250_randls_71_rotated.json,http://54.235.29.9/FacialAge/BNav_EC2/DepthDuration/v2_depth_duration_MTurk/v2_DepthDuration_HTML.html#19,19,1364,768,1364,768,8-29-2022,14-24-49,60,depth_duration_stimuli/003338_2014-05-20_11-01-23_094959634447_rgbf000051-resize_6/003338_2014-05-20_11-01-23_094959634447_rgbf000051-resize_6-target.png,250,1.693,2.0,4180,346,feet,jsons/v1_VE250_randls_71_rotated.json,1309329,1489770,31,Woman
60,925779,DepthScenes,duration_manipulation_targetAtFixation,jsons/v1_VE250_randls_71_rotated.json,http://54.235.29.9/FacialAge/BNav_EC2/DepthDuration/v2_depth_duration_MTurk/v2_DepthDuration_HTML.html#19,19,1364,768,1364,768,8-29-2022,14-24-49,61,depth_duration_stimuli/002509_2014-06-24_13-19-22_094959634447_rgbf000077-resize_0/002509_2014-06-24_13-19-22_094959634447_rgbf000077-resize_0-target.png,250,1.3065,1.0,4321,238,feet,jsons/v1_VE250_randls_71_rotated.json,1309329,1489770,31,Woman
61,925779,DepthScenes,duration_manipulation_targetAtFixation,jsons/v1_VE250_randls_71_rotated.json,http://54.235.29.9/FacialAge/BNav_EC2/DepthDuration/v2_depth_duration_MTurk/v2_DepthDuration_HTML.html#19,19,1364,768,1364,768,8-29-2022,14-24-49,62,depth_duration_stimuli/000191_2014-05-12_17-07-38_260595134347_rgbf000199-resize_0/000191_2014-05-12_17-07-38_260595134347_rgbf000199-resize_0-target.png,250,3.7995,11.0,10231,250,feet,jsons/v1_VE250_randls_71_rotated.json,1309329,1489770,31,Woman
62,925779,DepthScenes,duration_manipulation_targetAtFixation,jsons/v1_VE250_randls_71_rotated.json,http://54.235.29.9/FacialAge/BNav_EC2/DepthDuration/v2_depth_duration_MTurk/v2_DepthDuration_HTML.html#19,19,1364,768,1364,768,8-29-2022,14-24-49,63,depth_duration_stimuli/000493_2014-06-09_21-01-18_260595134347_rgbf000196-resize_3/000493_2014-06-09_21-01-18_260595134347_rgbf000196-resize_3-target.png,250,3.44,2.0,7140,210,feet,jsons/v1_VE250_randls_71_rotated.json,1309329,1489770,31,Woman
63,925779,DepthScenes,duration_manipulation_targetAtFixation,jsons/v1_VE250_randls_71_rotated.json,http://54.235.29.9/FacialAge/BNav_EC2/DepthDuration/v2_depth_duration_MTurk/v2_DepthDuration_HTML.html#19,19,1364,768,1364,768,8-29-2022,14-24-49,64,depth_duration_stimuli/000691_2014-06-08_13-08-50_260595134347_rgbf000132-resize_3/000691_2014-06-08_13-08-50_260595134347_rgbf000132-resize_3-target.png,250,4.1530000000000005,6.0,6241,226,feet,jsons/v1_VE250_randls_71_rotated.json,1309329,1489770,31,Woman
64,925779,DepthScenes,duration_manipulation_targetAtFixation,jsons/v1_VE250_randls_71_rotated.json,http://54.235.29.9/FacialAge/BNav_EC2/DepthDuration/v2_depth_duration_MTurk/v2_DepthDuration_HTML.html#19,19,1364,768,1364,768,8-29-2022,14-24-49,65,depth_duration_stimuli/002213_2014-06-28_18-37-58_260595134347_rgbf000055-resize_1/002213_2014-06-28_18-37-58_260595134347_rgbf000055-resize_1-target.png,250,3.62,4.0,10325,248,feet,jsons/v1_VE250_randls_71_rotated.json,1309329,1489770,31,Woman
65,925779,DepthScenes,duration_manipulation_targetAtFixation,jsons/v1_VE250_randls_71_rotated.json,http://54.235.29.9/FacialAge/BNav_EC2/DepthDuration/v2_depth_duration_MTurk/v2_DepthDuration_HTML.html#19,19,1364,768,1364,768,8-29-2022,14-24-49,66,depth_duration_stimuli/001540_2014-06-20_17-01-05_260595134347_rgbf000086-resize_2/001540_2014-06-20_17-01-05_260595134347_rgbf000086-resize-original.jpg,250,1.459,0.0,8006,250,feet,jsons/v1_VE250_randls_71_rotated.json,1309329,1489770,31,Woman
66,925779,DepthScenes,duration_manipulation_targetAtFixation,jsons/v1_VE250_randls_71_rotated.json,http://54.235.29.9/FacialAge/BNav_EC2/DepthDuration/v2_depth_duration_MTurk/v2_DepthDuration_HTML.html#19,19,1364,768,1364,768,8-29-2022,14-24-49,67,depth_duration_stimuli/000137_2014-05-20_17-04-49_260595134347_rgbf000120-resize_1/000137_2014-05-20_17-04-49_260595134347_rgbf000120-resize_1-target.png,250,3.786,4.0,8931,245,feet,jsons/v1_VE250_randls_71_rotated.json,1309329,1489770,31,Woman
67,925779,DepthScenes,duration_manipulation_targetAtFixation,jsons/v1_VE250_randls_71_rotated.json,http://54.235.29.9/FacialAge/BNav_EC2/DepthDuration/v2_depth_duration_MTurk/v2_DepthDuration_HTML.html#19,19,1364,768,1364,768,8-29-2022,14-24-49,68,depth_duration_stimuli/000736_2014-06-08_18-24-15_260595134347_rgbf000206-resize_3/000736_2014-06-08_18-24-15_260595134347_rgbf000206-resize_3-target.png,250,3.515,3.0,75002,249,feet,jsons/v1_VE250_randls_71_rotated.json,1309329,1489770,31,Woman
68,925779,DepthScenes,duration_manipulation_targetAtFixation,jsons/v1_VE250_randls_71_rotated.json,http://54.235.29.9/FacialAge/BNav_EC2/DepthDuration/v2_depth_duration_MTurk/v2_DepthDuration_HTML.html#19,19,1364,768,1364,768,8-29-2022,14-24-49,69,depth_duration_stimuli/001100_2014-06-15_17-46-26_260595134347_rgbf000225-resize_2/001100_2014-06-15_17-46-26_260595134347_rgbf000225-resize_2-target.png,250,2.24,3.0,5293,223,feet,jsons/v1_VE250_randls_71_rotated.json,1309329,1489770,31,Woman
69,925779,DepthScenes,duration_manipulation_targetAtFixation,jsons/v1_VE250_randls_71_rotated.json,http://54.235.29.9/FacialAge/BNav_EC2/DepthDuration/v2_depth_duration_MTurk/v2_DepthDuration_HTML.html#19,19,1364,768,1364,768,8-29-2022,14-24-49,70,depth_duration_stimuli/002784_2014-06-22_19-26-30_094959634447_rgbf000083-resize_3/002784_2014-06-22_19-26-30_094959634447_rgbf000083-resize_3-target.png,250,1.8046666666667,2.0,3579,248,feet,jsons/v1_VE250_randls_71_rotated.json,1309329,1489770,31,Woman
70,925779,DepthScenes,duration_manipulation_targetAtFixation,jsons/v1_VE250_randls_71_rotated.json,http://54.235.29.9/FacialAge/BNav_EC2/DepthDuration/v2_depth_duration_MTurk/v2_DepthDuration_HTML.html#19,19,1364,768,1364,768,8-29-2022,14-24-49,71,depth_duration_stimuli/001032_2014-06-08_13-23-17_260595134347_rgbf000021-resize_3/001032_2014-06-08_13-23-17_260595134347_rgbf000021-resize_3-target.png,250,3.2725,3.0,8595,252,feet,jsons/v1_VE250_randls_71_rotated.json,1309329,1489770,31,Woman
71,925779,DepthScenes,duration_manipulation_targetAtFixation,jsons/v1_VE250_randls_71_rotated.json,http://54.235.29.9/FacialAge/BNav_EC2/DepthDuration/v2_depth_duration_MTurk/v2_DepthDuration_HTML.html#19,19,1364,768,1364,768,8-29-2022,14-24-49,72,depth_duration_stimuli/001059_2014-06-08_21-53-27_260595134347_rgbf000061-resize_4/001059_2014-06-08_21-53-27_260595134347_rgbf000061-resize_4-target.png,250,2.4185,4.0,4134,249,feet,jsons/v1_VE250_randls_71_rotated.json,1309329,1489770,31,Woman
72,925779,DepthScenes,duration_manipulation_targetAtFixation,jsons/v1_VE250_randls_71_rotated.json,http://54.235.29.9/FacialAge/BNav_EC2/DepthDuration/v2_depth_duration_MTurk/v2_DepthDuration_HTML.html#19,19,1364,768,1364,768,8-29-2022,14-24-49,73,depth_duration_stimuli/002414_2014-06-28_20-24-58_260595134347_rgbf000067-resize_4/002414_2014-06-28_20-24-58_260595134347_rgbf000067-resize_4-target.png,250,4.363,6.0,6337,250,feet,jsons/v1_VE250_randls_71_rotated.json,1309329,1489770,31,Woman
73,925779,DepthScenes,duration_manipulation_targetAtFixation,jsons/v1_VE250_randls_71_rotated.json,http://54.235.29.9/FacialAge/BNav_EC2/DepthDuration/v2_depth_duration_MTurk/v2_DepthDuration_HTML.html#19,19,1364,768,1364,768,8-29-2022,14-24-49,74,depth_duration_stimuli/000773_2014-06-08_22-24-54_260595134347_rgbf000093-resize_1/000773_2014-06-08_22-24-54_260595134347_rgbf000093-resize_1-target.png,250,4.973,5.0,4710,236,feet,jsons/v1_VE250_randls_71_rotated.json,1309329,1489770,31,Woman
74,925779,DepthScenes,duration_manipulation_targetAtFixation,jsons/v1_VE250_randls_71_rotated.json,http://54.235.29.9/FacialAge/BNav_EC2/DepthDuration/v2_depth_duration_MTurk/v2_DepthDuration_HTML.html#19,19,1364,768,1364,768,8-29-2022,14-24-49,75,depth_duration_stimuli/003081_2014-06-15_15-19-16_094959634447_rgbf000150-resize_1/003081_2014-06-15_15-19-16_094959634447_rgbf000150-resize_1-target.png,250,3.9125,7.0,9032,299,feet,jsons/v1_VE250_randls_71_rotated.json,1309329,1489770,31,Woman
75,925779,DepthScenes,duration_manipulation_targetAtFixation,jsons/v1_VE250_randls_71_rotated.json,http://54.235.29.9/FacialAge/BNav_EC2/DepthDuration/v2_depth_duration_MTurk/v2_DepthDuration_HTML.html#19,19,1364,768,1364,768,8-29-2022,14-24-49,76,depth_duration_stimuli/001417_2014-06-19_16-25-36_260595134347_rgbf000115-resize_5/001417_2014-06-19_16-25-36_260595134347_rgbf000115-resize_5-target.png,250,4.6255,5.0,10775,251,feet,jsons/v1_VE250_randls_71_rotated.json,1309329,1489770,31,Woman
76,925779,DepthScenes,duration_manipulation_targetAtFixation,jsons/v1_VE250_randls_71_rotated.json,http://54.235.29.9/FacialAge/BNav_EC2/DepthDuration/v2_depth_duration_MTurk/v2_DepthDuration_HTML.html#19,19,1364,768,1364,768,8-29-2022,14-24-49,77,depth_duration_stimuli/000502_2014-06-08_23-02-32_260595134347_rgbf000063-resize_4/000502_2014-06-08_23-02-32_260595134347_rgbf000063-resize_4-target.png,250,2.431,2.0,8159,251,feet,jsons/v1_VE250_randls_71_rotated.json,1309329,1489770,31,Woman
77,925779,DepthScenes,duration_manipulation_targetAtFixation,jsons/v1_VE250_randls_71_rotated.json,http://54.235.29.9/FacialAge/BNav_EC2/DepthDuration/v2_depth_duration_MTurk/v2_DepthDuration_HTML.html#19,19,1364,768,1364,768,8-29-2022,14-24-49,78,depth_duration_stimuli/001199_2014-06-17_16-03-48_260595134347_rgbf000077-resize_0/001199_2014-06-17_16-03-48_260595134347_rgbf000077-resize_0-target.png,250,3.4375,83.0,5709,229,feet,jsons/v1_VE250_randls_71_rotated.json,1309329,1489770,31,Woman
78,925779,DepthScenes,duration_manipulation_targetAtFixation,jsons/v1_VE250_randls_71_rotated.json,http://54.235.29.9/FacialAge/BNav_EC2/DepthDuration/v2_depth_duration_MTurk/v2_DepthDuration_HTML.html#19,19,1364,768,1364,768,8-29-2022,14-24-49,79,depth_duration_stimuli/003129_2014-05-12_10-48-10_094959634447_rgbf000100-resize_0/003129_2014-05-12_10-48-10_094959634447_rgbf000100-resize_0-target.png,250,4.9305,9.0,7558,248,feet,jsons/v1_VE250_randls_71_rotated.json,1309329,1489770,31,Woman
79,925779,DepthScenes,duration_manipulation_targetAtFixation,jsons/v1_VE250_randls_71_rotated.json,http://54.235.29.9/FacialAge/BNav_EC2/DepthDuration/v2_depth_duration_MTurk/v2_DepthDuration_HTML.html#19,19,1364,768,1364,768,8-29-2022,14-24-49,80,depth_duration_stimuli/000414_2014-06-04_19-49-13_260595134347_rgbf000044-resize_0/000414_2014-06-04_19-49-13_260595134347_rgbf000044-resize_0-target.png,250,4.329,8.0,7351,252,feet,jsons/v1_VE250_randls_71_rotated.json,1309329,1489770,31,Woman
80,925779,DepthScenes,duration_manipulation_targetAtFixation,jsons/v1_VE250_randls_71_rotated.json,http://54.235.29.9/FacialAge/BNav_EC2/DepthDuration/v2_depth_duration_MTurk/v2_DepthDuration_HTML.html#19,19,1364,768,1364,768,8-29-2022,14-24-49,81,depth_duration_stimuli/001450_2014-06-19_17-02-03_260595134347_rgbf000203-resize_4/001450_2014-06-19_17-02-03_260595134347_rgbf000203-resize_4-target.png,250,4.0106666666667,8.0,6895,248,feet,jsons/v1_VE250_randls_71_rotated.json,1309329,1489770,31,Woman
81,925779,DepthScenes,duration_manipulation_targetAtFixation,jsons/v1_VE250_randls_71_rotated.json,http://54.235.29.9/FacialAge/BNav_EC2/DepthDuration/v2_depth_duration_MTurk/v2_DepthDuration_HTML.html#19,19,1364,768,1364,768,8-29-2022,14-24-49,82,depth_duration_stimuli/001449_2014-06-19_17-01-27_260595134347_rgbf000116-resize_2/001449_2014-06-19_17-01-27_260595134347_rgbf000116-resize_2-target.png,250,3.452,0.0,5367,245,feet,jsons/v1_VE250_randls_71_rotated.json,1309329,1489770,31,Woman
82,925779,DepthScenes,duration_manipulation_targetAtFixation,jsons/v1_VE250_randls_71_rotated.json,http://54.235.29.9/FacialAge/BNav_EC2/DepthDuration/v2_depth_duration_MTurk/v2_DepthDuration_HTML.html#19,19,1364,768,1364,768,8-29-2022,14-24-49,83,depth_duration_stimuli/002949_2014-06-26_15-57-42_094959634447_rgbf000079-resize_1/002949_2014-06-26_15-57-42_094959634447_rgbf000079-resize_1-target.png,250,1.8915,2.0,7498,248,feet,jsons/v1_VE250_randls_71_rotated.json,1309329,1489770,31,Woman
83,925779,DepthScenes,duration_manipulation_targetAtFixation,jsons/v1_VE250_randls_71_rotated.json,http://54.235.29.9/FacialAge/BNav_EC2/DepthDuration/v2_depth_duration_MTurk/v2_DepthDuration_HTML.html#19,19,1364,768,1364,768,8-29-2022,14-24-49,84,depth_duration_stimuli/000522_2014-06-08_13-35-06_260595134347_rgbf000244-resize_1/000522_2014-06-08_13-35-06_260595134347_rgbf000244-resize_1-target.png,250,2.3715,4.0,6221,231,feet,jsons/v1_VE250_randls_71_rotated.json,1309329,1489770,31,Woman
84,925779,DepthScenes,duration_manipulation_targetAtFixation,jsons/v1_VE250_randls_71_rotated.json,http://54.235.29.9/FacialAge/BNav_EC2/DepthDuration/v2_depth_duration_MTurk/v2_DepthDuration_HTML.html#19,19,1364,768,1364,768,8-29-2022,14-24-49,85,depth_duration_stimuli/003490_2014-05-21_15-50-11_094959634447_rgbf000101-resize_3/003490_2014-05-21_15-50-11_094959634447_rgbf000101-resize_3-target.png,250,3.6445,4.0,6376,251,feet,jsons/v1_VE250_randls_71_rotated.json,1309329,1489770,31,Woman
85,925779,DepthScenes,duration_manipulation_targetAtFixation,jsons/v1_VE250_randls_71_rotated.json,http://54.235.29.9/FacialAge/BNav_EC2/DepthDuration/v2_depth_duration_MTurk/v2_DepthDuration_HTML.html#19,19,1364,768,1364,768,8-29-2022,14-24-49,86,depth_duration_stimuli/001175_2014-06-17_15-45-55_260595134347_rgbf000129-resize_4/001175_2014-06-17_15-45-55_260595134347_rgbf000129-resize_4-target.png,250,4.255,8.0,4679,251,feet,jsons/v1_VE250_randls_71_rotated.json,1309329,1489770,31,Woman
86,925779,DepthScenes,duration_manipulation_targetAtFixation,jsons/v1_VE250_randls_71_rotated.json,http://54.235.29.9/FacialAge/BNav_EC2/DepthDuration/v2_depth_duration_MTurk/v2_DepthDuration_HTML.html#19,19,1364,768,1364,768,8-29-2022,14-24-49,87,depth_duration_stimuli/000927_2014-06-09_16-32-30_260595134347_rgbf000123-resize_3/000927_2014-06-09_16-32-30_260595134347_rgbf000123-resize_3-target.png,250,2.6785,3.0,4521,247,feet,jsons/v1_VE250_randls_71_rotated.json,1309329,1489770,31,Woman
87,925779,DepthScenes,duration_manipulation_targetAtFixation,jsons/v1_VE250_randls_71_rotated.json,http://54.235.29.9/FacialAge/BNav_EC2/DepthDuration/v2_depth_duration_MTurk/v2_DepthDuration_HTML.html#19,19,1364,768,1364,768,8-29-2022,14-24-49,88,depth_duration_stimuli/001110_2014-06-15_17-25-28_260595134347_rgbf000150-resize_1/001110_2014-06-15_17-25-28_260595134347_rgbf000150-resize_1-target.png,250,1.7115,2.0,3809,246,feet,jsons/v1_VE250_randls_71_rotated.json,1309329,1489770,31,Woman
88,925779,DepthScenes,duration_manipulation_targetAtFixation,jsons/v1_VE250_randls_71_rotated.json,http://54.235.29.9/FacialAge/BNav_EC2/DepthDuration/v2_depth_duration_MTurk/v2_DepthDuration_HTML.html#19,19,1364,768,1364,768,8-29-2022,14-24-49,89,depth_duration_stimuli/000109_2014-05-14_23-41-52_260595134347_rgbf000035-resize_9/000109_2014-05-14_23-41-52_260595134347_rgbf000035-resize_9-target.png,250,1.3545,6.0,13984,238,feet,jsons/v1_VE250_randls_71_rotated.json,1309329,1489770,31,Woman
89,925779,DepthScenes,duration_manipulation_targetAtFixation,jsons/v1_VE250_randls_71_rotated.json,http://54.235.29.9/FacialAge/BNav_EC2/DepthDuration/v2_depth_duration_MTurk/v2_DepthDuration_HTML.html#19,19,1364,768,1364,768,8-29-2022,14-24-49,90,depth_duration_stimuli/000470_2014-06-09_19-42-40_260595134347_rgbf000094-resize_1/000470_2014-06-09_19-42-40_260595134347_rgbf000094-resize_1-target.png,250,1.831,2.0,3587,248,feet,jsons/v1_VE250_randls_71_rotated.json,1309329,1489770,31,Woman
90,925779,DepthScenes,duration_manipulation_targetAtFixation,jsons/v1_VE250_randls_71_rotated.json,http://54.235.29.9/FacialAge/BNav_EC2/DepthDuration/v2_depth_duration_MTurk/v2_DepthDuration_HTML.html#19,19,1364,768,1364,768,8-29-2022,14-24-49,91,depth_duration_stimuli/003495_2014-05-21_16-01-51_094959634447_rgbf000100-resize_3/003495_2014-05-21_16-01-51_094959634447_rgbf000100-resize_3-target.png,250,1.6255,2.0,7390,249,feet,jsons/v1_VE250_randls_71_rotated.json,1309329,1489770,31,Woman
91,925779,DepthScenes,duration_manipulation_targetAtFixation,jsons/v1_VE250_randls_71_rotated.json,http://54.235.29.9/FacialAge/BNav_EC2/DepthDuration/v2_depth_duration_MTurk/v2_DepthDuration_HTML.html#19,19,1364,768,1364,768,8-29-2022,14-24-49,92,depth_duration_stimuli/001244_2014-06-17_16-47-45_260595134347_rgbf000030-resize_4/001244_2014-06-17_16-47-45_260595134347_rgbf000030-resize_4-target.png,250,2.0425,3.0,4110,336,feet,jsons/v1_VE250_randls_71_rotated.json,1309329,1489770,31,Woman
92,925779,DepthScenes,duration_manipulation_targetAtFixation,jsons/v1_VE250_randls_71_rotated.json,http://54.235.29.9/FacialAge/BNav_EC2/DepthDuration/v2_depth_duration_MTurk/v2_DepthDuration_HTML.html#19,19,1364,768,1364,768,8-29-2022,14-24-49,93,depth_duration_stimuli/002340_2014-06-28_20-05-46_260595134347_rgbf000113-resize_0/002340_2014-06-28_20-05-46_260595134347_rgbf000113-resize_0-target.png,250,2.4735,4.0,6299,251,feet,jsons/v1_VE250_randls_71_rotated.json,1309329,1489770,31,Woman
93,925779,DepthScenes,duration_manipulation_targetAtFixation,jsons/v1_VE250_randls_71_rotated.json,http://54.235.29.9/FacialAge/BNav_EC2/DepthDuration/v2_depth_duration_MTurk/v2_DepthDuration_HTML.html#19,19,1364,768,1364,768,8-29-2022,14-24-49,94,depth_duration_stimuli/001016_2014-06-09_16-16-10_260595134347_rgbf000112-resize_5/001016_2014-06-09_16-16-10_260595134347_rgbf000112-resize_5-target.png,250,1.6565,4.0,4062,245,feet,jsons/v1_VE250_randls_71_rotated.json,1309329,1489770,31,Woman
94,925779,DepthScenes,duration_manipulation_targetAtFixation,jsons/v1_VE250_randls_71_rotated.json,http://54.235.29.9/FacialAge/BNav_EC2/DepthDuration/v2_depth_duration_MTurk/v2_DepthDuration_HTML.html#19,19,1364,768,1364,768,8-29-2022,14-24-49,95,depth_duration_stimuli/001136_2014-06-17_15-19-41_260595134347_rgbf000076-resize_3/001136_2014-06-17_15-19-41_260595134347_rgbf000076-resize_3-target.png,250,1.8655,4.0,8941,294,feet,jsons/v1_VE250_randls_71_rotated.json,1309329,1489770,31,Woman
95,925779,DepthScenes,duration_manipulation_targetAtFixation,jsons/v1_VE250_randls_71_rotated.json,http://54.235.29.9/FacialAge/BNav_EC2/DepthDuration/v2_depth_duration_MTurk/v2_DepthDuration_HTML.html#19,19,1364,768,1364,768,8-29-2022,14-24-49,96,depth_duration_stimuli/001164_2014-06-17_15-35-46_260595134347_rgbf000085-resize_3/001164_2014-06-17_15-35-46_260595134347_rgbf000085-resize_3-target.png,250,2.354,6.0,4494,250,feet,jsons/v1_VE250_randls_71_rotated.json,1309329,1489770,31,Woman
96,925779,DepthScenes,duration_manipulation_targetAtFixation,jsons/v1_VE250_randls_71_rotated.json,http://54.235.29.9/FacialAge/BNav_EC2/DepthDuration/v2_depth_duration_MTurk/v2_DepthDuration_HTML.html#19,19,1364,768,1364,768,8-29-2022,14-24-49,97,depth_duration_stimuli/003083_2014-06-15_15-21-03_094959634447_rgbf000063-resize_1/003083_2014-06-15_15-21-03_094959634447_rgbf000063-resize_1-target.png,250,4.1405,8.0,6631,250,feet,jsons/v1_VE250_randls_71_rotated.json,1309329,1489770,31,Woman
97,925779,DepthScenes,duration_manipulation_targetAtFixation,jsons/v1_VE250_randls_71_rotated.json,http://54.235.29.9/FacialAge/BNav_EC2/DepthDuration/v2_depth_duration_MTurk/v2_DepthDuration_HTML.html#19,19,1364,768,1364,768,8-29-2022,14-24-49,98,depth_duration_stimuli/000486_2014-06-09_20-47-20_260595134347_rgbf000143-resize_2/000486_2014-06-09_20-47-20_260595134347_rgbf000143-resize_2-target.png,250,4.8325,4.0,7039,249,feet,jsons/v1_VE250_randls_71_rotated.json,1309329,1489770,31,Woman
98,925779,DepthScenes,duration_manipulation_targetAtFixation,jsons/v1_VE250_randls_71_rotated.json,http://54.235.29.9/FacialAge/BNav_EC2/DepthDuration/v2_depth_duration_MTurk/v2_DepthDuration_HTML.html#19,19,1364,768,1364,768,8-29-2022,14-24-49,99,depth_duration_stimuli/001222_2014-06-17_16-24-06_260595134347_rgbf000073-resize_0/001222_2014-06-17_16-24-06_260595134347_rgbf000073-resize-original.jpg,250,1.4385,0.0,5411,245,feet,jsons/v1_VE250_randls_71_rotated.json,1309329,1489770,31,Woman
99,925779,DepthScenes,duration_manipulation_targetAtFixation,jsons/v1_VE250_randls_71_rotated.json,http://54.235.29.9/FacialAge/BNav_EC2/DepthDuration/v2_depth_duration_MTurk/v2_DepthDuration_HTML.html#19,19,1364,768,1364,768,8-29-2022,14-24-49,100,depth_duration_stimuli/002758_2014-06-22_19-11-20_094959634447_rgbf000128-resize_1/002758_2014-06-22_19-11-20_094959634447_rgbf000128-resize_1-target.png,250,2.555,3.0,5556,258,feet,jsons/v1_VE250_randls_71_rotated.json,1309329,1489770,31,Woman
100,925779,DepthScenes,duration_manipulation_targetAtFixation,jsons/v1_VE250_randls_71_rotated.json,http://54.235.29.9/FacialAge/BNav_EC2/DepthDuration/v2_depth_duration_MTurk/v2_DepthDuration_HTML.html#19,19,1364,768,1364,768,8-29-2022,14-24-49,101,depth_duration_stimuli/002630_2014-06-24_14-47-50_094959634447_rgbf000055-resize_1/002630_2014-06-24_14-47-50_094959634447_rgbf000055-resize_1-target.png,250,3.0095,3.0,5434,231,feet,jsons/v1_VE250_randls_71_rotated.json,1309329,1489770,31,Woman
101,925779,DepthScenes,duration_manipulation_targetAtFixation,jsons/v1_VE250_randls_71_rotated.json,http://54.235.29.9/FacialAge/BNav_EC2/DepthDuration/v2_depth_duration_MTurk/v2_DepthDuration_HTML.html#19,19,1364,768,1364,768,8-29-2022,14-24-49,102,depth_duration_stimuli/002639_2014-06-24_14-51-37_094959634447_rgbf000074-resize_4/002639_2014-06-24_14-51-37_094959634447_rgbf000074-resize_4-target.png,250,4.0375,10.0,12979,255,feet,jsons/v1_VE250_randls_71_rotated.json,1309329,1489770,31,Woman
102,925779,DepthScenes,duration_manipulation_targetAtFixation,jsons/v1_VE250_randls_71_rotated.json,http://54.235.29.9/FacialAge/BNav_EC2/DepthDuration/v2_depth_duration_MTurk/v2_DepthDuration_HTML.html#19,19,1364,768,1364,768,8-29-2022,14-24-49,103,depth_duration_stimuli/003292_2014-05-14_21-53-49_094959634447_rgbf000100-resize_2/003292_2014-05-14_21-53-49_094959634447_rgbf000100-resize_2-target.png,250,3.4815,2.0,4272,252,feet,jsons/v1_VE250_randls_71_rotated.json,1309329,1489770,31,Woman
103,925779,DepthScenes,duration_manipulation_targetAtFixation,jsons/v1_VE250_randls_71_rotated.json,http://54.235.29.9/FacialAge/BNav_EC2/DepthDuration/v2_depth_duration_MTurk/v2_DepthDuration_HTML.html#19,19,1364,768,1364,768,8-29-2022,14-24-49,104,depth_duration_stimuli/001235_2014-06-17_16-37-36_260595134347_rgbf000084-resize_4/001235_2014-06-17_16-37-36_260595134347_rgbf000084-resize_4-target.png,250,3.6605,4.0,4623,253,feet,jsons/v1_VE250_randls_71_rotated.json,1309329,1489770,31,Woman
104,925779,DepthScenes,duration_manipulation_targetAtFixation,jsons/v1_VE250_randls_71_rotated.json,http://54.235.29.9/FacialAge/BNav_EC2/DepthDuration/v2_depth_duration_MTurk/v2_DepthDuration_HTML.html#19,19,1364,768,1364,768,8-29-2022,14-24-49,105,depth_duration_stimuli/000788_2014-06-08_22-34-36_260595134347_rgbf000131-resize_1/000788_2014-06-08_22-34-36_260595134347_rgbf000131-resize_1-target.png,250,3.359,4.0,57602,247,feet,jsons/v1_VE250_randls_71_rotated.json,1309329,1489770,31,Woman
105,925779,DepthScenes,duration_manipulation_targetAtFixation,jsons/v1_VE250_randls_71_rotated.json,http://54.235.29.9/FacialAge/BNav_EC2/DepthDuration/v2_depth_duration_MTurk/v2_DepthDuration_HTML.html#19,19,1364,768,1364,768,8-29-2022,14-24-49,106,depth_duration_stimuli/003010_2014-06-15_12-54-35_094959634447_rgbf000112-resize_0/003010_2014-06-15_12-54-35_094959634447_rgbf000112-resize_0-target.png,250,3.1185,6.0,4362,291,feet,jsons/v1_VE250_randls_71_rotated.json,1309329,1489770,31,Woman
106,925779,DepthScenes,duration_manipulation_targetAtFixation,jsons/v1_VE250_randls_71_rotated.json,http://54.235.29.9/FacialAge/BNav_EC2/DepthDuration/v2_depth_duration_MTurk/v2_DepthDuration_HTML.html#19,19,1364,768,1364,768,8-29-2022,14-24-49,107,depth_duration_stimuli/001810_2014-06-26_20-51-35_260595134347_rgbf000040-resize_3/001810_2014-06-26_20-51-35_260595134347_rgbf000040-resize_3-target.png,250,2.2525,4.0,5192,236,feet,jsons/v1_VE250_randls_71_rotated.json,1309329,1489770,31,Woman
107,925779,DepthScenes,duration_manipulation_targetAtFixation,jsons/v1_VE250_randls_71_rotated.json,http://54.235.29.9/FacialAge/BNav_EC2/DepthDuration/v2_depth_duration_MTurk/v2_DepthDuration_HTML.html#19,19,1364,768,1364,768,8-29-2022,14-24-49,108,depth_duration_stimuli/002657_2014-06-13_15-29-54_094959634447_rgbf000150-resize_1/002657_2014-06-13_15-29-54_094959634447_rgbf000150-resize_1-target.png,250,4.919,6.0,11569,253,feet,jsons/v1_VE250_randls_71_rotated.json,1309329,1489770,31,Woman
108,925779,DepthScenes,duration_manipulation_targetAtFixation,jsons/v1_VE250_randls_71_rotated.json,http://54.235.29.9/FacialAge/BNav_EC2/DepthDuration/v2_depth_duration_MTurk/v2_DepthDuration_HTML.html#19,19,1364,768,1364,768,8-29-2022,14-24-49,109,depth_duration_stimuli/002375_2014-06-28_20-13-44_260595134347_rgbf000032-resize_1/002375_2014-06-28_20-13-44_260595134347_rgbf000032-resize_1-target.png,250,4.0175,3.0,5701,251,feet,jsons/v1_VE250_randls_71_rotated.json,1309329,1489770,31,Woman
109,925779,DepthScenes,duration_manipulation_targetAtFixation,jsons/v1_VE250_randls_71_rotated.json,http://54.235.29.9/FacialAge/BNav_EC2/DepthDuration/v2_depth_duration_MTurk/v2_DepthDuration_HTML.html#19,19,1364,768,1364,768,8-29-2022,14-24-49,110,depth_duration_stimuli/002660_2014-06-13_15-44-18_094959634447_rgbf001878-resize_2/002660_2014-06-13_15-44-18_094959634447_rgbf001878-resize_2-target.png,250,3.576,6.0,7166,250,feet,jsons/v1_VE250_randls_71_rotated.json,1309329,1489770,31,Woman
110,925779,DepthScenes,duration_manipulation_targetAtFixation,jsons/v1_VE250_randls_71_rotated.json,http://54.235.29.9/FacialAge/BNav_EC2/DepthDuration/v2_depth_duration_MTurk/v2_DepthDuration_HTML.html#19,19,1364,768,1364,768,8-29-2022,14-24-49,111,depth_duration_stimuli/002153_2014-06-25_21-27-18_260595134347_rgbf000038-resize_5/002153_2014-06-25_21-27-18_260595134347_rgbf000038-resize_5-target.png,250,2.505,3.0,3680,249,feet,jsons/v1_VE250_randls_71_rotated.json,1309329,1489770,31,Woman
111,925779,DepthScenes,duration_manipulation_targetAtFixation,jsons/v1_VE250_randls_71_rotated.json,http://54.235.29.9/FacialAge/BNav_EC2/DepthDuration/v2_depth_duration_MTurk/v2_DepthDuration_HTML.html#19,19,1364,768,1364,768,8-29-2022,14-24-49,112,depth_duration_stimuli/000556_2014-06-09_22-42-56_260595134347_rgbf000214-resize_1/000556_2014-06-09_22-42-56_260595134347_rgbf000214-resize_1-target.png,250,4.8415,7.0,6972,268,feet,jsons/v1_VE250_randls_71_rotated.json,1309329,1489770,31,Woman
112,925779,DepthScenes,duration_manipulation_targetAtFixation,jsons/v1_VE250_randls_71_rotated.json,http://54.235.29.9/FacialAge/BNav_EC2/DepthDuration/v2_depth_duration_MTurk/v2_DepthDuration_HTML.html#19,19,1364,768,1364,768,8-29-2022,14-24-49,113,depth_duration_stimuli/001158_2014-06-17_15-32-16_260595134347_rgbf000138-resize_2/001158_2014-06-17_15-32-16_260595134347_rgbf000138-resize_2-target.png,250,4.5315,8.0,3742,228,feet,jsons/v1_VE250_randls_71_rotated.json,1309329,1489770,31,Woman
113,925779,DepthScenes,duration_manipulation_targetAtFixation,jsons/v1_VE250_randls_71_rotated.json,http://54.235.29.9/FacialAge/BNav_EC2/DepthDuration/v2_depth_duration_MTurk/v2_DepthDuration_HTML.html#19,19,1364,768,1364,768,8-29-2022,14-24-49,114,depth_duration_stimuli/001828_2014-06-26_21-40-03_260595134347_rgbf000024-resize_0/001828_2014-06-26_21-40-03_260595134347_rgbf000024-resize_0-target.png,250,4.8260000000000005,5.0,8074,252,feet,jsons/v1_VE250_randls_71_rotated.json,1309329,1489770,31,Woman
114,925779,DepthScenes,duration_manipulation_targetAtFixation,jsons/v1_VE250_randls_71_rotated.json,http://54.235.29.9/FacialAge/BNav_EC2/DepthDuration/v2_depth_duration_MTurk/v2_DepthDuration_HTML.html#19,19,1364,768,1364,768,8-29-2022,14-24-49,115,depth_duration_stimuli/000009_2014-05-26_14-32-05_260595134347_rgbf000034-resize_3/000009_2014-05-26_14-32-05_260595134347_rgbf000034-resize_3-target.png,250,3.8715,7.0,5949,251,feet,jsons/v1_VE250_randls_71_rotated.json,1309329,1489770,31,Woman
115,925779,DepthScenes,duration_manipulation_targetAtFixation,jsons/v1_VE250_randls_71_rotated.json,http://54.235.29.9/FacialAge/BNav_EC2/DepthDuration/v2_depth_duration_MTurk/v2_DepthDuration_HTML.html#19,19,1364,768,1364,768,8-29-2022,14-24-49,116,depth_duration_stimuli/000943_2014-06-09_19-31-07_260595134347_rgbf000128-resize_1/000943_2014-06-09_19-31-07_260595134347_rgbf000128-resize_1-target.png,250,1.9765,3.0,8033,256,feet,jsons/v1_VE250_randls_71_rotated.json,1309329,1489770,31,Woman
116,925779,DepthScenes,duration_manipulation_targetAtFixation,jsons/v1_VE250_randls_71_rotated.json,http://54.235.29.9/FacialAge/BNav_EC2/DepthDuration/v2_depth_duration_MTurk/v2_DepthDuration_HTML.html#19,19,1364,768,1364,768,8-29-2022,14-24-49,117,depth_duration_stimuli/003070_2014-06-15_14-58-27_094959634447_rgbf000150-resize_3/003070_2014-06-15_14-58-27_094959634447_rgbf000150-resize_3-target.png,250,2.9415,5.0,4111,238,feet,jsons/v1_VE250_randls_71_rotated.json,1309329,1489770,31,Woman
117,925779,DepthScenes,duration_manipulation_targetAtFixation,jsons/v1_VE250_randls_71_rotated.json,http://54.235.29.9/FacialAge/BNav_EC2/DepthDuration/v2_depth_duration_MTurk/v2_DepthDuration_HTML.html#19,19,1364,768,1364,768,8-29-2022,14-24-49,118,depth_duration_stimuli/002875_2014-06-01_15-19-00_094959634447_rgbf000151-resize_1/002875_2014-06-01_15-19-00_094959634447_rgbf000151-resize_1-target.png,250,1.9675,2.0,6907,248,feet,jsons/v1_VE250_randls_71_rotated.json,1309329,1489770,31,Woman
118,925779,DepthScenes,duration_manipulation_targetAtFixation,jsons/v1_VE250_randls_71_rotated.json,http://54.235.29.9/FacialAge/BNav_EC2/DepthDuration/v2_depth_duration_MTurk/v2_DepthDuration_HTML.html#19,19,1364,768,1364,768,8-29-2022,14-24-49,119,depth_duration_stimuli/001011_2014-06-08_23-18-54_260595134347_rgbf000044-resize_4/001011_2014-06-08_23-18-54_260595134347_rgbf000044-resize_4-target.png,250,2.4730000000000003,4.0,6966,238,feet,jsons/v1_VE250_randls_71_rotated.json,1309329,1489770,31,Woman
119,925779,DepthScenes,duration_manipulation_targetAtFixation,jsons/v1_VE250_randls_71_rotated.json,http://54.235.29.9/FacialAge/BNav_EC2/DepthDuration/v2_depth_duration_MTurk/v2_DepthDuration_HTML.html#19,19,1364,768,1364,768,8-29-2022,14-24-49,120,depth_duration_stimuli/000787_2014-06-08_22-33-53_260595134347_rgbf000175-resize_1/000787_2014-06-08_22-33-53_260595134347_rgbf000175-resize-original.jpg,250,4.784,0.0,8951,238,feet,jsons/v1_VE250_randls_71_rotated.json,1309329,1489770,31,Woman
120,925779,DepthScenes,duration_manipulation_targetAtFixation,jsons/v1_VE250_randls_71_rotated.json,http://54.235.29.9/FacialAge/BNav_EC2/DepthDuration/v2_depth_duration_MTurk/v2_DepthDuration_HTML.html#19,19,1364,768,1364,768,8-29-2022,14-24-49,121,depth_duration_stimuli/002568_2014-06-24_13-59-21_094959634447_rgbf000062-resize_4/002568_2014-06-24_13-59-21_094959634447_rgbf000062-resize_4-target.png,250,3.015,4.0,7996,257,feet,jsons/v1_VE250_randls_71_rotated.json,1309329,1489770,31,Woman
121,925779,DepthScenes,duration_manipulation_targetAtFixation,jsons/v1_VE250_randls_71_rotated.json,http://54.235.29.9/FacialAge/BNav_EC2/DepthDuration/v2_depth_duration_MTurk/v2_DepthDuration_HTML.html#19,19,1364,768,1364,768,8-29-2022,14-24-49,122,depth_duration_stimuli/003492_2014-05-21_15-50-55_094959634447_rgbf000828-resize_1/003492_2014-05-21_15-50-55_094959634447_rgbf000828-resize_1-target.png,250,4.06875,6.0,4684,237,feet,jsons/v1_VE250_randls_71_rotated.json,1309329,1489770,31,Woman
122,925779,DepthScenes,duration_manipulation_targetAtFixation,jsons/v1_VE250_randls_71_rotated.json,http://54.235.29.9/FacialAge/BNav_EC2/DepthDuration/v2_depth_duration_MTurk/v2_DepthDuration_HTML.html#19,19,1364,768,1364,768,8-29-2022,14-24-49,123,depth_duration_stimuli/001516_2014-06-20_16-25-09_260595134347_rgbf000076-resize_2/001516_2014-06-20_16-25-09_260595134347_rgbf000076-resize_2-target.png,250,1.7445,2.0,8230,248,feet,jsons/v1_VE250_randls_71_rotated.json,1309329,1489770,31,Woman
123,925779,DepthScenes,duration_manipulation_targetAtFixation,jsons/v1_VE250_randls_71_rotated.json,http://54.235.29.9/FacialAge/BNav_EC2/DepthDuration/v2_depth_duration_MTurk/v2_DepthDuration_HTML.html#19,19,1364,768,1364,768,8-29-2022,14-24-49,124,depth_duration_stimuli/002118_2014-06-25_20-32-08_260595134347_rgbf000078-resize_1/002118_2014-06-25_20-32-08_260595134347_rgbf000078-resize_1-target.png,250,2.6460000000000004,3.0,3480,122,feet,jsons/v1_VE250_randls_71_rotated.json,1309329,1489770,31,Woman
124,925779,DepthScenes,duration_manipulation_targetAtFixation,jsons/v1_VE250_randls_71_rotated.json,http://54.235.29.9/FacialAge/BNav_EC2/DepthDuration/v2_depth_duration_MTurk/v2_DepthDuration_HTML.html#19,19,1364,768,1364,768,8-29-2022,14-24-49,125,depth_duration_stimuli/000457_2014-06-08_16-52-43_260595134347_rgbf000199-resize_1/000457_2014-06-08_16-52-43_260595134347_rgbf000199-resize_1-target.png,250,3.6489999999999996,5.0,6459,255,feet,jsons/v1_VE250_randls_71_rotated.json,1309329,1489770,31,Woman
125,925779,DepthScenes,duration_manipulation_targetAtFixation,jsons/v1_VE250_randls_71_rotated.json,http://54.235.29.9/FacialAge/BNav_EC2/DepthDuration/v2_depth_duration_MTurk/v2_DepthDuration_HTML.html#19,19,1364,768,1364,768,8-29-2022,14-24-49,126,depth_duration_stimuli/000929_2014-06-09_16-33-19_260595134347_rgbf000139-resize_0/000929_2014-06-09_16-33-19_260595134347_rgbf000139-resize_0-target.png,250,2.8680000000000003,3.0,4577,282,feet,jsons/v1_VE250_randls_71_rotated.json,1309329,1489770,31,Woman
126,925779,DepthScenes,duration_manipulation_targetAtFixation,jsons/v1_VE250_randls_71_rotated.json,http://54.235.29.9/FacialAge/BNav_EC2/DepthDuration/v2_depth_duration_MTurk/v2_DepthDuration_HTML.html#19,19,1364,768,1364,768,8-29-2022,14-24-49,127,depth_duration_stimuli/001132_2014-06-17_14-48-54_260595134347_rgbf000100-resize_2/001132_2014-06-17_14-48-54_260595134347_rgbf000100-resize_2-target.png,250,3.753,6.0,8280,207,feet,jsons/v1_VE250_randls_71_rotated.json,1309329,1489770,31,Woman
127,925779,DepthScenes,duration_manipulation_targetAtFixation,jsons/v1_VE250_randls_71_rotated.json,http://54.235.29.9/FacialAge/BNav_EC2/DepthDuration/v2_depth_duration_MTurk/v2_DepthDuration_HTML.html#19,19,1364,768,1364,768,8-29-2022,14-24-49,128,depth_duration_stimuli/001133_2014-06-17_14-49-16_260595134347_rgbf000100-resize_0/001133_2014-06-17_14-49-16_260595134347_rgbf000100-resize_0-target.png,250,4.2115,4.0,8091,250,feet,jsons/v1_VE250_randls_71_rotated.json,1309329,1489770,31,Woman
128,925779,DepthScenes,duration_manipulation_targetAtFixation,jsons/v1_VE250_randls_71_rotated.json,http://54.235.29.9/FacialAge/BNav_EC2/DepthDuration/v2_depth_duration_MTurk/v2_DepthDuration_HTML.html#19,19,1364,768,1364,768,8-29-2022,14-24-49,129,depth_duration_stimuli/002444_2014-06-28_20-32-08_260595134347_rgbf000027-resize_0/002444_2014-06-28_20-32-08_260595134347_rgbf000027-resize_0-target.png,250,4.388999999999999,6.0,6937,257,feet,jsons/v1_VE250_randls_71_rotated.json,1309329,1489770,31,Woman
129,925779,DepthScenes,duration_manipulation_targetAtFixation,jsons/v1_VE250_randls_71_rotated.json,http://54.235.29.9/FacialAge/BNav_EC2/DepthDuration/v2_depth_duration_MTurk/v2_DepthDuration_HTML.html#19,19,1364,768,1364,768,8-29-2022,14-24-49,130,depth_duration_stimuli/000436_2014-06-09_22-25-11_260595134347_rgbf000137-resize_1/000436_2014-06-09_22-25-11_260595134347_rgbf000137-resize_1-target.png,250,4.0705,6.0,5790,249,feet,jsons/v1_VE250_randls_71_rotated.json,1309329,1489770,31,Woman
130,925779,DepthScenes,duration_manipulation_targetAtFixation,jsons/v1_VE250_randls_71_rotated.json,http://54.235.29.9/FacialAge/BNav_EC2/DepthDuration/v2_depth_duration_MTurk/v2_DepthDuration_HTML.html#19,19,1364,768,1364,768,8-29-2022,14-24-49,131,depth_duration_stimuli/002995_2014-06-15_12-31-26_094959634447_rgbf000150-resize_1/002995_2014-06-15_12-31-26_094959634447_rgbf000150-resize_1-target.png,250,3.8360000000000003,4.0,12372,249,feet,jsons/v1_VE250_randls_71_rotated.json,1309329,1489770,31,Woman
131,925779,DepthScenes,duration_manipulation_targetAtFixation,jsons/v1_VE250_randls_71_rotated.json,http://54.235.29.9/FacialAge/BNav_EC2/DepthDuration/v2_depth_duration_MTurk/v2_DepthDuration_HTML.html#19,19,1364,768,1364,768,8-29-2022,14-24-49,132,depth_duration_stimuli/002748_2014-06-22_19-07-22_094959634447_rgbf000078-resize_1/002748_2014-06-22_19-07-22_094959634447_rgbf000078-resize_1-target.png,250,4.6705,0.0,5915,250,feet,jsons/v1_VE250_randls_71_rotated.json,1309329,1489770,31,Woman
132,925779,DepthScenes,duration_manipulation_targetAtFixation,jsons/v1_VE250_randls_71_rotated.json,http://54.235.29.9/FacialAge/BNav_EC2/DepthDuration/v2_depth_duration_MTurk/v2_DepthDuration_HTML.html#19,19,1364,768,1364,768,8-29-2022,14-24-49,133,depth_duration_stimuli/001571_2014-06-20_17-21-32_260595134347_rgbf000089-resize_1/001571_2014-06-20_17-21-32_260595134347_rgbf000089-resize_1-target.png,250,1.86,3.0,9551,223,feet,jsons/v1_VE250_randls_71_rotated.json,1309329,1489770,31,Woman
133,925779,DepthScenes,duration_manipulation_targetAtFixation,jsons/v1_VE250_randls_71_rotated.json,http://54.235.29.9/FacialAge/BNav_EC2/DepthDuration/v2_depth_duration_MTurk/v2_DepthDuration_HTML.html#19,19,1364,768,1364,768,8-29-2022,14-24-49,134,depth_duration_stimuli/002272_2014-06-28_18-53-56_260595134347_rgbf000067-resize_2/002272_2014-06-28_18-53-56_260595134347_rgbf000067-resize_2-target.png,250,1.138,2.0,3726,250,feet,jsons/v1_VE250_randls_71_rotated.json,1309329,1489770,31,Woman
134,925779,DepthScenes,duration_manipulation_targetAtFixation,jsons/v1_VE250_randls_71_rotated.json,http://54.235.29.9/FacialAge/BNav_EC2/DepthDuration/v2_depth_duration_MTurk/v2_DepthDuration_HTML.html#19,19,1364,768,1364,768,8-29-2022,14-24-49,135,depth_duration_stimuli/000375_2014-06-08_11-17-29_260595134347_rgbf000133-resize_2/000375_2014-06-08_11-17-29_260595134347_rgbf000133-resize-original.jpg,250,4.718,0.0,6857,248,feet,jsons/v1_VE250_randls_71_rotated.json,1309329,1489770,31,Woman
135,925779,DepthScenes,duration_manipulation_targetAtFixation,jsons/v1_VE250_randls_71_rotated.json,http://54.235.29.9/FacialAge/BNav_EC2/DepthDuration/v2_depth_duration_MTurk/v2_DepthDuration_HTML.html#19,19,1364,768,1364,768,8-29-2022,14-24-49,136,depth_duration_stimuli/000866_2014-06-09_20-45-42_260595134347_rgbf000139-resize_1/000866_2014-06-09_20-45-42_260595134347_rgbf000139-resize_1-target.png,250,3.2155,43.0,7431,249,feet,jsons/v1_VE250_randls_71_rotated.json,1309329,1489770,31,Woman
136,925779,DepthScenes,duration_manipulation_targetAtFixation,jsons/v1_VE250_randls_71_rotated.json,http://54.235.29.9/FacialAge/BNav_EC2/DepthDuration/v2_depth_duration_MTurk/v2_DepthDuration_HTML.html#19,19,1364,768,1364,768,8-29-2022,14-24-49,137,depth_duration_stimuli/002989_2014-06-15_12-25-03_094959634447_rgbf000150-resize_3/002989_2014-06-15_12-25-03_094959634447_rgbf000150-resize_3-target.png,250,4.1975,6.0,4572,235,feet,jsons/v1_VE250_randls_71_rotated.json,1309329,1489770,31,Woman
137,925779,DepthScenes,duration_manipulation_targetAtFixation,jsons/v1_VE250_randls_71_rotated.json,http://54.235.29.9/FacialAge/BNav_EC2/DepthDuration/v2_depth_duration_MTurk/v2_DepthDuration_HTML.html#19,19,1364,768,1364,768,8-29-2022,14-24-49,138,depth_duration_stimuli/002199_2014-06-28_18-33-56_260595134347_rgbf000074-resize_0/002199_2014-06-28_18-33-56_260595134347_rgbf000074-resize_0-target.png,250,1.996,2.0,6958,257,feet,jsons/v1_VE250_randls_71_rotated.json,1309329,1489770,31,Woman
138,925779,DepthScenes,duration_manipulation_targetAtFixation,jsons/v1_VE250_randls_71_rotated.json,http://54.235.29.9/FacialAge/BNav_EC2/DepthDuration/v2_depth_duration_MTurk/v2_DepthDuration_HTML.html#19,19,1364,768,1364,768,8-29-2022,14-24-49,139,depth_duration_stimuli/001056_2014-06-08_18-46-44_260595134347_rgbf000068-resize_0/001056_2014-06-08_18-46-44_260595134347_rgbf000068-resize_0-target.png,250,2.6625,2.0,8123,244,feet,jsons/v1_VE250_randls_71_rotated.json,1309329,1489770,31,Woman
139,925779,DepthScenes,duration_manipulation_targetAtFixation,jsons/v1_VE250_randls_71_rotated.json,http://54.235.29.9/FacialAge/BNav_EC2/DepthDuration/v2_depth_duration_MTurk/v2_DepthDuration_HTML.html#19,19,1364,768,1364,768,8-29-2022,14-24-49,140,depth_duration_stimuli/002637_2014-06-24_14-51-13_094959634447_rgbf000066-resize_4/002637_2014-06-24_14-51-13_094959634447_rgbf000066-resize_4-target.png,250,1.9955,4.0,10181,264,feet,jsons/v1_VE250_randls_71_rotated.json,1309329,1489770,31,Woman
140,925779,DepthScenes,duration_manipulation_targetAtFixation,jsons/v1_VE250_randls_71_rotated.json,http://54.235.29.9/FacialAge/BNav_EC2/DepthDuration/v2_depth_duration_MTurk/v2_DepthDuration_HTML.html#19,19,1364,768,1364,768,8-29-2022,14-24-49,141,depth_duration_stimuli/003534_2014-05-22_15-06-10_094959634447_rgbf000102-resize_4/003534_2014-05-22_15-06-10_094959634447_rgbf000102-resize_4-target.png,250,1.426,2.0,5789,253,feet,jsons/v1_VE250_randls_71_rotated.json,1309329,1489770,31,Woman
141,925779,DepthScenes,duration_manipulation_targetAtFixation,jsons/v1_VE250_randls_71_rotated.json,http://54.235.29.9/FacialAge/BNav_EC2/DepthDuration/v2_depth_duration_MTurk/v2_DepthDuration_HTML.html#19,19,1364,768,1364,768,8-29-2022,14-24-49,142,depth_duration_stimuli/000483_2014-06-09_20-41-45_260595134347_rgbf000116-resize_4/000483_2014-06-09_20-41-45_260595134347_rgbf000116-resize_4-target.png,250,1.337,2.0,9599,251,feet,jsons/v1_VE250_randls_71_rotated.json,1309329,1489770,31,Woman
142,925779,DepthScenes,duration_manipulation_targetAtFixation,jsons/v1_VE250_randls_71_rotated.json,http://54.235.29.9/FacialAge/BNav_EC2/DepthDuration/v2_depth_duration_MTurk/v2_DepthDuration_HTML.html#19,19,1364,768,1364,768,8-29-2022,14-24-49,143,depth_duration_stimuli/000469_2014-06-09_19-42-10_260595134347_rgbf000081-resize_1/000469_2014-06-09_19-42-10_260595134347_rgbf000081-resize_1-target.png,250,1.652,3.0,5967,292,feet,jsons/v1_VE250_randls_71_rotated.json,1309329,1489770,31,Woman
143,925779,DepthScenes,duration_manipulation_targetAtFixation,jsons/v1_VE250_randls_71_rotated.json,http://54.235.29.9/FacialAge/BNav_EC2/DepthDuration/v2_depth_duration_MTurk/v2_DepthDuration_HTML.html#19,19,1364,768,1364,768,8-29-2022,14-24-49,144,depth_duration_stimuli/002209_2014-06-28_18-36-10_260595134347_rgbf000051-resize_1/002209_2014-06-28_18-36-10_260595134347_rgbf000051-resize_1-target.png,250,2.057,3.0,9315,251,feet,jsons/v1_VE250_randls_71_rotated.json,1309329,1489770,31,Woman
144,925779,DepthScenes,duration_manipulation_targetAtFixation,jsons/v1_VE250_randls_71_rotated.json,http://54.235.29.9/FacialAge/BNav_EC2/DepthDuration/v2_depth_duration_MTurk/v2_DepthDuration_HTML.html#19,19,1364,768,1364,768,8-29-2022,14-24-49,145,depth_duration_stimuli/002763_2014-06-22_19-13-10_094959634447_rgbf000075-resize_4/002763_2014-06-22_19-13-10_094959634447_rgbf000075-resize_4-target.png,250,1.68375,2.0,9266,249,feet,jsons/v1_VE250_randls_71_rotated.json,1309329,1489770,31,Woman
145,925779,DepthScenes,duration_manipulation_targetAtFixation,jsons/v1_VE250_randls_71_rotated.json,http://54.235.29.9/FacialAge/BNav_EC2/DepthDuration/v2_depth_duration_MTurk/v2_DepthDuration_HTML.html#19,19,1364,768,1364,768,8-29-2022,14-24-49,146,depth_duration_stimuli/000103_2014-05-14_22-01-17_260595134347_rgbf000152-resize_5/000103_2014-05-14_22-01-17_260595134347_rgbf000152-resize_5-target.png,250,1.993,3.0,7203,267,feet,jsons/v1_VE250_randls_71_rotated.json,1309329,1489770,31,Woman
146,925779,DepthScenes,duration_manipulation_targetAtFixation,jsons/v1_VE250_randls_71_rotated.json,http://54.235.29.9/FacialAge/BNav_EC2/DepthDuration/v2_depth_duration_MTurk/v2_DepthDuration_HTML.html#19,19,1364,768,1364,768,8-29-2022,14-24-49,147,depth_duration_stimuli/001555_2014-06-20_17-12-10_260595134347_rgbf000065-resize_4/001555_2014-06-20_17-12-10_260595134347_rgbf000065-resize_4-target.png,250,1.633,2.0,3355,250,feet,jsons/v1_VE250_randls_71_rotated.json,1309329,1489770,31,Woman
147,925779,DepthScenes,duration_manipulation_targetAtFixation,jsons/v1_VE250_randls_71_rotated.json,http://54.235.29.9/FacialAge/BNav_EC2/DepthDuration/v2_depth_duration_MTurk/v2_DepthDuration_HTML.html#19,19,1364,768,1364,768,8-29-2022,14-24-49,148,depth_duration_stimuli/000854_2014-06-09_19-43-13_260595134347_rgbf000066-resize_0/000854_2014-06-09_19-43-13_260595134347_rgbf000066-resize_0-target.png,250,3.068,2.0,11235,276,feet,jsons/v1_VE250_randls_71_rotated.json,1309329,1489770,31,Woman
148,925779,DepthScenes,duration_manipulation_targetAtFixation,jsons/v1_VE250_randls_71_rotated.json,http://54.235.29.9/FacialAge/BNav_EC2/DepthDuration/v2_depth_duration_MTurk/v2_DepthDuration_HTML.html#19,19,1364,768,1364,768,8-29-2022,14-24-49,149,depth_duration_stimuli/000758_2014-06-08_22-05-08_260595134347_rgbf000085-resize_0/000758_2014-06-08_22-05-08_260595134347_rgbf000085-resize_0-target.png,250,3.3810000000000002,5.0,4817,248,feet,jsons/v1_VE250_randls_71_rotated.json,1309329,1489770,31,Woman
149,925779,DepthScenes,duration_manipulation_targetAtFixation,jsons/v1_VE250_randls_71_rotated.json,http://54.235.29.9/FacialAge/BNav_EC2/DepthDuration/v2_depth_duration_MTurk/v2_DepthDuration_HTML.html#19,19,1364,768,1364,768,8-29-2022,14-24-49,150,depth_duration_stimuli/000734_2014-06-08_17-39-11_260595134347_rgbf000128-resize_2/000734_2014-06-08_17-39-11_260595134347_rgbf000128-resize_2-target.png,250,4.098,3.0,10480,227,feet,jsons/v1_VE250_randls_71_rotated.json,1309329,1489770,31,Woman
150,925779,DepthScenes,duration_manipulation_targetAtFixation,jsons/v1_VE250_randls_71_rotated.json,http://54.235.29.9/FacialAge/BNav_EC2/DepthDuration/v2_depth_duration_MTurk/v2_DepthDuration_HTML.html#19,19,1364,768,1364,768,8-29-2022,14-24-49,151,depth_duration_stimuli/000739_2014-06-08_18-45-58_260595134347_rgbf000068-resize_1/000739_2014-06-08_18-45-58_260595134347_rgbf000068-resize_1-target.png,250,3.534,5.0,6209,316,feet,jsons/v1_VE250_randls_71_rotated.json,1309329,1489770,31,Woman
151,925779,DepthScenes,duration_manipulation_targetAtFixation,jsons/v1_VE250_randls_71_rotated.json,http://54.235.29.9/FacialAge/BNav_EC2/DepthDuration/v2_depth_duration_MTurk/v2_DepthDuration_HTML.html#19,19,1364,768,1364,768,8-29-2022,14-24-49,152,depth_duration_stimuli/000569_2014-06-09_22-51-47_260595134347_rgbf000141-resize_3/000569_2014-06-09_22-51-47_260595134347_rgbf000141-resize-original.jpg,250,4.512,0.0,6865,273,feet,jsons/v1_VE250_randls_71_rotated.json,1309329,1489770,31,Woman
152,925779,DepthScenes,duration_manipulation_targetAtFixation,jsons/v1_VE250_randls_71_rotated.json,http://54.235.29.9/FacialAge/BNav_EC2/DepthDuration/v2_depth_duration_MTurk/v2_DepthDuration_HTML.html#19,19,1364,768,1364,768,8-29-2022,14-24-49,153,depth_duration_stimuli/002103_2014-06-25_20-00-40_260595134347_rgbf000049-resize_0/002103_2014-06-25_20-00-40_260595134347_rgbf000049-resize_0-target.png,250,4.105,3.0,6598,250,feet,jsons/v1_VE250_randls_71_rotated.json,1309329,1489770,31,Woman
153,925779,DepthScenes,duration_manipulation_targetAtFixation,jsons/v1_VE250_randls_71_rotated.json,http://54.235.29.9/FacialAge/BNav_EC2/DepthDuration/v2_depth_duration_MTurk/v2_DepthDuration_HTML.html#19,19,1364,768,1364,768,8-29-2022,14-24-49,154,depth_duration_stimuli/002039_2014-06-24_20-22-38_260595134347_rgbf000084-resize_1/002039_2014-06-24_20-22-38_260595134347_rgbf000084-resize_1-target.png,250,4.408,0.0,4318,235,feet,jsons/v1_VE250_randls_71_rotated.json,1309329,1489770,31,Woman
154,925779,DepthScenes,duration_manipulation_targetAtFixation,jsons/v1_VE250_randls_71_rotated.json,http://54.235.29.9/FacialAge/BNav_EC2/DepthDuration/v2_depth_duration_MTurk/v2_DepthDuration_HTML.html#19,19,1364,768,1364,768,8-29-2022,14-24-49,155,depth_duration_stimuli/002545_2014-06-24_13-38-53_094959634447_rgbf000080-resize_4/002545_2014-06-24_13-38-53_094959634447_rgbf000080-resize_4-target.png,250,1.9205,3.0,8615,263,feet,jsons/v1_VE250_randls_71_rotated.json,1309329,1489770,31,Woman
155,925779,DepthScenes,duration_manipulation_targetAtFixation,jsons/v1_VE250_randls_71_rotated.json,http://54.235.29.9/FacialAge/BNav_EC2/DepthDuration/v2_depth_duration_MTurk/v2_DepthDuration_HTML.html#19,19,1364,768,1364,768,8-29-2022,14-24-49,156,depth_duration_stimuli/001092_2014-06-15_17-34-58_260595134347_rgbf000171-resize_3/001092_2014-06-15_17-34-58_260595134347_rgbf000171-resize_3-target.png,250,2.6935,2.0,6238,251,feet,jsons/v1_VE250_randls_71_rotated.json,1309329,1489770,31,Woman
156,925779,DepthScenes,duration_manipulation_targetAtFixation,jsons/v1_VE250_randls_71_rotated.json,http://54.235.29.9/FacialAge/BNav_EC2/DepthDuration/v2_depth_duration_MTurk/v2_DepthDuration_HTML.html#19,19,1364,768,1364,768,8-29-2022,14-24-49,157,depth_duration_stimuli/001584_2014-06-20_11-07-43_260595134347_rgbf000002-resize_1/001584_2014-06-20_11-07-43_260595134347_rgbf000002-resize_1-target.png,250,3.53,4.0,8914,249,feet,jsons/v1_VE250_randls_71_rotated.json,1309329,1489770,31,Woman
157,925779,DepthScenes,duration_manipulation_targetAtFixation,jsons/v1_VE250_randls_71_rotated.json,http://54.235.29.9/FacialAge/BNav_EC2/DepthDuration/v2_depth_duration_MTurk/v2_DepthDuration_HTML.html#19,19,1364,768,1364,768,8-29-2022,14-24-49,158,depth_duration_stimuli/003621_2014-05-23_18-06-08_094959634447_rgbf000101-resize_1/003621_2014-05-23_18-06-08_094959634447_rgbf000101-resize_1-target.png,250,3.9835,6.0,5238,254,feet,jsons/v1_VE250_randls_71_rotated.json,1309329,1489770,31,Woman
158,925779,DepthScenes,duration_manipulation_targetAtFixation,jsons/v1_VE250_randls_71_rotated.json,http://54.235.29.9/FacialAge/BNav_EC2/DepthDuration/v2_depth_duration_MTurk/v2_DepthDuration_HTML.html#19,19,1364,768,1364,768,8-29-2022,14-24-49,159,depth_duration_stimuli/000665_2014-06-09_20-42-35_260595134347_rgbf000110-resize_1/000665_2014-06-09_20-42-35_260595134347_rgbf000110-resize_1-target.png,250,3.057,3.0,8807,267,feet,jsons/v1_VE250_randls_71_rotated.json,1309329,1489770,31,Woman
159,925779,DepthScenes,duration_manipulation_targetAtFixation,jsons/v1_VE250_randls_71_rotated.json,http://54.235.29.9/FacialAge/BNav_EC2/DepthDuration/v2_depth_duration_MTurk/v2_DepthDuration_HTML.html#19,19,1364,768,1364,768,8-29-2022,14-24-49,160,depth_duration_stimuli/001150_2014-06-17_15-27-34_260595134347_rgbf000108-resize_2/001150_2014-06-17_15-27-34_260595134347_rgbf000108-resize_2-target.png,250,4.0325,3.0,3838,248,feet,jsons/v1_VE250_randls_71_rotated.json,1309329,1489770,31,Woman
160,925779,DepthScenes,duration_manipulation_targetAtFixation,jsons/v1_VE250_randls_71_rotated.json,http://54.235.29.9/FacialAge/BNav_EC2/DepthDuration/v2_depth_duration_MTurk/v2_DepthDuration_HTML.html#19,19,1364,768,1364,768,8-29-2022,14-24-49,161,depth_duration_stimuli/002323_2014-06-28_20-01-54_260595134347_rgbf000051-resize_4/002323_2014-06-28_20-01-54_260595134347_rgbf000051-resize_4-target.png,250,3.7310000000000003,3.0,8262,250,feet,jsons/v1_VE250_randls_71_rotated.json,1309329,1489770,31,Woman
161,925779,DepthScenes,duration_manipulation_targetAtFixation,jsons/v1_VE250_randls_71_rotated.json,http://54.235.29.9/FacialAge/BNav_EC2/DepthDuration/v2_depth_duration_MTurk/v2_DepthDuration_HTML.html#19,19,1364,768,1364,768,8-29-2022,14-24-49,162,depth_duration_stimuli/000917_2014-06-09_22-45-29_260595134347_rgbf000149-resize_3/000917_2014-06-09_22-45-29_260595134347_rgbf000149-resize_3-target.png,250,4.1865,0.4,10451,251,feet,jsons/v1_VE250_randls_71_rotated.json,1309329,1489770,31,Woman
162,925779,DepthScenes,duration_manipulation_targetAtFixation,jsons/v1_VE250_randls_71_rotated.json,http://54.235.29.9/FacialAge/BNav_EC2/DepthDuration/v2_depth_duration_MTurk/v2_DepthDuration_HTML.html#19,19,1364,768,1364,768,8-29-2022,14-24-49,163,depth_duration_stimuli/002750_2014-06-22_19-08-03_094959634447_rgbf000094-resize_4/002750_2014-06-22_19-08-03_094959634447_rgbf000094-resize_4-target.png,250,2.354,4.0,11742,250,feet,jsons/v1_VE250_randls_71_rotated.json,1309329,1489770,31,Woman
163,925779,DepthScenes,duration_manipulation_targetAtFixation,jsons/v1_VE250_randls_71_rotated.json,http://54.235.29.9/FacialAge/BNav_EC2/DepthDuration/v2_depth_duration_MTurk/v2_DepthDuration_HTML.html#19,19,1364,768,1364,768,8-29-2022,14-24-49,164,depth_duration_stimuli/002549_2014-06-24_13-41-39_094959634447_rgbf000022-resize_3/002549_2014-06-24_13-41-39_094959634447_rgbf000022-resize_3-target.png,250,1.476,2.0,3600,251,feet,jsons/v1_VE250_randls_71_rotated.json,1309329,1489770,31,Woman
