,subjID,experimentName,versionName,sequenceName,url,selected_row,windowWidth,windowHeight,screenWidth,screenHeight,startDate,startTime,trial,stimulus,duration,actual_depth,depth_estimate,trial_RT,log_sceneDuration,unitSelection,seq_filepath,experimentTime,totalTime,age,gender
0,926551,DepthScenes,duration_manipulation_targetAtFixation,jsons/VE125_randls_31.json,http://54.235.29.9/FacialAge/BNav_EC2/DepthDuration/v2_depth_duration_MTurk/v2_DepthDuration_HTML.html#98,98,1745,982,1920,1080,8-21-2022,9-38-24,1,depth_duration_stimuli/001056_2014-06-08_18-46-44_260595134347_rgbf000068-resize_0/001056_2014-06-08_18-46-44_260595134347_rgbf000068-resize_0-target.png,125,2.6625,8,10327,125,feet,jsons/VE125_randls_31.json,708198,959562,50,Woman
1,926551,DepthScenes,duration_manipulation_targetAtFixation,jsons/VE125_randls_31.json,http://54.235.29.9/FacialAge/BNav_EC2/DepthDuration/v2_depth_duration_MTurk/v2_DepthDuration_HTML.html#98,98,1745,982,1920,1080,8-21-2022,9-38-24,2,depth_duration_stimuli/002199_2014-06-28_18-33-56_260595134347_rgbf000074-resize_0/002199_2014-06-28_18-33-56_260595134347_rgbf000074-resize_0-target.png,125,1.996,7,7505,127,feet,jsons/VE125_randls_31.json,708198,959562,50,Woman
2,926551,DepthScenes,duration_manipulation_targetAtFixation,jsons/VE125_randls_31.json,http://54.235.29.9/FacialAge/BNav_EC2/DepthDuration/v2_depth_duration_MTurk/v2_DepthDuration_HTML.html#98,98,1745,982,1920,1080,8-21-2022,9-38-24,3,depth_duration_stimuli/000642_2014-06-08_16-59-25_260595134347_rgbf000098-resize_2/000642_2014-06-08_16-59-25_260595134347_rgbf000098-resize_2-target.png,125,2.8815,6,2829,122,feet,jsons/VE125_randls_31.json,708198,959562,50,Woman
3,926551,DepthScenes,duration_manipulation_targetAtFixation,jsons/VE125_randls_31.json,http://54.235.29.9/FacialAge/BNav_EC2/DepthDuration/v2_depth_duration_MTurk/v2_DepthDuration_HTML.html#98,98,1745,982,1920,1080,8-21-2022,9-38-24,4,depth_duration_stimuli/002425_2014-06-28_20-27-29_260595134347_rgbf000031-resize_8/002425_2014-06-28_20-27-29_260595134347_rgbf000031-resize_8-target.png,125,3.8960000000000004,8,4741,124,feet,jsons/VE125_randls_31.json,708198,959562,50,Woman
4,926551,DepthScenes,duration_manipulation_targetAtFixation,jsons/VE125_randls_31.json,http://54.235.29.9/FacialAge/BNav_EC2/DepthDuration/v2_depth_duration_MTurk/v2_DepthDuration_HTML.html#98,98,1745,982,1920,1080,8-21-2022,9-38-24,5,depth_duration_stimuli/002600_2014-06-24_14-27-04_094959634447_rgbf000074-resize_2/002600_2014-06-24_14-27-04_094959634447_rgbf000074-resize_2-target.png,125,2.7575,10,4609,124,feet,jsons/VE125_randls_31.json,708198,959562,50,Woman
5,926551,DepthScenes,duration_manipulation_targetAtFixation,jsons/VE125_randls_31.json,http://54.235.29.9/FacialAge/BNav_EC2/DepthDuration/v2_depth_duration_MTurk/v2_DepthDuration_HTML.html#98,98,1745,982,1920,1080,8-21-2022,9-38-24,6,depth_duration_stimuli/003228_2014-05-14_13-42-35_094959634447_rgbf000101-resize_1/003228_2014-05-14_13-42-35_094959634447_rgbf000101-resize_1-target.png,125,1.9680000000000002,8,5811,126,feet,jsons/VE125_randls_31.json,708198,959562,50,Woman
6,926551,DepthScenes,duration_manipulation_targetAtFixation,jsons/VE125_randls_31.json,http://54.235.29.9/FacialAge/BNav_EC2/DepthDuration/v2_depth_duration_MTurk/v2_DepthDuration_HTML.html#98,98,1745,982,1920,1080,8-21-2022,9-38-24,7,depth_duration_stimuli/002445_2014-06-28_20-32-16_260595134347_rgbf000029-resize_4/002445_2014-06-28_20-32-16_260595134347_rgbf000029-resize_4-target.png,125,2.5315,6,5229,122,feet,jsons/VE125_randls_31.json,708198,959562,50,Woman
7,926551,DepthScenes,duration_manipulation_targetAtFixation,jsons/VE125_randls_31.json,http://54.235.29.9/FacialAge/BNav_EC2/DepthDuration/v2_depth_duration_MTurk/v2_DepthDuration_HTML.html#98,98,1745,982,1920,1080,8-21-2022,9-38-24,8,depth_duration_stimuli/000780_2014-06-08_22-28-29_260595134347_rgbf000126-resize_1/000780_2014-06-08_22-28-29_260595134347_rgbf000126-resize_1-target.png,125,3.3825,5,3216,123,feet,jsons/VE125_randls_31.json,708198,959562,50,Woman
8,926551,DepthScenes,duration_manipulation_targetAtFixation,jsons/VE125_randls_31.json,http://54.235.29.9/FacialAge/BNav_EC2/DepthDuration/v2_depth_duration_MTurk/v2_DepthDuration_HTML.html#98,98,1745,982,1920,1080,8-21-2022,9-38-24,9,depth_duration_stimuli/002989_2014-06-15_12-25-03_094959634447_rgbf000150-resize_3/002989_2014-06-15_12-25-03_094959634447_rgbf000150-resize_3-target.png,125,4.1975,7,3774,122,feet,jsons/VE125_randls_31.json,708198,959562,50,Woman
9,926551,DepthScenes,duration_manipulation_targetAtFixation,jsons/VE125_randls_31.json,http://54.235.29.9/FacialAge/BNav_EC2/DepthDuration/v2_depth_duration_MTurk/v2_DepthDuration_HTML.html#98,98,1745,982,1920,1080,8-21-2022,9-38-24,10,depth_duration_stimuli/000866_2014-06-09_20-45-42_260595134347_rgbf000139-resize_1/000866_2014-06-09_20-45-42_260595134347_rgbf000139-resize_1-target.png,125,3.2155,5,3752,125,feet,jsons/VE125_randls_31.json,708198,959562,50,Woman
10,926551,DepthScenes,duration_manipulation_targetAtFixation,jsons/VE125_randls_31.json,http://54.235.29.9/FacialAge/BNav_EC2/DepthDuration/v2_depth_duration_MTurk/v2_DepthDuration_HTML.html#98,98,1745,982,1920,1080,8-21-2022,9-38-24,11,depth_duration_stimuli/001175_2014-06-17_15-45-55_260595134347_rgbf000129-resize_4/001175_2014-06-17_15-45-55_260595134347_rgbf000129-resize_4-target.png,125,4.255,10,2979,126,feet,jsons/VE125_randls_31.json,708198,959562,50,Woman
11,926551,DepthScenes,duration_manipulation_targetAtFixation,jsons/VE125_randls_31.json,http://54.235.29.9/FacialAge/BNav_EC2/DepthDuration/v2_depth_duration_MTurk/v2_DepthDuration_HTML.html#98,98,1745,982,1920,1080,8-21-2022,9-38-24,12,depth_duration_stimuli/003490_2014-05-21_15-50-11_094959634447_rgbf000101-resize_3/003490_2014-05-21_15-50-11_094959634447_rgbf000101-resize_3-target.png,125,3.6445,13,3766,124,feet,jsons/VE125_randls_31.json,708198,959562,50,Woman
12,926551,DepthScenes,duration_manipulation_targetAtFixation,jsons/VE125_randls_31.json,http://54.235.29.9/FacialAge/BNav_EC2/DepthDuration/v2_depth_duration_MTurk/v2_DepthDuration_HTML.html#98,98,1745,982,1920,1080,8-21-2022,9-38-24,13,depth_duration_stimuli/000569_2014-06-09_22-51-47_260595134347_rgbf000141-resize_3/000569_2014-06-09_22-51-47_260595134347_rgbf000141-resize-original.jpg,125,4.512,10,2822,121,feet,jsons/VE125_randls_31.json,708198,959562,50,Woman
13,926551,DepthScenes,duration_manipulation_targetAtFixation,jsons/VE125_randls_31.json,http://54.235.29.9/FacialAge/BNav_EC2/DepthDuration/v2_depth_duration_MTurk/v2_DepthDuration_HTML.html#98,98,1745,982,1920,1080,8-21-2022,9-38-24,14,depth_duration_stimuli/000758_2014-06-08_22-05-08_260595134347_rgbf000085-resize_0/000758_2014-06-08_22-05-08_260595134347_rgbf000085-resize_0-target.png,125,3.3810000000000002,12,3230,123,feet,jsons/VE125_randls_31.json,708198,959562,50,Woman
14,926551,DepthScenes,duration_manipulation_targetAtFixation,jsons/VE125_randls_31.json,http://54.235.29.9/FacialAge/BNav_EC2/DepthDuration/v2_depth_duration_MTurk/v2_DepthDuration_HTML.html#98,98,1745,982,1920,1080,8-21-2022,9-38-24,15,depth_duration_stimuli/000854_2014-06-09_19-43-13_260595134347_rgbf000066-resize_0/000854_2014-06-09_19-43-13_260595134347_rgbf000066-resize_0-target.png,125,3.068,10,3377,126,feet,jsons/VE125_randls_31.json,708198,959562,50,Woman
15,926551,DepthScenes,duration_manipulation_targetAtFixation,jsons/VE125_randls_31.json,http://54.235.29.9/FacialAge/BNav_EC2/DepthDuration/v2_depth_duration_MTurk/v2_DepthDuration_HTML.html#98,98,1745,982,1920,1080,8-21-2022,9-38-24,16,depth_duration_stimuli/001029_2014-06-08_13-17-57_260595134347_rgbf000065-resize_1/001029_2014-06-08_13-17-57_260595134347_rgbf000065-resize_1-target.png,125,3.0835,15,2891,128,feet,jsons/VE125_randls_31.json,708198,959562,50,Woman
16,926551,DepthScenes,duration_manipulation_targetAtFixation,jsons/VE125_randls_31.json,http://54.235.29.9/FacialAge/BNav_EC2/DepthDuration/v2_depth_duration_MTurk/v2_DepthDuration_HTML.html#98,98,1745,982,1920,1080,8-21-2022,9-38-24,17,depth_duration_stimuli/000677_2014-06-08_23-10-32_260595134347_rgbf000158-resize_6/000677_2014-06-08_23-10-32_260595134347_rgbf000158-resize_6-target.png,125,3.556,8,3123,127,feet,jsons/VE125_randls_31.json,708198,959562,50,Woman
17,926551,DepthScenes,duration_manipulation_targetAtFixation,jsons/VE125_randls_31.json,http://54.235.29.9/FacialAge/BNav_EC2/DepthDuration/v2_depth_duration_MTurk/v2_DepthDuration_HTML.html#98,98,1745,982,1920,1080,8-21-2022,9-38-24,18,depth_duration_stimuli/000493_2014-06-09_21-01-18_260595134347_rgbf000196-resize_3/000493_2014-06-09_21-01-18_260595134347_rgbf000196-resize_3-target.png,125,3.44,12,5457,125,feet,jsons/VE125_randls_31.json,708198,959562,50,Woman
18,926551,DepthScenes,duration_manipulation_targetAtFixation,jsons/VE125_randls_31.json,http://54.235.29.9/FacialAge/BNav_EC2/DepthDuration/v2_depth_duration_MTurk/v2_DepthDuration_HTML.html#98,98,1745,982,1920,1080,8-21-2022,9-38-24,19,depth_duration_stimuli/000191_2014-05-12_17-07-38_260595134347_rgbf000199-resize_0/000191_2014-05-12_17-07-38_260595134347_rgbf000199-resize_0-target.png,125,3.7995,17,3326,124,feet,jsons/VE125_randls_31.json,708198,959562,50,Woman
19,926551,DepthScenes,duration_manipulation_targetAtFixation,jsons/VE125_randls_31.json,http://54.235.29.9/FacialAge/BNav_EC2/DepthDuration/v2_depth_duration_MTurk/v2_DepthDuration_HTML.html#98,98,1745,982,1920,1080,8-21-2022,9-38-24,20,depth_duration_stimuli/001570_2014-06-20_17-21-09_260595134347_rgbf000135-resize_4/001570_2014-06-20_17-21-09_260595134347_rgbf000135-resize_4-target.png,125,4.467,17,2785,122,feet,jsons/VE125_randls_31.json,708198,959562,50,Woman
20,926551,DepthScenes,duration_manipulation_targetAtFixation,jsons/VE125_randls_31.json,http://54.235.29.9/FacialAge/BNav_EC2/DepthDuration/v2_depth_duration_MTurk/v2_DepthDuration_HTML.html#98,98,1745,982,1920,1080,8-21-2022,9-38-24,21,depth_duration_stimuli/001392_2014-06-19_16-07-59_260595134347_rgbf000046-resize_1/001392_2014-06-19_16-07-59_260595134347_rgbf000046-resize_1-target.png,125,4.135,20,2511,123,feet,jsons/VE125_randls_31.json,708198,959562,50,Woman
21,926551,DepthScenes,duration_manipulation_targetAtFixation,jsons/VE125_randls_31.json,http://54.235.29.9/FacialAge/BNav_EC2/DepthDuration/v2_depth_duration_MTurk/v2_DepthDuration_HTML.html#98,98,1745,982,1920,1080,8-21-2022,9-38-24,22,depth_duration_stimuli/001059_2014-06-08_21-53-27_260595134347_rgbf000061-resize_4/001059_2014-06-08_21-53-27_260595134347_rgbf000061-resize_4-target.png,125,2.4185,6,4257,126,feet,jsons/VE125_randls_31.json,708198,959562,50,Woman
22,926551,DepthScenes,duration_manipulation_targetAtFixation,jsons/VE125_randls_31.json,http://54.235.29.9/FacialAge/BNav_EC2/DepthDuration/v2_depth_duration_MTurk/v2_DepthDuration_HTML.html#98,98,1745,982,1920,1080,8-21-2022,9-38-24,23,depth_duration_stimuli/001032_2014-06-08_13-23-17_260595134347_rgbf000021-resize_3/001032_2014-06-08_13-23-17_260595134347_rgbf000021-resize_3-target.png,125,3.2725,7,3062,124,feet,jsons/VE125_randls_31.json,708198,959562,50,Woman
23,926551,DepthScenes,duration_manipulation_targetAtFixation,jsons/VE125_randls_31.json,http://54.235.29.9/FacialAge/BNav_EC2/DepthDuration/v2_depth_duration_MTurk/v2_DepthDuration_HTML.html#98,98,1745,982,1920,1080,8-21-2022,9-38-24,24,depth_duration_stimuli/002043_2014-06-24_20-29-38_260595134347_rgbf000039-resize_4/002043_2014-06-24_20-29-38_260595134347_rgbf000039-resize_4-target.png,125,2.8435,6,3410,129,feet,jsons/VE125_randls_31.json,708198,959562,50,Woman
24,926551,DepthScenes,duration_manipulation_targetAtFixation,jsons/VE125_randls_31.json,http://54.235.29.9/FacialAge/BNav_EC2/DepthDuration/v2_depth_duration_MTurk/v2_DepthDuration_HTML.html#98,98,1745,982,1920,1080,8-21-2022,9-38-24,25,depth_duration_stimuli/003048_2014-06-15_13-49-43_094959634447_rgbf000150-resize_1/003048_2014-06-15_13-49-43_094959634447_rgbf000150-resize_1-target.png,125,4.0035,20,3481,123,feet,jsons/VE125_randls_31.json,708198,959562,50,Woman
25,926551,DepthScenes,duration_manipulation_targetAtFixation,jsons/VE125_randls_31.json,http://54.235.29.9/FacialAge/BNav_EC2/DepthDuration/v2_depth_duration_MTurk/v2_DepthDuration_HTML.html#98,98,1745,982,1920,1080,8-21-2022,9-38-24,26,depth_duration_stimuli/000917_2014-06-09_22-45-29_260595134347_rgbf000149-resize_3/000917_2014-06-09_22-45-29_260595134347_rgbf000149-resize_3-target.png,125,4.1865,8,2275,128,feet,jsons/VE125_randls_31.json,708198,959562,50,Woman
26,926551,DepthScenes,duration_manipulation_targetAtFixation,jsons/VE125_randls_31.json,http://54.235.29.9/FacialAge/BNav_EC2/DepthDuration/v2_depth_duration_MTurk/v2_DepthDuration_HTML.html#98,98,1745,982,1920,1080,8-21-2022,9-38-24,27,depth_duration_stimuli/002323_2014-06-28_20-01-54_260595134347_rgbf000051-resize_4/002323_2014-06-28_20-01-54_260595134347_rgbf000051-resize_4-target.png,125,3.7310000000000003,10,3198,116,feet,jsons/VE125_randls_31.json,708198,959562,50,Woman
27,926551,DepthScenes,duration_manipulation_targetAtFixation,jsons/VE125_randls_31.json,http://54.235.29.9/FacialAge/BNav_EC2/DepthDuration/v2_depth_duration_MTurk/v2_DepthDuration_HTML.html#98,98,1745,982,1920,1080,8-21-2022,9-38-24,28,depth_duration_stimuli/001066_2014-06-08_22-03-20_260595134347_rgbf000066-resize_4/001066_2014-06-08_22-03-20_260595134347_rgbf000066-resize_4-target.png,125,4.2330000000000005,9,3680,124,feet,jsons/VE125_randls_31.json,708198,959562,50,Woman
28,926551,DepthScenes,duration_manipulation_targetAtFixation,jsons/VE125_randls_31.json,http://54.235.29.9/FacialAge/BNav_EC2/DepthDuration/v2_depth_duration_MTurk/v2_DepthDuration_HTML.html#98,98,1745,982,1920,1080,8-21-2022,9-38-24,29,depth_duration_stimuli/000742_2014-06-08_18-48-09_260595134347_rgbf000164-resize_4/000742_2014-06-08_18-48-09_260595134347_rgbf000164-resize_4-target.png,125,4.632,15,13872,120,feet,jsons/VE125_randls_31.json,708198,959562,50,Woman
29,926551,DepthScenes,duration_manipulation_targetAtFixation,jsons/VE125_randls_31.json,http://54.235.29.9/FacialAge/BNav_EC2/DepthDuration/v2_depth_duration_MTurk/v2_DepthDuration_HTML.html#98,98,1745,982,1920,1080,8-21-2022,9-38-24,30,depth_duration_stimuli/000375_2014-06-08_11-17-29_260595134347_rgbf000133-resize_2/000375_2014-06-08_11-17-29_260595134347_rgbf000133-resize-original.jpg,125,4.718,0,7229,122,feet,jsons/VE125_randls_31.json,708198,959562,50,Woman
30,926551,DepthScenes,duration_manipulation_targetAtFixation,jsons/VE125_randls_31.json,http://54.235.29.9/FacialAge/BNav_EC2/DepthDuration/v2_depth_duration_MTurk/v2_DepthDuration_HTML.html#98,98,1745,982,1920,1080,8-21-2022,9-38-24,31,depth_duration_stimuli/002725_2014-06-22_11-47-51_094959634447_rgbf000070-resize_1/002725_2014-06-22_11-47-51_094959634447_rgbf000070-resize_1-target.png,125,2.195,15,4007,121,feet,jsons/VE125_randls_31.json,708198,959562,50,Woman
31,926551,DepthScenes,duration_manipulation_targetAtFixation,jsons/VE125_randls_31.json,http://54.235.29.9/FacialAge/BNav_EC2/DepthDuration/v2_depth_duration_MTurk/v2_DepthDuration_HTML.html#98,98,1745,982,1920,1080,8-21-2022,9-38-24,32,depth_duration_stimuli/002344_2014-06-28_20-06-29_260595134347_rgbf000030-resize_1/002344_2014-06-28_20-06-29_260595134347_rgbf000030-resize_1-target.png,125,1.5795,5,3867,127,feet,jsons/VE125_randls_31.json,708198,959562,50,Woman
32,926551,DepthScenes,duration_manipulation_targetAtFixation,jsons/VE125_randls_31.json,http://54.235.29.9/FacialAge/BNav_EC2/DepthDuration/v2_depth_duration_MTurk/v2_DepthDuration_HTML.html#98,98,1745,982,1920,1080,8-21-2022,9-38-24,33,depth_duration_stimuli/002549_2014-06-24_13-41-39_094959634447_rgbf000022-resize_3/002549_2014-06-24_13-41-39_094959634447_rgbf000022-resize_3-target.png,125,1.476,5,2554,125,feet,jsons/VE125_randls_31.json,708198,959562,50,Woman
33,926551,DepthScenes,duration_manipulation_targetAtFixation,jsons/VE125_randls_31.json,http://54.235.29.9/FacialAge/BNav_EC2/DepthDuration/v2_depth_duration_MTurk/v2_DepthDuration_HTML.html#98,98,1745,982,1920,1080,8-21-2022,9-38-24,34,depth_duration_stimuli/002750_2014-06-22_19-08-03_094959634447_rgbf000094-resize_4/002750_2014-06-22_19-08-03_094959634447_rgbf000094-resize_4-target.png,125,2.354,7,2381,123,feet,jsons/VE125_randls_31.json,708198,959562,50,Woman
34,926551,DepthScenes,duration_manipulation_targetAtFixation,jsons/VE125_randls_31.json,http://54.235.29.9/FacialAge/BNav_EC2/DepthDuration/v2_depth_duration_MTurk/v2_DepthDuration_HTML.html#98,98,1745,982,1920,1080,8-21-2022,9-38-24,35,depth_duration_stimuli/002663_2014-06-13_15-50-26_094959634447_rgbf000075-resize_1/002663_2014-06-13_15-50-26_094959634447_rgbf000075-resize_1-target.png,125,4.7495,8,2596,124,feet,jsons/VE125_randls_31.json,708198,959562,50,Woman
35,926551,DepthScenes,duration_manipulation_targetAtFixation,jsons/VE125_randls_31.json,http://54.235.29.9/FacialAge/BNav_EC2/DepthDuration/v2_depth_duration_MTurk/v2_DepthDuration_HTML.html#98,98,1745,982,1920,1080,8-21-2022,9-38-24,36,depth_duration_stimuli/000409_2014-06-04_19-23-33_260595134347_rgbf000067-resize_0/000409_2014-06-04_19-23-33_260595134347_rgbf000067-resize_0-target.png,125,3.7335,12,12029,125,feet,jsons/VE125_randls_31.json,708198,959562,50,Woman
36,926551,DepthScenes,duration_manipulation_targetAtFixation,jsons/VE125_randls_31.json,http://54.235.29.9/FacialAge/BNav_EC2/DepthDuration/v2_depth_duration_MTurk/v2_DepthDuration_HTML.html#98,98,1745,982,1920,1080,8-21-2022,9-38-24,37,depth_duration_stimuli/001110_2014-06-15_17-25-28_260595134347_rgbf000150-resize_1/001110_2014-06-15_17-25-28_260595134347_rgbf000150-resize_1-target.png,125,1.7115,5,8175,123,feet,jsons/VE125_randls_31.json,708198,959562,50,Woman
37,926551,DepthScenes,duration_manipulation_targetAtFixation,jsons/VE125_randls_31.json,http://54.235.29.9/FacialAge/BNav_EC2/DepthDuration/v2_depth_duration_MTurk/v2_DepthDuration_HTML.html#98,98,1745,982,1920,1080,8-21-2022,9-38-24,38,depth_duration_stimuli/000927_2014-06-09_16-32-30_260595134347_rgbf000123-resize_3/000927_2014-06-09_16-32-30_260595134347_rgbf000123-resize_3-target.png,125,2.6785,8,10349,120,feet,jsons/VE125_randls_31.json,708198,959562,50,Woman
38,926551,DepthScenes,duration_manipulation_targetAtFixation,jsons/VE125_randls_31.json,http://54.235.29.9/FacialAge/BNav_EC2/DepthDuration/v2_depth_duration_MTurk/v2_DepthDuration_HTML.html#98,98,1745,982,1920,1080,8-21-2022,9-38-24,39,depth_duration_stimuli/003292_2014-05-14_21-53-49_094959634447_rgbf000100-resize_2/003292_2014-05-14_21-53-49_094959634447_rgbf000100-resize_2-target.png,125,3.4815,10,9101,120,feet,jsons/VE125_randls_31.json,708198,959562,50,Woman
39,926551,DepthScenes,duration_manipulation_targetAtFixation,jsons/VE125_randls_31.json,http://54.235.29.9/FacialAge/BNav_EC2/DepthDuration/v2_depth_duration_MTurk/v2_DepthDuration_HTML.html#98,98,1745,982,1920,1080,8-21-2022,9-38-24,40,depth_duration_stimuli/002639_2014-06-24_14-51-37_094959634447_rgbf000074-resize_4/002639_2014-06-24_14-51-37_094959634447_rgbf000074-resize_4-target.png,125,4.0375,6,5209,124,feet,jsons/VE125_randls_31.json,708198,959562,50,Woman
40,926551,DepthScenes,duration_manipulation_targetAtFixation,jsons/VE125_randls_31.json,http://54.235.29.9/FacialAge/BNav_EC2/DepthDuration/v2_depth_duration_MTurk/v2_DepthDuration_HTML.html#98,98,1745,982,1920,1080,8-21-2022,9-38-24,41,depth_duration_stimuli/000878_2014-06-08_22-52-45_260595134347_rgbf000045-resize_2/000878_2014-06-08_22-52-45_260595134347_rgbf000045-resize_2-target.png,125,2.092,4,6404,125,feet,jsons/VE125_randls_31.json,708198,959562,50,Woman
41,926551,DepthScenes,duration_manipulation_targetAtFixation,jsons/VE125_randls_31.json,http://54.235.29.9/FacialAge/BNav_EC2/DepthDuration/v2_depth_duration_MTurk/v2_DepthDuration_HTML.html#98,98,1745,982,1920,1080,8-21-2022,9-38-24,42,depth_duration_stimuli/002953_2014-06-08_17-32-18_094959634447_rgbf000059-resize_5/002953_2014-06-08_17-32-18_094959634447_rgbf000059-resize_5-target.png,125,1.551,4,6575,121,feet,jsons/VE125_randls_31.json,708198,959562,50,Woman
42,926551,DepthScenes,duration_manipulation_targetAtFixation,jsons/VE125_randls_31.json,http://54.235.29.9/FacialAge/BNav_EC2/DepthDuration/v2_depth_duration_MTurk/v2_DepthDuration_HTML.html#98,98,1745,982,1920,1080,8-21-2022,9-38-24,43,depth_duration_stimuli/002788_2014-06-22_19-36-03_094959634447_rgbf000088-resize_2/002788_2014-06-22_19-36-03_094959634447_rgbf000088-resize_2-target.png,125,1.6465,8,4809,125,feet,jsons/VE125_randls_31.json,708198,959562,50,Woman
43,926551,DepthScenes,duration_manipulation_targetAtFixation,jsons/VE125_randls_31.json,http://54.235.29.9/FacialAge/BNav_EC2/DepthDuration/v2_depth_duration_MTurk/v2_DepthDuration_HTML.html#98,98,1745,982,1920,1080,8-21-2022,9-38-24,44,depth_duration_stimuli/000749_2014-06-08_21-55-06_260595134347_rgbf000070-resize_2/000749_2014-06-08_21-55-06_260595134347_rgbf000070-resize_2-target.png,125,2.331,6,4699,127,feet,jsons/VE125_randls_31.json,708198,959562,50,Woman
44,926551,DepthScenes,duration_manipulation_targetAtFixation,jsons/VE125_randls_31.json,http://54.235.29.9/FacialAge/BNav_EC2/DepthDuration/v2_depth_duration_MTurk/v2_DepthDuration_HTML.html#98,98,1745,982,1920,1080,8-21-2022,9-38-24,45,depth_duration_stimuli/000787_2014-06-08_22-33-53_260595134347_rgbf000175-resize_1/000787_2014-06-08_22-33-53_260595134347_rgbf000175-resize-original.jpg,125,4.784,0,7036,124,feet,jsons/VE125_randls_31.json,708198,959562,50,Woman
45,926551,DepthScenes,duration_manipulation_targetAtFixation,jsons/VE125_randls_31.json,http://54.235.29.9/FacialAge/BNav_EC2/DepthDuration/v2_depth_duration_MTurk/v2_DepthDuration_HTML.html#98,98,1745,982,1920,1080,8-21-2022,9-38-24,46,depth_duration_stimuli/002509_2014-06-24_13-19-22_094959634447_rgbf000077-resize_0/002509_2014-06-24_13-19-22_094959634447_rgbf000077-resize_0-target.png,125,1.3065,4,3759,124,feet,jsons/VE125_randls_31.json,708198,959562,50,Woman
46,926551,DepthScenes,duration_manipulation_targetAtFixation,jsons/VE125_randls_31.json,http://54.235.29.9/FacialAge/BNav_EC2/DepthDuration/v2_depth_duration_MTurk/v2_DepthDuration_HTML.html#98,98,1745,982,1920,1080,8-21-2022,9-38-24,47,depth_duration_stimuli/003338_2014-05-20_11-01-23_094959634447_rgbf000051-resize_6/003338_2014-05-20_11-01-23_094959634447_rgbf000051-resize_6-target.png,125,1.693,5,3313,127,feet,jsons/VE125_randls_31.json,708198,959562,50,Woman
47,926551,DepthScenes,duration_manipulation_targetAtFixation,jsons/VE125_randls_31.json,http://54.235.29.9/FacialAge/BNav_EC2/DepthDuration/v2_depth_duration_MTurk/v2_DepthDuration_HTML.html#98,98,1745,982,1920,1080,8-21-2022,9-38-24,48,depth_duration_stimuli/002630_2014-06-24_14-47-50_094959634447_rgbf000055-resize_1/002630_2014-06-24_14-47-50_094959634447_rgbf000055-resize_1-target.png,125,3.0095,12,4120,124,feet,jsons/VE125_randls_31.json,708198,959562,50,Woman
48,926551,DepthScenes,duration_manipulation_targetAtFixation,jsons/VE125_randls_31.json,http://54.235.29.9/FacialAge/BNav_EC2/DepthDuration/v2_depth_duration_MTurk/v2_DepthDuration_HTML.html#98,98,1745,982,1920,1080,8-21-2022,9-38-24,49,depth_duration_stimuli/002758_2014-06-22_19-11-20_094959634447_rgbf000128-resize_1/002758_2014-06-22_19-11-20_094959634447_rgbf000128-resize_1-target.png,125,2.555,8,2993,126,feet,jsons/VE125_randls_31.json,708198,959562,50,Woman
49,926551,DepthScenes,duration_manipulation_targetAtFixation,jsons/VE125_randls_31.json,http://54.235.29.9/FacialAge/BNav_EC2/DepthDuration/v2_depth_duration_MTurk/v2_DepthDuration_HTML.html#98,98,1745,982,1920,1080,8-21-2022,9-38-24,50,depth_duration_stimuli/002118_2014-06-25_20-32-08_260595134347_rgbf000078-resize_1/002118_2014-06-25_20-32-08_260595134347_rgbf000078-resize_1-target.png,125,2.6460000000000004,6,4703,121,feet,jsons/VE125_randls_31.json,708198,959562,50,Woman
50,926551,DepthScenes,duration_manipulation_targetAtFixation,jsons/VE125_randls_31.json,http://54.235.29.9/FacialAge/BNav_EC2/DepthDuration/v2_depth_duration_MTurk/v2_DepthDuration_HTML.html#98,98,1745,982,1920,1080,8-21-2022,9-38-24,51,depth_duration_stimuli/001516_2014-06-20_16-25-09_260595134347_rgbf000076-resize_2/001516_2014-06-20_16-25-09_260595134347_rgbf000076-resize_2-target.png,125,1.7445,5,4615,123,feet,jsons/VE125_randls_31.json,708198,959562,50,Woman
51,926551,DepthScenes,duration_manipulation_targetAtFixation,jsons/VE125_randls_31.json,http://54.235.29.9/FacialAge/BNav_EC2/DepthDuration/v2_depth_duration_MTurk/v2_DepthDuration_HTML.html#98,98,1745,982,1920,1080,8-21-2022,9-38-24,52,depth_duration_stimuli/001167_2014-06-17_15-38-07_260595134347_rgbf000108-resize_0/001167_2014-06-17_15-38-07_260595134347_rgbf000108-resize_0-target.png,125,1.8505,0,3285,122,feet,jsons/VE125_randls_31.json,708198,959562,50,Woman
52,926551,DepthScenes,duration_manipulation_targetAtFixation,jsons/VE125_randls_31.json,http://54.235.29.9/FacialAge/BNav_EC2/DepthDuration/v2_depth_duration_MTurk/v2_DepthDuration_HTML.html#98,98,1745,982,1920,1080,8-21-2022,9-38-24,53,depth_duration_stimuli/003587_2014-05-23_16-48-02_094959634447_rgbf002384-resize_2/003587_2014-05-23_16-48-02_094959634447_rgbf002384-resize_2-target.png,125,1.357,5,3153,123,feet,jsons/VE125_randls_31.json,708198,959562,50,Woman
53,926551,DepthScenes,duration_manipulation_targetAtFixation,jsons/VE125_randls_31.json,http://54.235.29.9/FacialAge/BNav_EC2/DepthDuration/v2_depth_duration_MTurk/v2_DepthDuration_HTML.html#98,98,1745,982,1920,1080,8-21-2022,9-38-24,54,depth_duration_stimuli/000906_2014-06-08_13-35-43_260595134347_rgbf000155-resize_1/000906_2014-06-08_13-35-43_260595134347_rgbf000155-resize_1-target.png,125,2.8489999999999998,12,3333,123,feet,jsons/VE125_randls_31.json,708198,959562,50,Woman
54,926551,DepthScenes,duration_manipulation_targetAtFixation,jsons/VE125_randls_31.json,http://54.235.29.9/FacialAge/BNav_EC2/DepthDuration/v2_depth_duration_MTurk/v2_DepthDuration_HTML.html#98,98,1745,982,1920,1080,8-21-2022,9-38-24,55,depth_duration_stimuli/002805_2014-06-22_19-54-03_094959634447_rgbf000079-resize_1/002805_2014-06-22_19-54-03_094959634447_rgbf000079-resize_1-target.png,125,3.1439999999999997,15,3465,126,feet,jsons/VE125_randls_31.json,708198,959562,50,Woman
55,926551,DepthScenes,duration_manipulation_targetAtFixation,jsons/VE125_randls_31.json,http://54.235.29.9/FacialAge/BNav_EC2/DepthDuration/v2_depth_duration_MTurk/v2_DepthDuration_HTML.html#98,98,1745,982,1920,1080,8-21-2022,9-38-24,56,depth_duration_stimuli/000469_2014-06-09_19-42-10_260595134347_rgbf000081-resize_1/000469_2014-06-09_19-42-10_260595134347_rgbf000081-resize_1-target.png,125,1.652,10,2973,133,feet,jsons/VE125_randls_31.json,708198,959562,50,Woman
56,926551,DepthScenes,duration_manipulation_targetAtFixation,jsons/VE125_randls_31.json,http://54.235.29.9/FacialAge/BNav_EC2/DepthDuration/v2_depth_duration_MTurk/v2_DepthDuration_HTML.html#98,98,1745,982,1920,1080,8-21-2022,9-38-24,57,depth_duration_stimuli/000483_2014-06-09_20-41-45_260595134347_rgbf000116-resize_4/000483_2014-06-09_20-41-45_260595134347_rgbf000116-resize_4-target.png,125,1.337,0,3272,94,feet,jsons/VE125_randls_31.json,708198,959562,50,Woman
57,926551,DepthScenes,duration_manipulation_targetAtFixation,jsons/VE125_randls_31.json,http://54.235.29.9/FacialAge/BNav_EC2/DepthDuration/v2_depth_duration_MTurk/v2_DepthDuration_HTML.html#98,98,1745,982,1920,1080,8-21-2022,9-38-24,58,depth_duration_stimuli/002570_2014-06-24_13-59-54_094959634447_rgbf000059-resize_0/002570_2014-06-24_13-59-54_094959634447_rgbf000059-resize_0-target.png,125,4.037,10,4150,124,feet,jsons/VE125_randls_31.json,708198,959562,50,Woman
58,926551,DepthScenes,duration_manipulation_targetAtFixation,jsons/VE125_randls_31.json,http://54.235.29.9/FacialAge/BNav_EC2/DepthDuration/v2_depth_duration_MTurk/v2_DepthDuration_HTML.html#98,98,1745,982,1920,1080,8-21-2022,9-38-24,59,depth_duration_stimuli/002467_2014-06-28_20-38-07_260595134347_rgbf000026-resize_2/002467_2014-06-28_20-38-07_260595134347_rgbf000026-resize_2-target.png,125,4.742,18,4455,124,feet,jsons/VE125_randls_31.json,708198,959562,50,Woman
59,926551,DepthScenes,duration_manipulation_targetAtFixation,jsons/VE125_randls_31.json,http://54.235.29.9/FacialAge/BNav_EC2/DepthDuration/v2_depth_duration_MTurk/v2_DepthDuration_HTML.html#98,98,1745,982,1920,1080,8-21-2022,9-38-24,60,depth_duration_stimuli/003621_2014-05-23_18-06-08_094959634447_rgbf000101-resize_1/003621_2014-05-23_18-06-08_094959634447_rgbf000101-resize_1-target.png,125,3.9835,14,4688,121,feet,jsons/VE125_randls_31.json,708198,959562,50,Woman
60,926551,DepthScenes,duration_manipulation_targetAtFixation,jsons/VE125_randls_31.json,http://54.235.29.9/FacialAge/BNav_EC2/DepthDuration/v2_depth_duration_MTurk/v2_DepthDuration_HTML.html#98,98,1745,982,1920,1080,8-21-2022,9-38-24,61,depth_duration_stimuli/001584_2014-06-20_11-07-43_260595134347_rgbf000002-resize_1/001584_2014-06-20_11-07-43_260595134347_rgbf000002-resize_1-target.png,125,3.53,15,6106,127,feet,jsons/VE125_randls_31.json,708198,959562,50,Woman
61,926551,DepthScenes,duration_manipulation_targetAtFixation,jsons/VE125_randls_31.json,http://54.235.29.9/FacialAge/BNav_EC2/DepthDuration/v2_depth_duration_MTurk/v2_DepthDuration_HTML.html#98,98,1745,982,1920,1080,8-21-2022,9-38-24,62,depth_duration_stimuli/002763_2014-06-22_19-13-10_094959634447_rgbf000075-resize_4/002763_2014-06-22_19-13-10_094959634447_rgbf000075-resize_4-target.png,125,1.68375,6,12489,127,feet,jsons/VE125_randls_31.json,708198,959562,50,Woman
62,926551,DepthScenes,duration_manipulation_targetAtFixation,jsons/VE125_randls_31.json,http://54.235.29.9/FacialAge/BNav_EC2/DepthDuration/v2_depth_duration_MTurk/v2_DepthDuration_HTML.html#98,98,1745,982,1920,1080,8-21-2022,9-38-24,63,depth_duration_stimuli/002209_2014-06-28_18-36-10_260595134347_rgbf000051-resize_1/002209_2014-06-28_18-36-10_260595134347_rgbf000051-resize_1-target.png,125,2.057,10,6136,121,feet,jsons/VE125_randls_31.json,708198,959562,50,Woman
63,926551,DepthScenes,duration_manipulation_targetAtFixation,jsons/VE125_randls_31.json,http://54.235.29.9/FacialAge/BNav_EC2/DepthDuration/v2_depth_duration_MTurk/v2_DepthDuration_HTML.html#98,98,1745,982,1920,1080,8-21-2022,9-38-24,64,depth_duration_stimuli/002988_2014-06-15_12-24-20_094959634447_rgbf000150-resize_1/002988_2014-06-15_12-24-20_094959634447_rgbf000150-resize_1-target.png,125,4.7669999999999995,20,3216,123,feet,jsons/VE125_randls_31.json,708198,959562,50,Woman
64,926551,DepthScenes,duration_manipulation_targetAtFixation,jsons/VE125_randls_31.json,http://54.235.29.9/FacialAge/BNav_EC2/DepthDuration/v2_depth_duration_MTurk/v2_DepthDuration_HTML.html#98,98,1745,982,1920,1080,8-21-2022,9-38-24,65,depth_duration_stimuli/001052_2014-06-08_18-24-54_260595134347_rgbf000130-resize_1/001052_2014-06-08_18-24-54_260595134347_rgbf000130-resize_1-target.png,125,4.1045,51,5984,121,feet,jsons/VE125_randls_31.json,708198,959562,50,Woman
65,926551,DepthScenes,duration_manipulation_targetAtFixation,jsons/VE125_randls_31.json,http://54.235.29.9/FacialAge/BNav_EC2/DepthDuration/v2_depth_duration_MTurk/v2_DepthDuration_HTML.html#98,98,1745,982,1920,1080,8-21-2022,9-38-24,66,depth_duration_stimuli/001222_2014-06-17_16-24-06_260595134347_rgbf000073-resize_0/001222_2014-06-17_16-24-06_260595134347_rgbf000073-resize-original.jpg,125,1.4385,0,4042,124,feet,jsons/VE125_randls_31.json,708198,959562,50,Woman
66,926551,DepthScenes,duration_manipulation_targetAtFixation,jsons/VE125_randls_31.json,http://54.235.29.9/FacialAge/BNav_EC2/DepthDuration/v2_depth_duration_MTurk/v2_DepthDuration_HTML.html#98,98,1745,982,1920,1080,8-21-2022,9-38-24,67,depth_duration_stimuli/001092_2014-06-15_17-34-58_260595134347_rgbf000171-resize_3/001092_2014-06-15_17-34-58_260595134347_rgbf000171-resize_3-target.png,125,2.6935,12,4986,129,feet,jsons/VE125_randls_31.json,708198,959562,50,Woman
67,926551,DepthScenes,duration_manipulation_targetAtFixation,jsons/VE125_randls_31.json,http://54.235.29.9/FacialAge/BNav_EC2/DepthDuration/v2_depth_duration_MTurk/v2_DepthDuration_HTML.html#98,98,1745,982,1920,1080,8-21-2022,9-38-24,68,depth_duration_stimuli/002545_2014-06-24_13-38-53_094959634447_rgbf000080-resize_4/002545_2014-06-24_13-38-53_094959634447_rgbf000080-resize_4-target.png,125,1.9205,10,3088,124,feet,jsons/VE125_randls_31.json,708198,959562,50,Woman
68,926551,DepthScenes,duration_manipulation_targetAtFixation,jsons/VE125_randls_31.json,http://54.235.29.9/FacialAge/BNav_EC2/DepthDuration/v2_depth_duration_MTurk/v2_DepthDuration_HTML.html#98,98,1745,982,1920,1080,8-21-2022,9-38-24,69,depth_duration_stimuli/000736_2014-06-08_18-24-15_260595134347_rgbf000206-resize_3/000736_2014-06-08_18-24-15_260595134347_rgbf000206-resize_3-target.png,125,3.515,12,3852,121,feet,jsons/VE125_randls_31.json,708198,959562,50,Woman
69,926551,DepthScenes,duration_manipulation_targetAtFixation,jsons/VE125_randls_31.json,http://54.235.29.9/FacialAge/BNav_EC2/DepthDuration/v2_depth_duration_MTurk/v2_DepthDuration_HTML.html#98,98,1745,982,1920,1080,8-21-2022,9-38-24,70,depth_duration_stimuli/000137_2014-05-20_17-04-49_260595134347_rgbf000120-resize_1/000137_2014-05-20_17-04-49_260595134347_rgbf000120-resize_1-target.png,125,3.786,9,4279,124,feet,jsons/VE125_randls_31.json,708198,959562,50,Woman
70,926551,DepthScenes,duration_manipulation_targetAtFixation,jsons/VE125_randls_31.json,http://54.235.29.9/FacialAge/BNav_EC2/DepthDuration/v2_depth_duration_MTurk/v2_DepthDuration_HTML.html#98,98,1745,982,1920,1080,8-21-2022,9-38-24,71,depth_duration_stimuli/000470_2014-06-09_19-42-40_260595134347_rgbf000094-resize_1/000470_2014-06-09_19-42-40_260595134347_rgbf000094-resize_1-target.png,125,1.831,6,4472,126,feet,jsons/VE125_randls_31.json,708198,959562,50,Woman
71,926551,DepthScenes,duration_manipulation_targetAtFixation,jsons/VE125_randls_31.json,http://54.235.29.9/FacialAge/BNav_EC2/DepthDuration/v2_depth_duration_MTurk/v2_DepthDuration_HTML.html#98,98,1745,982,1920,1080,8-21-2022,9-38-24,72,depth_duration_stimuli/000109_2014-05-14_23-41-52_260595134347_rgbf000035-resize_9/000109_2014-05-14_23-41-52_260595134347_rgbf000035-resize_9-target.png,125,1.3545,8,4431,124,feet,jsons/VE125_randls_31.json,708198,959562,50,Woman
72,926551,DepthScenes,duration_manipulation_targetAtFixation,jsons/VE125_randls_31.json,http://54.235.29.9/FacialAge/BNav_EC2/DepthDuration/v2_depth_duration_MTurk/v2_DepthDuration_HTML.html#98,98,1745,982,1920,1080,8-21-2022,9-38-24,73,depth_duration_stimuli/002748_2014-06-22_19-07-22_094959634447_rgbf000078-resize_1/002748_2014-06-22_19-07-22_094959634447_rgbf000078-resize_1-target.png,125,4.6705,10,3920,125,feet,jsons/VE125_randls_31.json,708198,959562,50,Woman
73,926551,DepthScenes,duration_manipulation_targetAtFixation,jsons/VE125_randls_31.json,http://54.235.29.9/FacialAge/BNav_EC2/DepthDuration/v2_depth_duration_MTurk/v2_DepthDuration_HTML.html#98,98,1745,982,1920,1080,8-21-2022,9-38-24,74,depth_duration_stimuli/002995_2014-06-15_12-31-26_094959634447_rgbf000150-resize_1/002995_2014-06-15_12-31-26_094959634447_rgbf000150-resize_1-target.png,125,3.8360000000000003,12,4360,127,feet,jsons/VE125_randls_31.json,708198,959562,50,Woman
74,926551,DepthScenes,duration_manipulation_targetAtFixation,jsons/VE125_randls_31.json,http://54.235.29.9/FacialAge/BNav_EC2/DepthDuration/v2_depth_duration_MTurk/v2_DepthDuration_HTML.html#98,98,1745,982,1920,1080,8-21-2022,9-38-24,75,depth_duration_stimuli/000929_2014-06-09_16-33-19_260595134347_rgbf000139-resize_0/000929_2014-06-09_16-33-19_260595134347_rgbf000139-resize_0-target.png,125,2.8680000000000003,14,3374,112,feet,jsons/VE125_randls_31.json,708198,959562,50,Woman
75,926551,DepthScenes,duration_manipulation_targetAtFixation,jsons/VE125_randls_31.json,http://54.235.29.9/FacialAge/BNav_EC2/DepthDuration/v2_depth_duration_MTurk/v2_DepthDuration_HTML.html#98,98,1745,982,1920,1080,8-21-2022,9-38-24,76,depth_duration_stimuli/000457_2014-06-08_16-52-43_260595134347_rgbf000199-resize_1/000457_2014-06-08_16-52-43_260595134347_rgbf000199-resize_1-target.png,125,3.6489999999999996,16,4798,125,feet,jsons/VE125_randls_31.json,708198,959562,50,Woman
76,926551,DepthScenes,duration_manipulation_targetAtFixation,jsons/VE125_randls_31.json,http://54.235.29.9/FacialAge/BNav_EC2/DepthDuration/v2_depth_duration_MTurk/v2_DepthDuration_HTML.html#98,98,1745,982,1920,1080,8-21-2022,9-38-24,77,depth_duration_stimuli/002039_2014-06-24_20-22-38_260595134347_rgbf000084-resize_1/002039_2014-06-24_20-22-38_260595134347_rgbf000084-resize_1-target.png,125,4.408,10,2847,125,feet,jsons/VE125_randls_31.json,708198,959562,50,Woman
77,926551,DepthScenes,duration_manipulation_targetAtFixation,jsons/VE125_randls_31.json,http://54.235.29.9/FacialAge/BNav_EC2/DepthDuration/v2_depth_duration_MTurk/v2_DepthDuration_HTML.html#98,98,1745,982,1920,1080,8-21-2022,9-38-24,78,depth_duration_stimuli/002103_2014-06-25_20-00-40_260595134347_rgbf000049-resize_0/002103_2014-06-25_20-00-40_260595134347_rgbf000049-resize_0-target.png,125,4.105,9,4026,128,feet,jsons/VE125_randls_31.json,708198,959562,50,Woman
78,926551,DepthScenes,duration_manipulation_targetAtFixation,jsons/VE125_randls_31.json,http://54.235.29.9/FacialAge/BNav_EC2/DepthDuration/v2_depth_duration_MTurk/v2_DepthDuration_HTML.html#98,98,1745,982,1920,1080,8-21-2022,9-38-24,79,depth_duration_stimuli/000414_2014-06-04_19-49-13_260595134347_rgbf000044-resize_0/000414_2014-06-04_19-49-13_260595134347_rgbf000044-resize_0-target.png,125,4.329,12,3026,125,feet,jsons/VE125_randls_31.json,708198,959562,50,Woman
79,926551,DepthScenes,duration_manipulation_targetAtFixation,jsons/VE125_randls_31.json,http://54.235.29.9/FacialAge/BNav_EC2/DepthDuration/v2_depth_duration_MTurk/v2_DepthDuration_HTML.html#98,98,1745,982,1920,1080,8-21-2022,9-38-24,80,depth_duration_stimuli/003129_2014-05-12_10-48-10_094959634447_rgbf000100-resize_0/003129_2014-05-12_10-48-10_094959634447_rgbf000100-resize_0-target.png,125,4.9305,15,2242,126,feet,jsons/VE125_randls_31.json,708198,959562,50,Woman
80,926551,DepthScenes,duration_manipulation_targetAtFixation,jsons/VE125_randls_31.json,http://54.235.29.9/FacialAge/BNav_EC2/DepthDuration/v2_depth_duration_MTurk/v2_DepthDuration_HTML.html#98,98,1745,982,1920,1080,8-21-2022,9-38-24,81,depth_duration_stimuli/001449_2014-06-19_17-01-27_260595134347_rgbf000116-resize_2/001449_2014-06-19_17-01-27_260595134347_rgbf000116-resize_2-target.png,125,3.452,8,4149,121,feet,jsons/VE125_randls_31.json,708198,959562,50,Woman
81,926551,DepthScenes,duration_manipulation_targetAtFixation,jsons/VE125_randls_31.json,http://54.235.29.9/FacialAge/BNav_EC2/DepthDuration/v2_depth_duration_MTurk/v2_DepthDuration_HTML.html#98,98,1745,982,1920,1080,8-21-2022,9-38-24,82,depth_duration_stimuli/001450_2014-06-19_17-02-03_260595134347_rgbf000203-resize_4/001450_2014-06-19_17-02-03_260595134347_rgbf000203-resize_4-target.png,125,4.0106666666667,12,3057,123,feet,jsons/VE125_randls_31.json,708198,959562,50,Woman
82,926551,DepthScenes,duration_manipulation_targetAtFixation,jsons/VE125_randls_31.json,http://54.235.29.9/FacialAge/BNav_EC2/DepthDuration/v2_depth_duration_MTurk/v2_DepthDuration_HTML.html#98,98,1745,982,1920,1080,8-21-2022,9-38-24,83,depth_duration_stimuli/001011_2014-06-08_23-18-54_260595134347_rgbf000044-resize_4/001011_2014-06-08_23-18-54_260595134347_rgbf000044-resize_4-target.png,125,2.4730000000000003,10,2743,123,feet,jsons/VE125_randls_31.json,708198,959562,50,Woman
83,926551,DepthScenes,duration_manipulation_targetAtFixation,jsons/VE125_randls_31.json,http://54.235.29.9/FacialAge/BNav_EC2/DepthDuration/v2_depth_duration_MTurk/v2_DepthDuration_HTML.html#98,98,1745,982,1920,1080,8-21-2022,9-38-24,84,depth_duration_stimuli/002875_2014-06-01_15-19-00_094959634447_rgbf000151-resize_1/002875_2014-06-01_15-19-00_094959634447_rgbf000151-resize_1-target.png,125,1.9675,9,4306,128,feet,jsons/VE125_randls_31.json,708198,959562,50,Woman
84,926551,DepthScenes,duration_manipulation_targetAtFixation,jsons/VE125_randls_31.json,http://54.235.29.9/FacialAge/BNav_EC2/DepthDuration/v2_depth_duration_MTurk/v2_DepthDuration_HTML.html#98,98,1745,982,1920,1080,8-21-2022,9-38-24,85,depth_duration_stimuli/002905_2014-06-03_18-04-43_094959634447_rgbf000151-resize_2/002905_2014-06-03_18-04-43_094959634447_rgbf000151-resize_2-target.png,125,2.0295,6,2953,126,feet,jsons/VE125_randls_31.json,708198,959562,50,Woman
85,926551,DepthScenes,duration_manipulation_targetAtFixation,jsons/VE125_randls_31.json,http://54.235.29.9/FacialAge/BNav_EC2/DepthDuration/v2_depth_duration_MTurk/v2_DepthDuration_HTML.html#98,98,1745,982,1920,1080,8-21-2022,9-38-24,86,depth_duration_stimuli/003423_2014-05-21_10-23-26_094959634447_rgbf002665-resize_2/003423_2014-05-21_10-23-26_094959634447_rgbf002665-resize_2-target.png,125,3.2575,10,2673,125,feet,jsons/VE125_randls_31.json,708198,959562,50,Woman
86,926551,DepthScenes,duration_manipulation_targetAtFixation,jsons/VE125_randls_31.json,http://54.235.29.9/FacialAge/BNav_EC2/DepthDuration/v2_depth_duration_MTurk/v2_DepthDuration_HTML.html#98,98,1745,982,1920,1080,8-21-2022,9-38-24,87,depth_duration_stimuli/000810_2014-06-08_17-20-01_260595134347_rgbf000105-resize_0/000810_2014-06-08_17-20-01_260595134347_rgbf000105-resize_0-target.png,125,1.4865,40,4581,120,feet,jsons/VE125_randls_31.json,708198,959562,50,Woman
87,926551,DepthScenes,duration_manipulation_targetAtFixation,jsons/VE125_randls_31.json,http://54.235.29.9/FacialAge/BNav_EC2/DepthDuration/v2_depth_duration_MTurk/v2_DepthDuration_HTML.html#98,98,1745,982,1920,1080,8-21-2022,9-38-24,88,depth_duration_stimuli/001214_2014-06-17_16-13-55_260595134347_rgbf000111-resize_0/001214_2014-06-17_16-13-55_260595134347_rgbf000111-resize_0-target.png,125,2.6505,0,2864,131,feet,jsons/VE125_randls_31.json,708198,959562,50,Woman
88,926551,DepthScenes,duration_manipulation_targetAtFixation,jsons/VE125_randls_31.json,http://54.235.29.9/FacialAge/BNav_EC2/DepthDuration/v2_depth_duration_MTurk/v2_DepthDuration_HTML.html#98,98,1745,982,1920,1080,8-21-2022,9-38-24,89,depth_duration_stimuli/000447_2014-06-08_16-15-46_260595134347_rgbf000130-resize_1/000447_2014-06-08_16-15-46_260595134347_rgbf000130-resize_1-target.png,125,4.479,20,5287,120,feet,jsons/VE125_randls_31.json,708198,959562,50,Woman
89,926551,DepthScenes,duration_manipulation_targetAtFixation,jsons/VE125_randls_31.json,http://54.235.29.9/FacialAge/BNav_EC2/DepthDuration/v2_depth_duration_MTurk/v2_DepthDuration_HTML.html#98,98,1745,982,1920,1080,8-21-2022,9-38-24,90,depth_duration_stimuli/001447_2014-06-19_17-00-32_260595134347_rgbf000082-resize_5/001447_2014-06-19_17-00-32_260595134347_rgbf000082-resize_5-target.png,125,4.13775,15,2706,126,feet,jsons/VE125_randls_31.json,708198,959562,50,Woman
90,926551,DepthScenes,duration_manipulation_targetAtFixation,jsons/VE125_randls_31.json,http://54.235.29.9/FacialAge/BNav_EC2/DepthDuration/v2_depth_duration_MTurk/v2_DepthDuration_HTML.html#98,98,1745,982,1920,1080,8-21-2022,9-38-24,91,depth_duration_stimuli/000692_2014-06-08_13-09-42_260595134347_rgbf000199-resize_2/000692_2014-06-08_13-09-42_260595134347_rgbf000199-resize_2-target.png,125,3.661,25,3653,122,feet,jsons/VE125_randls_31.json,708198,959562,50,Woman
91,926551,DepthScenes,duration_manipulation_targetAtFixation,jsons/VE125_randls_31.json,http://54.235.29.9/FacialAge/BNav_EC2/DepthDuration/v2_depth_duration_MTurk/v2_DepthDuration_HTML.html#98,98,1745,982,1920,1080,8-21-2022,9-38-24,92,depth_duration_stimuli/001094_2014-06-15_17-36-00_260595134347_rgbf000205-resize_0/001094_2014-06-15_17-36-00_260595134347_rgbf000205-resize_0-target.png,125,4.2175,20,2870,123,feet,jsons/VE125_randls_31.json,708198,959562,50,Woman
92,926551,DepthScenes,duration_manipulation_targetAtFixation,jsons/VE125_randls_31.json,http://54.235.29.9/FacialAge/BNav_EC2/DepthDuration/v2_depth_duration_MTurk/v2_DepthDuration_HTML.html#98,98,1745,982,1920,1080,8-21-2022,9-38-24,93,depth_duration_stimuli/002153_2014-06-25_21-27-18_260595134347_rgbf000038-resize_5/002153_2014-06-25_21-27-18_260595134347_rgbf000038-resize_5-target.png,125,2.505,15,2832,122,feet,jsons/VE125_randls_31.json,708198,959562,50,Woman
93,926551,DepthScenes,duration_manipulation_targetAtFixation,jsons/VE125_randls_31.json,http://54.235.29.9/FacialAge/BNav_EC2/DepthDuration/v2_depth_duration_MTurk/v2_DepthDuration_HTML.html#98,98,1745,982,1920,1080,8-21-2022,9-38-24,94,depth_duration_stimuli/002660_2014-06-13_15-44-18_094959634447_rgbf001878-resize_2/002660_2014-06-13_15-44-18_094959634447_rgbf001878-resize_2-target.png,125,3.576,17,3784,125,feet,jsons/VE125_randls_31.json,708198,959562,50,Woman
94,926551,DepthScenes,duration_manipulation_targetAtFixation,jsons/VE125_randls_31.json,http://54.235.29.9/FacialAge/BNav_EC2/DepthDuration/v2_depth_duration_MTurk/v2_DepthDuration_HTML.html#98,98,1745,982,1920,1080,8-21-2022,9-38-24,95,depth_duration_stimuli/000368_2014-06-09_15-53-01_260595134347_rgbf000155-resize_2/000368_2014-06-09_15-53-01_260595134347_rgbf000155-resize_2-target.png,125,2.4859999999999998,12,3369,127,feet,jsons/VE125_randls_31.json,708198,959562,50,Woman
95,926551,DepthScenes,duration_manipulation_targetAtFixation,jsons/VE125_randls_31.json,http://54.235.29.9/FacialAge/BNav_EC2/DepthDuration/v2_depth_duration_MTurk/v2_DepthDuration_HTML.html#98,98,1745,982,1920,1080,8-21-2022,9-38-24,96,depth_duration_stimuli/002678_2014-06-13_16-15-32_094959634447_rgbf000151-resize_6/002678_2014-06-13_16-15-32_094959634447_rgbf000151-resize_6-target.png,125,2.1830000000000003,17,3287,124,feet,jsons/VE125_randls_31.json,708198,959562,50,Woman
96,926551,DepthScenes,duration_manipulation_targetAtFixation,jsons/VE125_randls_31.json,http://54.235.29.9/FacialAge/BNav_EC2/DepthDuration/v2_depth_duration_MTurk/v2_DepthDuration_HTML.html#98,98,1745,982,1920,1080,8-21-2022,9-38-24,97,depth_duration_stimuli/001810_2014-06-26_20-51-35_260595134347_rgbf000040-resize_3/001810_2014-06-26_20-51-35_260595134347_rgbf000040-resize_3-target.png,125,2.2525,6,3094,123,feet,jsons/VE125_randls_31.json,708198,959562,50,Woman
97,926551,DepthScenes,duration_manipulation_targetAtFixation,jsons/VE125_randls_31.json,http://54.235.29.9/FacialAge/BNav_EC2/DepthDuration/v2_depth_duration_MTurk/v2_DepthDuration_HTML.html#98,98,1745,982,1920,1080,8-21-2022,9-38-24,98,depth_duration_stimuli/003010_2014-06-15_12-54-35_094959634447_rgbf000112-resize_0/003010_2014-06-15_12-54-35_094959634447_rgbf000112-resize_0-target.png,125,3.1185,11,2837,123,feet,jsons/VE125_randls_31.json,708198,959562,50,Woman
98,926551,DepthScenes,duration_manipulation_targetAtFixation,jsons/VE125_randls_31.json,http://54.235.29.9/FacialAge/BNav_EC2/DepthDuration/v2_depth_duration_MTurk/v2_DepthDuration_HTML.html#98,98,1745,982,1920,1080,8-21-2022,9-38-24,99,depth_duration_stimuli/001540_2014-06-20_17-01-05_260595134347_rgbf000086-resize_2/001540_2014-06-20_17-01-05_260595134347_rgbf000086-resize-original.jpg,125,1.459,4,3840,125,feet,jsons/VE125_randls_31.json,708198,959562,50,Woman
99,926551,DepthScenes,duration_manipulation_targetAtFixation,jsons/VE125_randls_31.json,http://54.235.29.9/FacialAge/BNav_EC2/DepthDuration/v2_depth_duration_MTurk/v2_DepthDuration_HTML.html#98,98,1745,982,1920,1080,8-21-2022,9-38-24,100,depth_duration_stimuli/002375_2014-06-28_20-13-44_260595134347_rgbf000032-resize_1/002375_2014-06-28_20-13-44_260595134347_rgbf000032-resize_1-target.png,125,4.0175,9,3358,123,feet,jsons/VE125_randls_31.json,708198,959562,50,Woman
100,926551,DepthScenes,duration_manipulation_targetAtFixation,jsons/VE125_randls_31.json,http://54.235.29.9/FacialAge/BNav_EC2/DepthDuration/v2_depth_duration_MTurk/v2_DepthDuration_HTML.html#98,98,1745,982,1920,1080,8-21-2022,9-38-24,101,depth_duration_stimuli/002657_2014-06-13_15-29-54_094959634447_rgbf000150-resize_1/002657_2014-06-13_15-29-54_094959634447_rgbf000150-resize_1-target.png,125,4.919,12,2849,127,feet,jsons/VE125_randls_31.json,708198,959562,50,Woman
101,926551,DepthScenes,duration_manipulation_targetAtFixation,jsons/VE125_randls_31.json,http://54.235.29.9/FacialAge/BNav_EC2/DepthDuration/v2_depth_duration_MTurk/v2_DepthDuration_HTML.html#98,98,1745,982,1920,1080,8-21-2022,9-38-24,102,depth_duration_stimuli/001158_2014-06-17_15-32-16_260595134347_rgbf000138-resize_2/001158_2014-06-17_15-32-16_260595134347_rgbf000138-resize_2-target.png,125,4.5315,15,3506,124,feet,jsons/VE125_randls_31.json,708198,959562,50,Woman
102,926551,DepthScenes,duration_manipulation_targetAtFixation,jsons/VE125_randls_31.json,http://54.235.29.9/FacialAge/BNav_EC2/DepthDuration/v2_depth_duration_MTurk/v2_DepthDuration_HTML.html#98,98,1745,982,1920,1080,8-21-2022,9-38-24,103,depth_duration_stimuli/000556_2014-06-09_22-42-56_260595134347_rgbf000214-resize_1/000556_2014-06-09_22-42-56_260595134347_rgbf000214-resize_1-target.png,125,4.8415,20,4079,147,feet,jsons/VE125_randls_31.json,708198,959562,50,Woman
103,926551,DepthScenes,duration_manipulation_targetAtFixation,jsons/VE125_randls_31.json,http://54.235.29.9/FacialAge/BNav_EC2/DepthDuration/v2_depth_duration_MTurk/v2_DepthDuration_HTML.html#98,98,1745,982,1920,1080,8-21-2022,9-38-24,104,depth_duration_stimuli/003070_2014-06-15_14-58-27_094959634447_rgbf000150-resize_3/003070_2014-06-15_14-58-27_094959634447_rgbf000150-resize_3-target.png,125,2.9415,12,3006,124,feet,jsons/VE125_randls_31.json,708198,959562,50,Woman
104,926551,DepthScenes,duration_manipulation_targetAtFixation,jsons/VE125_randls_31.json,http://54.235.29.9/FacialAge/BNav_EC2/DepthDuration/v2_depth_duration_MTurk/v2_DepthDuration_HTML.html#98,98,1745,982,1920,1080,8-21-2022,9-38-24,105,depth_duration_stimuli/000943_2014-06-09_19-31-07_260595134347_rgbf000128-resize_1/000943_2014-06-09_19-31-07_260595134347_rgbf000128-resize_1-target.png,125,1.9765,10,2912,127,feet,jsons/VE125_randls_31.json,708198,959562,50,Woman
105,926551,DepthScenes,duration_manipulation_targetAtFixation,jsons/VE125_randls_31.json,http://54.235.29.9/FacialAge/BNav_EC2/DepthDuration/v2_depth_duration_MTurk/v2_DepthDuration_HTML.html#98,98,1745,982,1920,1080,8-21-2022,9-38-24,106,depth_duration_stimuli/001417_2014-06-19_16-25-36_260595134347_rgbf000115-resize_5/001417_2014-06-19_16-25-36_260595134347_rgbf000115-resize_5-target.png,125,4.6255,15,4575,125,feet,jsons/VE125_randls_31.json,708198,959562,50,Woman
106,926551,DepthScenes,duration_manipulation_targetAtFixation,jsons/VE125_randls_31.json,http://54.235.29.9/FacialAge/BNav_EC2/DepthDuration/v2_depth_duration_MTurk/v2_DepthDuration_HTML.html#98,98,1745,982,1920,1080,8-21-2022,9-38-24,107,depth_duration_stimuli/003081_2014-06-15_15-19-16_094959634447_rgbf000150-resize_1/003081_2014-06-15_15-19-16_094959634447_rgbf000150-resize_1-target.png,125,3.9125,17,3184,124,feet,jsons/VE125_randls_31.json,708198,959562,50,Woman
107,926551,DepthScenes,duration_manipulation_targetAtFixation,jsons/VE125_randls_31.json,http://54.235.29.9/FacialAge/BNav_EC2/DepthDuration/v2_depth_duration_MTurk/v2_DepthDuration_HTML.html#98,98,1745,982,1920,1080,8-21-2022,9-38-24,108,depth_duration_stimuli/001244_2014-06-17_16-47-45_260595134347_rgbf000030-resize_4/001244_2014-06-17_16-47-45_260595134347_rgbf000030-resize_4-target.png,125,2.0425,10,2954,126,feet,jsons/VE125_randls_31.json,708198,959562,50,Woman
108,926551,DepthScenes,duration_manipulation_targetAtFixation,jsons/VE125_randls_31.json,http://54.235.29.9/FacialAge/BNav_EC2/DepthDuration/v2_depth_duration_MTurk/v2_DepthDuration_HTML.html#98,98,1745,982,1920,1080,8-21-2022,9-38-24,109,depth_duration_stimuli/003495_2014-05-21_16-01-51_094959634447_rgbf000100-resize_3/003495_2014-05-21_16-01-51_094959634447_rgbf000100-resize_3-target.png,125,1.6255,8,2263,121,feet,jsons/VE125_randls_31.json,708198,959562,50,Woman
109,926551,DepthScenes,duration_manipulation_targetAtFixation,jsons/VE125_randls_31.json,http://54.235.29.9/FacialAge/BNav_EC2/DepthDuration/v2_depth_duration_MTurk/v2_DepthDuration_HTML.html#98,98,1745,982,1920,1080,8-21-2022,9-38-24,110,depth_duration_stimuli/001055_2014-06-08_18-45-35_260595134347_rgbf000111-resize_4/001055_2014-06-08_18-45-35_260595134347_rgbf000111-resize_4-target.png,125,2.4290000000000003,25,2879,123,feet,jsons/VE125_randls_31.json,708198,959562,50,Woman
110,926551,DepthScenes,duration_manipulation_targetAtFixation,jsons/VE125_randls_31.json,http://54.235.29.9/FacialAge/BNav_EC2/DepthDuration/v2_depth_duration_MTurk/v2_DepthDuration_HTML.html#98,98,1745,982,1920,1080,8-21-2022,9-38-24,111,depth_duration_stimuli/000549_2014-06-08_22-10-24_260595134347_rgbf000247-resize_3/000549_2014-06-08_22-10-24_260595134347_rgbf000247-resize_3-target.png,125,1.841,6,2452,127,feet,jsons/VE125_randls_31.json,708198,959562,50,Woman
111,926551,DepthScenes,duration_manipulation_targetAtFixation,jsons/VE125_randls_31.json,http://54.235.29.9/FacialAge/BNav_EC2/DepthDuration/v2_depth_duration_MTurk/v2_DepthDuration_HTML.html#98,98,1745,982,1920,1080,8-21-2022,9-38-24,112,depth_duration_stimuli/002272_2014-06-28_18-53-56_260595134347_rgbf000067-resize_2/002272_2014-06-28_18-53-56_260595134347_rgbf000067-resize_2-target.png,125,1.138,0,3326,120,feet,jsons/VE125_randls_31.json,708198,959562,50,Woman
112,926551,DepthScenes,duration_manipulation_targetAtFixation,jsons/VE125_randls_31.json,http://54.235.29.9/FacialAge/BNav_EC2/DepthDuration/v2_depth_duration_MTurk/v2_DepthDuration_HTML.html#98,98,1745,982,1920,1080,8-21-2022,9-38-24,113,depth_duration_stimuli/001571_2014-06-20_17-21-32_260595134347_rgbf000089-resize_1/001571_2014-06-20_17-21-32_260595134347_rgbf000089-resize_1-target.png,125,1.86,6,2540,123,feet,jsons/VE125_randls_31.json,708198,959562,50,Woman
113,926551,DepthScenes,duration_manipulation_targetAtFixation,jsons/VE125_randls_31.json,http://54.235.29.9/FacialAge/BNav_EC2/DepthDuration/v2_depth_duration_MTurk/v2_DepthDuration_HTML.html#98,98,1745,982,1920,1080,8-21-2022,9-38-24,114,depth_duration_stimuli/000522_2014-06-08_13-35-06_260595134347_rgbf000244-resize_1/000522_2014-06-08_13-35-06_260595134347_rgbf000244-resize_1-target.png,125,2.3715,7,2807,121,feet,jsons/VE125_randls_31.json,708198,959562,50,Woman
114,926551,DepthScenes,duration_manipulation_targetAtFixation,jsons/VE125_randls_31.json,http://54.235.29.9/FacialAge/BNav_EC2/DepthDuration/v2_depth_duration_MTurk/v2_DepthDuration_HTML.html#98,98,1745,982,1920,1080,8-21-2022,9-38-24,115,depth_duration_stimuli/002949_2014-06-26_15-57-42_094959634447_rgbf000079-resize_1/002949_2014-06-26_15-57-42_094959634447_rgbf000079-resize_1-target.png,125,1.8915,5,2202,129,feet,jsons/VE125_randls_31.json,708198,959562,50,Woman
115,926551,DepthScenes,duration_manipulation_targetAtFixation,jsons/VE125_randls_31.json,http://54.235.29.9/FacialAge/BNav_EC2/DepthDuration/v2_depth_duration_MTurk/v2_DepthDuration_HTML.html#98,98,1745,982,1920,1080,8-21-2022,9-38-24,116,depth_duration_stimuli/001170_2014-06-17_15-43-44_260595134347_rgbf000096-resize_6/001170_2014-06-17_15-43-44_260595134347_rgbf000096-resize-original.jpg,125,1.1909999999999998,0,2752,122,feet,jsons/VE125_randls_31.json,708198,959562,50,Woman
116,926551,DepthScenes,duration_manipulation_targetAtFixation,jsons/VE125_randls_31.json,http://54.235.29.9/FacialAge/BNav_EC2/DepthDuration/v2_depth_duration_MTurk/v2_DepthDuration_HTML.html#98,98,1745,982,1920,1080,8-21-2022,9-38-24,117,depth_duration_stimuli/000506_2014-06-08_23-21-00_260595134347_rgbf000070-resize_7/000506_2014-06-08_23-21-00_260595134347_rgbf000070-resize_7-target.png,125,4.0585,15,3498,129,feet,jsons/VE125_randls_31.json,708198,959562,50,Woman
117,926551,DepthScenes,duration_manipulation_targetAtFixation,jsons/VE125_randls_31.json,http://54.235.29.9/FacialAge/BNav_EC2/DepthDuration/v2_depth_duration_MTurk/v2_DepthDuration_HTML.html#98,98,1745,982,1920,1080,8-21-2022,9-38-24,118,depth_duration_stimuli/003079_2014-06-15_15-18-20_094959634447_rgbf000152-resize_8/003079_2014-06-15_15-18-20_094959634447_rgbf000152-resize_8-target.png,125,2.8775,12,3234,126,feet,jsons/VE125_randls_31.json,708198,959562,50,Woman
118,926551,DepthScenes,duration_manipulation_targetAtFixation,jsons/VE125_randls_31.json,http://54.235.29.9/FacialAge/BNav_EC2/DepthDuration/v2_depth_duration_MTurk/v2_DepthDuration_HTML.html#98,98,1745,982,1920,1080,8-21-2022,9-38-24,119,depth_duration_stimuli/003492_2014-05-21_15-50-55_094959634447_rgbf000828-resize_1/003492_2014-05-21_15-50-55_094959634447_rgbf000828-resize_1-target.png,125,4.06875,16,3041,124,feet,jsons/VE125_randls_31.json,708198,959562,50,Woman
119,926551,DepthScenes,duration_manipulation_targetAtFixation,jsons/VE125_randls_31.json,http://54.235.29.9/FacialAge/BNav_EC2/DepthDuration/v2_depth_duration_MTurk/v2_DepthDuration_HTML.html#98,98,1745,982,1920,1080,8-21-2022,9-38-24,120,depth_duration_stimuli/002568_2014-06-24_13-59-21_094959634447_rgbf000062-resize_4/002568_2014-06-24_13-59-21_094959634447_rgbf000062-resize_4-target.png,125,3.015,12,3063,123,feet,jsons/VE125_randls_31.json,708198,959562,50,Woman
120,926551,DepthScenes,duration_manipulation_targetAtFixation,jsons/VE125_randls_31.json,http://54.235.29.9/FacialAge/BNav_EC2/DepthDuration/v2_depth_duration_MTurk/v2_DepthDuration_HTML.html#98,98,1745,982,1920,1080,8-21-2022,9-38-24,121,depth_duration_stimuli/000773_2014-06-08_22-24-54_260595134347_rgbf000093-resize_1/000773_2014-06-08_22-24-54_260595134347_rgbf000093-resize_1-target.png,125,4.973,15,2498,124,feet,jsons/VE125_randls_31.json,708198,959562,50,Woman
121,926551,DepthScenes,duration_manipulation_targetAtFixation,jsons/VE125_randls_31.json,http://54.235.29.9/FacialAge/BNav_EC2/DepthDuration/v2_depth_duration_MTurk/v2_DepthDuration_HTML.html#98,98,1745,982,1920,1080,8-21-2022,9-38-24,122,depth_duration_stimuli/002414_2014-06-28_20-24-58_260595134347_rgbf000067-resize_4/002414_2014-06-28_20-24-58_260595134347_rgbf000067-resize_4-target.png,125,4.363,12,2729,127,feet,jsons/VE125_randls_31.json,708198,959562,50,Woman
122,926551,DepthScenes,duration_manipulation_targetAtFixation,jsons/VE125_randls_31.json,http://54.235.29.9/FacialAge/BNav_EC2/DepthDuration/v2_depth_duration_MTurk/v2_DepthDuration_HTML.html#98,98,1745,982,1920,1080,8-21-2022,9-38-24,123,depth_duration_stimuli/000436_2014-06-09_22-25-11_260595134347_rgbf000137-resize_1/000436_2014-06-09_22-25-11_260595134347_rgbf000137-resize_1-target.png,125,4.0705,14,3027,124,feet,jsons/VE125_randls_31.json,708198,959562,50,Woman
123,926551,DepthScenes,duration_manipulation_targetAtFixation,jsons/VE125_randls_31.json,http://54.235.29.9/FacialAge/BNav_EC2/DepthDuration/v2_depth_duration_MTurk/v2_DepthDuration_HTML.html#98,98,1745,982,1920,1080,8-21-2022,9-38-24,124,depth_duration_stimuli/002444_2014-06-28_20-32-08_260595134347_rgbf000027-resize_0/002444_2014-06-28_20-32-08_260595134347_rgbf000027-resize_0-target.png,125,4.388999999999999,17,2246,125,feet,jsons/VE125_randls_31.json,708198,959562,50,Woman
124,926551,DepthScenes,duration_manipulation_targetAtFixation,jsons/VE125_randls_31.json,http://54.235.29.9/FacialAge/BNav_EC2/DepthDuration/v2_depth_duration_MTurk/v2_DepthDuration_HTML.html#98,98,1745,982,1920,1080,8-21-2022,9-38-24,125,depth_duration_stimuli/002784_2014-06-22_19-26-30_094959634447_rgbf000083-resize_3/002784_2014-06-22_19-26-30_094959634447_rgbf000083-resize_3-target.png,125,1.8046666666667,7,2632,125,feet,jsons/VE125_randls_31.json,708198,959562,50,Woman
125,926551,DepthScenes,duration_manipulation_targetAtFixation,jsons/VE125_randls_31.json,http://54.235.29.9/FacialAge/BNav_EC2/DepthDuration/v2_depth_duration_MTurk/v2_DepthDuration_HTML.html#98,98,1745,982,1920,1080,8-21-2022,9-38-24,126,depth_duration_stimuli/001100_2014-06-15_17-46-26_260595134347_rgbf000225-resize_2/001100_2014-06-15_17-46-26_260595134347_rgbf000225-resize_2-target.png,125,2.24,6,2717,123,feet,jsons/VE125_randls_31.json,708198,959562,50,Woman
126,926551,DepthScenes,duration_manipulation_targetAtFixation,jsons/VE125_randls_31.json,http://54.235.29.9/FacialAge/BNav_EC2/DepthDuration/v2_depth_duration_MTurk/v2_DepthDuration_HTML.html#98,98,1745,982,1920,1080,8-21-2022,9-38-24,127,depth_duration_stimuli/001555_2014-06-20_17-12-10_260595134347_rgbf000065-resize_4/001555_2014-06-20_17-12-10_260595134347_rgbf000065-resize_4-target.png,125,1.633,6,2479,121,feet,jsons/VE125_randls_31.json,708198,959562,50,Woman
127,926551,DepthScenes,duration_manipulation_targetAtFixation,jsons/VE125_randls_31.json,http://54.235.29.9/FacialAge/BNav_EC2/DepthDuration/v2_depth_duration_MTurk/v2_DepthDuration_HTML.html#98,98,1745,982,1920,1080,8-21-2022,9-38-24,128,depth_duration_stimuli/000103_2014-05-14_22-01-17_260595134347_rgbf000152-resize_5/000103_2014-05-14_22-01-17_260595134347_rgbf000152-resize_5-target.png,125,1.993,10,2150,124,feet,jsons/VE125_randls_31.json,708198,959562,50,Woman
128,926551,DepthScenes,duration_manipulation_targetAtFixation,jsons/VE125_randls_31.json,http://54.235.29.9/FacialAge/BNav_EC2/DepthDuration/v2_depth_duration_MTurk/v2_DepthDuration_HTML.html#98,98,1745,982,1920,1080,8-21-2022,9-38-24,129,depth_duration_stimuli/001808_2014-06-26_20-50-58_260595134347_rgbf000029-resize_1/001808_2014-06-26_20-50-58_260595134347_rgbf000029-resize_1-target.png,125,4.249,12,2791,120,feet,jsons/VE125_randls_31.json,708198,959562,50,Woman
129,926551,DepthScenes,duration_manipulation_targetAtFixation,jsons/VE125_randls_31.json,http://54.235.29.9/FacialAge/BNav_EC2/DepthDuration/v2_depth_duration_MTurk/v2_DepthDuration_HTML.html#98,98,1745,982,1920,1080,8-21-2022,9-38-24,130,depth_duration_stimuli/001815_2014-06-26_20-52-55_260595134347_rgbf000020-resize_0/001815_2014-06-26_20-52-55_260595134347_rgbf000020-resize_0-target.png,125,3.3865,12,4222,121,feet,jsons/VE125_randls_31.json,708198,959562,50,Woman
130,926551,DepthScenes,duration_manipulation_targetAtFixation,jsons/VE125_randls_31.json,http://54.235.29.9/FacialAge/BNav_EC2/DepthDuration/v2_depth_duration_MTurk/v2_DepthDuration_HTML.html#98,98,1745,982,1920,1080,8-21-2022,9-38-24,131,depth_duration_stimuli/002964_2014-06-08_17-46-11_094959634447_rgbf000091-resize_4/002964_2014-06-08_17-46-11_094959634447_rgbf000091-resize_4-target.png,125,1.6909999999999998,5,2679,121,feet,jsons/VE125_randls_31.json,708198,959562,50,Woman
131,926551,DepthScenes,duration_manipulation_targetAtFixation,jsons/VE125_randls_31.json,http://54.235.29.9/FacialAge/BNav_EC2/DepthDuration/v2_depth_duration_MTurk/v2_DepthDuration_HTML.html#98,98,1745,982,1920,1080,8-21-2022,9-38-24,132,depth_duration_stimuli/002136_2014-06-25_21-18-03_260595134347_rgbf000109-resize_3/002136_2014-06-25_21-18-03_260595134347_rgbf000109-resize_3-target.png,125,1.9569999999999999,6,3214,125,feet,jsons/VE125_randls_31.json,708198,959562,50,Woman
132,926551,DepthScenes,duration_manipulation_targetAtFixation,jsons/VE125_randls_31.json,http://54.235.29.9/FacialAge/BNav_EC2/DepthDuration/v2_depth_duration_MTurk/v2_DepthDuration_HTML.html#98,98,1745,982,1920,1080,8-21-2022,9-38-24,133,depth_duration_stimuli/000788_2014-06-08_22-34-36_260595134347_rgbf000131-resize_1/000788_2014-06-08_22-34-36_260595134347_rgbf000131-resize_1-target.png,125,3.359,7,2887,122,feet,jsons/VE125_randls_31.json,708198,959562,50,Woman
133,926551,DepthScenes,duration_manipulation_targetAtFixation,jsons/VE125_randls_31.json,http://54.235.29.9/FacialAge/BNav_EC2/DepthDuration/v2_depth_duration_MTurk/v2_DepthDuration_HTML.html#98,98,1745,982,1920,1080,8-21-2022,9-38-24,134,depth_duration_stimuli/001235_2014-06-17_16-37-36_260595134347_rgbf000084-resize_4/001235_2014-06-17_16-37-36_260595134347_rgbf000084-resize_4-target.png,125,3.6605,1,1865,125,feet,jsons/VE125_randls_31.json,708198,959562,50,Woman
134,926551,DepthScenes,duration_manipulation_targetAtFixation,jsons/VE125_randls_31.json,http://54.235.29.9/FacialAge/BNav_EC2/DepthDuration/v2_depth_duration_MTurk/v2_DepthDuration_HTML.html#98,98,1745,982,1920,1080,8-21-2022,9-38-24,135,depth_duration_stimuli/002072_2014-06-24_21-48-06_260595134347_rgbf000115-resize_0/002072_2014-06-24_21-48-06_260595134347_rgbf000115-resize-original.jpg,125,4.702,0,2826,125,feet,jsons/VE125_randls_31.json,708198,959562,50,Woman
135,926551,DepthScenes,duration_manipulation_targetAtFixation,jsons/VE125_randls_31.json,http://54.235.29.9/FacialAge/BNav_EC2/DepthDuration/v2_depth_duration_MTurk/v2_DepthDuration_HTML.html#98,98,1745,982,1920,1080,8-21-2022,9-38-24,136,depth_duration_stimuli/003534_2014-05-22_15-06-10_094959634447_rgbf000102-resize_4/003534_2014-05-22_15-06-10_094959634447_rgbf000102-resize_4-target.png,125,1.426,4,4544,126,feet,jsons/VE125_randls_31.json,708198,959562,50,Woman
136,926551,DepthScenes,duration_manipulation_targetAtFixation,jsons/VE125_randls_31.json,http://54.235.29.9/FacialAge/BNav_EC2/DepthDuration/v2_depth_duration_MTurk/v2_DepthDuration_HTML.html#98,98,1745,982,1920,1080,8-21-2022,9-38-24,137,depth_duration_stimuli/002637_2014-06-24_14-51-13_094959634447_rgbf000066-resize_4/002637_2014-06-24_14-51-13_094959634447_rgbf000066-resize_4-target.png,125,1.9955,8,2608,123,feet,jsons/VE125_randls_31.json,708198,959562,50,Woman
137,926551,DepthScenes,duration_manipulation_targetAtFixation,jsons/VE125_randls_31.json,http://54.235.29.9/FacialAge/BNav_EC2/DepthDuration/v2_depth_duration_MTurk/v2_DepthDuration_HTML.html#98,98,1745,982,1920,1080,8-21-2022,9-38-24,138,depth_duration_stimuli/002213_2014-06-28_18-37-58_260595134347_rgbf000055-resize_1/002213_2014-06-28_18-37-58_260595134347_rgbf000055-resize_1-target.png,125,3.62,18,3688,124,feet,jsons/VE125_randls_31.json,708198,959562,50,Woman
138,926551,DepthScenes,duration_manipulation_targetAtFixation,jsons/VE125_randls_31.json,http://54.235.29.9/FacialAge/BNav_EC2/DepthDuration/v2_depth_duration_MTurk/v2_DepthDuration_HTML.html#98,98,1745,982,1920,1080,8-21-2022,9-38-24,139,depth_duration_stimuli/000691_2014-06-08_13-08-50_260595134347_rgbf000132-resize_3/000691_2014-06-08_13-08-50_260595134347_rgbf000132-resize_3-target.png,125,4.1530000000000005,10,2959,125,feet,jsons/VE125_randls_31.json,708198,959562,50,Woman
139,926551,DepthScenes,duration_manipulation_targetAtFixation,jsons/VE125_randls_31.json,http://54.235.29.9/FacialAge/BNav_EC2/DepthDuration/v2_depth_duration_MTurk/v2_DepthDuration_HTML.html#98,98,1745,982,1920,1080,8-21-2022,9-38-24,140,depth_duration_stimuli/000682_2014-06-08_23-14-58_260595134347_rgbf000041-resize_5/000682_2014-06-08_23-14-58_260595134347_rgbf000041-resize_5-target.png,125,2.7239999999999998,7,2797,121,feet,jsons/VE125_randls_31.json,708198,959562,50,Woman
140,926551,DepthScenes,duration_manipulation_targetAtFixation,jsons/VE125_randls_31.json,http://54.235.29.9/FacialAge/BNav_EC2/DepthDuration/v2_depth_duration_MTurk/v2_DepthDuration_HTML.html#98,98,1745,982,1920,1080,8-21-2022,9-38-24,141,depth_duration_stimuli/001650_2014-06-20_12-09-00_260595134347_rgbf000087-resize_3/001650_2014-06-20_12-09-00_260595134347_rgbf000087-resize_3-target.png,125,1.9505,4,2898,128,feet,jsons/VE125_randls_31.json,708198,959562,50,Woman
141,926551,DepthScenes,duration_manipulation_targetAtFixation,jsons/VE125_randls_31.json,http://54.235.29.9/FacialAge/BNav_EC2/DepthDuration/v2_depth_duration_MTurk/v2_DepthDuration_HTML.html#98,98,1745,982,1920,1080,8-21-2022,9-38-24,142,depth_duration_stimuli/001133_2014-06-17_14-49-16_260595134347_rgbf000100-resize_0/001133_2014-06-17_14-49-16_260595134347_rgbf000100-resize_0-target.png,125,4.2115,10,4786,128,feet,jsons/VE125_randls_31.json,708198,959562,50,Woman
142,926551,DepthScenes,duration_manipulation_targetAtFixation,jsons/VE125_randls_31.json,http://54.235.29.9/FacialAge/BNav_EC2/DepthDuration/v2_depth_duration_MTurk/v2_DepthDuration_HTML.html#98,98,1745,982,1920,1080,8-21-2022,9-38-24,143,depth_duration_stimuli/001132_2014-06-17_14-48-54_260595134347_rgbf000100-resize_2/001132_2014-06-17_14-48-54_260595134347_rgbf000100-resize_2-target.png,125,3.753,8,2498,124,feet,jsons/VE125_randls_31.json,708198,959562,50,Woman
143,926551,DepthScenes,duration_manipulation_targetAtFixation,jsons/VE125_randls_31.json,http://54.235.29.9/FacialAge/BNav_EC2/DepthDuration/v2_depth_duration_MTurk/v2_DepthDuration_HTML.html#98,98,1745,982,1920,1080,8-21-2022,9-38-24,144,depth_duration_stimuli/000486_2014-06-09_20-47-20_260595134347_rgbf000143-resize_2/000486_2014-06-09_20-47-20_260595134347_rgbf000143-resize_2-target.png,125,4.8325,15,2602,128,feet,jsons/VE125_randls_31.json,708198,959562,50,Woman
144,926551,DepthScenes,duration_manipulation_targetAtFixation,jsons/VE125_randls_31.json,http://54.235.29.9/FacialAge/BNav_EC2/DepthDuration/v2_depth_duration_MTurk/v2_DepthDuration_HTML.html#98,98,1745,982,1920,1080,8-21-2022,9-38-24,145,depth_duration_stimuli/003083_2014-06-15_15-21-03_094959634447_rgbf000063-resize_1/003083_2014-06-15_15-21-03_094959634447_rgbf000063-resize_1-target.png,125,4.1405,15,3207,129,feet,jsons/VE125_randls_31.json,708198,959562,50,Woman
145,926551,DepthScenes,duration_manipulation_targetAtFixation,jsons/VE125_randls_31.json,http://54.235.29.9/FacialAge/BNav_EC2/DepthDuration/v2_depth_duration_MTurk/v2_DepthDuration_HTML.html#98,98,1745,982,1920,1080,8-21-2022,9-38-24,146,depth_duration_stimuli/001498_2014-06-19_17-45-14_260595134347_rgbf000129-resize_4/001498_2014-06-19_17-45-14_260595134347_rgbf000129-resize-original.jpg,125,1.4075,5,6297,130,feet,jsons/VE125_randls_31.json,708198,959562,50,Woman
146,926551,DepthScenes,duration_manipulation_targetAtFixation,jsons/VE125_randls_31.json,http://54.235.29.9/FacialAge/BNav_EC2/DepthDuration/v2_depth_duration_MTurk/v2_DepthDuration_HTML.html#98,98,1745,982,1920,1080,8-21-2022,9-38-24,147,depth_duration_stimuli/002279_2014-06-28_18-55-32_260595134347_rgbf000040-resize_5/002279_2014-06-28_18-55-32_260595134347_rgbf000040-resize_5-target.png,125,1.5043333333333,6,2673,122,feet,jsons/VE125_randls_31.json,708198,959562,50,Woman
147,926551,DepthScenes,duration_manipulation_targetAtFixation,jsons/VE125_randls_31.json,http://54.235.29.9/FacialAge/BNav_EC2/DepthDuration/v2_depth_duration_MTurk/v2_DepthDuration_HTML.html#98,98,1745,982,1920,1080,8-21-2022,9-38-24,148,depth_duration_stimuli/000635_2014-06-08_16-38-42_260595134347_rgbf000106-resize_1/000635_2014-06-08_16-38-42_260595134347_rgbf000106-resize_1-target.png,125,2.074,4,2350,125,feet,jsons/VE125_randls_31.json,708198,959562,50,Woman
148,926551,DepthScenes,duration_manipulation_targetAtFixation,jsons/VE125_randls_31.json,http://54.235.29.9/FacialAge/BNav_EC2/DepthDuration/v2_depth_duration_MTurk/v2_DepthDuration_HTML.html#98,98,1745,982,1920,1080,8-21-2022,9-38-24,149,depth_duration_stimuli/000739_2014-06-08_18-45-58_260595134347_rgbf000068-resize_1/000739_2014-06-08_18-45-58_260595134347_rgbf000068-resize_1-target.png,125,3.534,5,3024,125,feet,jsons/VE125_randls_31.json,708198,959562,50,Woman
149,926551,DepthScenes,duration_manipulation_targetAtFixation,jsons/VE125_randls_31.json,http://54.235.29.9/FacialAge/BNav_EC2/DepthDuration/v2_depth_duration_MTurk/v2_DepthDuration_HTML.html#98,98,1745,982,1920,1080,8-21-2022,9-38-24,150,depth_duration_stimuli/000734_2014-06-08_17-39-11_260595134347_rgbf000128-resize_2/000734_2014-06-08_17-39-11_260595134347_rgbf000128-resize_2-target.png,125,4.098,7,2240,122,feet,jsons/VE125_randls_31.json,708198,959562,50,Woman
150,926551,DepthScenes,duration_manipulation_targetAtFixation,jsons/VE125_randls_31.json,http://54.235.29.9/FacialAge/BNav_EC2/DepthDuration/v2_depth_duration_MTurk/v2_DepthDuration_HTML.html#98,98,1745,982,1920,1080,8-21-2022,9-38-24,151,depth_duration_stimuli/001150_2014-06-17_15-27-34_260595134347_rgbf000108-resize_2/001150_2014-06-17_15-27-34_260595134347_rgbf000108-resize_2-target.png,125,4.0325,8,3529,123,feet,jsons/VE125_randls_31.json,708198,959562,50,Woman
151,926551,DepthScenes,duration_manipulation_targetAtFixation,jsons/VE125_randls_31.json,http://54.235.29.9/FacialAge/BNav_EC2/DepthDuration/v2_depth_duration_MTurk/v2_DepthDuration_HTML.html#98,98,1745,982,1920,1080,8-21-2022,9-38-24,152,depth_duration_stimuli/000665_2014-06-09_20-42-35_260595134347_rgbf000110-resize_1/000665_2014-06-09_20-42-35_260595134347_rgbf000110-resize_1-target.png,125,3.057,7,2409,128,feet,jsons/VE125_randls_31.json,708198,959562,50,Woman
152,926551,DepthScenes,duration_manipulation_targetAtFixation,jsons/VE125_randls_31.json,http://54.235.29.9/FacialAge/BNav_EC2/DepthDuration/v2_depth_duration_MTurk/v2_DepthDuration_HTML.html#98,98,1745,982,1920,1080,8-21-2022,9-38-24,153,depth_duration_stimuli/002057_2014-06-24_21-00-13_260595134347_rgbf000120-resize_1/002057_2014-06-24_21-00-13_260595134347_rgbf000120-resize_1-target.png,125,2.967,8,2362,125,feet,jsons/VE125_randls_31.json,708198,959562,50,Woman
153,926551,DepthScenes,duration_manipulation_targetAtFixation,jsons/VE125_randls_31.json,http://54.235.29.9/FacialAge/BNav_EC2/DepthDuration/v2_depth_duration_MTurk/v2_DepthDuration_HTML.html#98,98,1745,982,1920,1080,8-21-2022,9-38-24,154,depth_duration_stimuli/000709_2014-06-08_13-51-55_260595134347_rgbf000068-resize_3/000709_2014-06-08_13-51-55_260595134347_rgbf000068-resize_3-target.png,125,1.8030000000000002,6,2263,123,feet,jsons/VE125_randls_31.json,708198,959562,50,Woman
154,926551,DepthScenes,duration_manipulation_targetAtFixation,jsons/VE125_randls_31.json,http://54.235.29.9/FacialAge/BNav_EC2/DepthDuration/v2_depth_duration_MTurk/v2_DepthDuration_HTML.html#98,98,1745,982,1920,1080,8-21-2022,9-38-24,155,depth_duration_stimuli/001199_2014-06-17_16-03-48_260595134347_rgbf000077-resize_0/001199_2014-06-17_16-03-48_260595134347_rgbf000077-resize_0-target.png,125,3.4375,7,1991,123,feet,jsons/VE125_randls_31.json,708198,959562,50,Woman
155,926551,DepthScenes,duration_manipulation_targetAtFixation,jsons/VE125_randls_31.json,http://54.235.29.9/FacialAge/BNav_EC2/DepthDuration/v2_depth_duration_MTurk/v2_DepthDuration_HTML.html#98,98,1745,982,1920,1080,8-21-2022,9-38-24,156,depth_duration_stimuli/000502_2014-06-08_23-02-32_260595134347_rgbf000063-resize_4/000502_2014-06-08_23-02-32_260595134347_rgbf000063-resize_4-target.png,125,2.431,10,2260,119,feet,jsons/VE125_randls_31.json,708198,959562,50,Woman
156,926551,DepthScenes,duration_manipulation_targetAtFixation,jsons/VE125_randls_31.json,http://54.235.29.9/FacialAge/BNav_EC2/DepthDuration/v2_depth_duration_MTurk/v2_DepthDuration_HTML.html#98,98,1745,982,1920,1080,8-21-2022,9-38-24,157,depth_duration_stimuli/001806_2014-06-26_20-50-20_260595134347_rgbf000091-resize_1/001806_2014-06-26_20-50-20_260595134347_rgbf000091-resize_1-target.png,125,2.7305,8,2281,125,feet,jsons/VE125_randls_31.json,708198,959562,50,Woman
157,926551,DepthScenes,duration_manipulation_targetAtFixation,jsons/VE125_randls_31.json,http://54.235.29.9/FacialAge/BNav_EC2/DepthDuration/v2_depth_duration_MTurk/v2_DepthDuration_HTML.html#98,98,1745,982,1920,1080,8-21-2022,9-38-24,158,depth_duration_stimuli/001617_2014-06-20_11-35-32_260595134347_rgbf000066-resize_1/001617_2014-06-20_11-35-32_260595134347_rgbf000066-resize_1-target.png,125,3.7910000000000004,16,3433,126,feet,jsons/VE125_randls_31.json,708198,959562,50,Woman
158,926551,DepthScenes,duration_manipulation_targetAtFixation,jsons/VE125_randls_31.json,http://54.235.29.9/FacialAge/BNav_EC2/DepthDuration/v2_depth_duration_MTurk/v2_DepthDuration_HTML.html#98,98,1745,982,1920,1080,8-21-2022,9-38-24,159,depth_duration_stimuli/001016_2014-06-09_16-16-10_260595134347_rgbf000112-resize_5/001016_2014-06-09_16-16-10_260595134347_rgbf000112-resize_5-target.png,125,1.6565,5,2346,125,feet,jsons/VE125_randls_31.json,708198,959562,50,Woman
159,926551,DepthScenes,duration_manipulation_targetAtFixation,jsons/VE125_randls_31.json,http://54.235.29.9/FacialAge/BNav_EC2/DepthDuration/v2_depth_duration_MTurk/v2_DepthDuration_HTML.html#98,98,1745,982,1920,1080,8-21-2022,9-38-24,160,depth_duration_stimuli/002340_2014-06-28_20-05-46_260595134347_rgbf000113-resize_0/002340_2014-06-28_20-05-46_260595134347_rgbf000113-resize_0-target.png,125,2.4735,5,2894,119,feet,jsons/VE125_randls_31.json,708198,959562,50,Woman
160,926551,DepthScenes,duration_manipulation_targetAtFixation,jsons/VE125_randls_31.json,http://54.235.29.9/FacialAge/BNav_EC2/DepthDuration/v2_depth_duration_MTurk/v2_DepthDuration_HTML.html#98,98,1745,982,1920,1080,8-21-2022,9-38-24,161,depth_duration_stimuli/000009_2014-05-26_14-32-05_260595134347_rgbf000034-resize_3/000009_2014-05-26_14-32-05_260595134347_rgbf000034-resize_3-target.png,125,3.8715,10,2671,123,feet,jsons/VE125_randls_31.json,708198,959562,50,Woman
161,926551,DepthScenes,duration_manipulation_targetAtFixation,jsons/VE125_randls_31.json,http://54.235.29.9/FacialAge/BNav_EC2/DepthDuration/v2_depth_duration_MTurk/v2_DepthDuration_HTML.html#98,98,1745,982,1920,1080,8-21-2022,9-38-24,162,depth_duration_stimuli/001828_2014-06-26_21-40-03_260595134347_rgbf000024-resize_0/001828_2014-06-26_21-40-03_260595134347_rgbf000024-resize_0-target.png,125,4.8260000000000005,11,2752,123,feet,jsons/VE125_randls_31.json,708198,959562,50,Woman
162,926551,DepthScenes,duration_manipulation_targetAtFixation,jsons/VE125_randls_31.json,http://54.235.29.9/FacialAge/BNav_EC2/DepthDuration/v2_depth_duration_MTurk/v2_DepthDuration_HTML.html#98,98,1745,982,1920,1080,8-21-2022,9-38-24,163,depth_duration_stimuli/001164_2014-06-17_15-35-46_260595134347_rgbf000085-resize_3/001164_2014-06-17_15-35-46_260595134347_rgbf000085-resize_3-target.png,125,2.354,4,1999,127,feet,jsons/VE125_randls_31.json,708198,959562,50,Woman
163,926551,DepthScenes,duration_manipulation_targetAtFixation,jsons/VE125_randls_31.json,http://54.235.29.9/FacialAge/BNav_EC2/DepthDuration/v2_depth_duration_MTurk/v2_DepthDuration_HTML.html#98,98,1745,982,1920,1080,8-21-2022,9-38-24,164,depth_duration_stimuli/001136_2014-06-17_15-19-41_260595134347_rgbf000076-resize_3/001136_2014-06-17_15-19-41_260595134347_rgbf000076-resize_3-target.png,125,1.8655,7,2577,128,feet,jsons/VE125_randls_31.json,708198,959562,50,Woman
