,subjID,experimentName,versionName,sequenceName,url,selected_row,windowWidth,windowHeight,screenWidth,screenHeight,startDate,startTime,trial,stimulus,duration,actual_depth,depth_estimate,trial_RT,log_sceneDuration,unitSelection,seq_filepath,experimentTime,totalTime,age,gender
0,928490,DepthScenes,duration_manipulation_targetAtFixation,jsons/VE125_randls_68.json,http://54.235.29.9/FacialAge/BNav_EC2/DepthDuration/v2_depth_duration_MTurk/v2_DepthDuration_HTML.html#51,51,1536,864,1536,864,8-21-2022,9-41-15,1,depth_duration_stimuli/000522_2014-06-08_13-35-06_260595134347_rgbf000244-resize_1/000522_2014-06-08_13-35-06_260595134347_rgbf000244-resize_1-target.png,125,2.3715,2,2522,124,feet,jsons/VE125_randls_68.json,600746,861597,30,Woman
1,928490,DepthScenes,duration_manipulation_targetAtFixation,jsons/VE125_randls_68.json,http://54.235.29.9/FacialAge/BNav_EC2/DepthDuration/v2_depth_duration_MTurk/v2_DepthDuration_HTML.html#51,51,1536,864,1536,864,8-21-2022,9-41-15,2,depth_duration_stimuli/002949_2014-06-26_15-57-42_094959634447_rgbf000079-resize_1/002949_2014-06-26_15-57-42_094959634447_rgbf000079-resize_1-target.png,125,1.8915,2,2555,124,feet,jsons/VE125_randls_68.json,600746,861597,30,Woman
2,928490,DepthScenes,duration_manipulation_targetAtFixation,jsons/VE125_randls_68.json,http://54.235.29.9/FacialAge/BNav_EC2/DepthDuration/v2_depth_duration_MTurk/v2_DepthDuration_HTML.html#51,51,1536,864,1536,864,8-21-2022,9-41-15,3,depth_duration_stimuli/001167_2014-06-17_15-38-07_260595134347_rgbf000108-resize_0/001167_2014-06-17_15-38-07_260595134347_rgbf000108-resize_0-target.png,125,1.8505,2,3425,124,feet,jsons/VE125_randls_68.json,600746,861597,30,Woman
3,928490,DepthScenes,duration_manipulation_targetAtFixation,jsons/VE125_randls_68.json,http://54.235.29.9/FacialAge/BNav_EC2/DepthDuration/v2_depth_duration_MTurk/v2_DepthDuration_HTML.html#51,51,1536,864,1536,864,8-21-2022,9-41-15,4,depth_duration_stimuli/003587_2014-05-23_16-48-02_094959634447_rgbf002384-resize_2/003587_2014-05-23_16-48-02_094959634447_rgbf002384-resize_2-target.png,125,1.357,1,3629,124,feet,jsons/VE125_randls_68.json,600746,861597,30,Woman
4,928490,DepthScenes,duration_manipulation_targetAtFixation,jsons/VE125_randls_68.json,http://54.235.29.9/FacialAge/BNav_EC2/DepthDuration/v2_depth_duration_MTurk/v2_DepthDuration_HTML.html#51,51,1536,864,1536,864,8-21-2022,9-41-15,5,depth_duration_stimuli/003070_2014-06-15_14-58-27_094959634447_rgbf000150-resize_3/003070_2014-06-15_14-58-27_094959634447_rgbf000150-resize_3-target.png,125,2.9415,3,2622,124,feet,jsons/VE125_randls_68.json,600746,861597,30,Woman
5,928490,DepthScenes,duration_manipulation_targetAtFixation,jsons/VE125_randls_68.json,http://54.235.29.9/FacialAge/BNav_EC2/DepthDuration/v2_depth_duration_MTurk/v2_DepthDuration_HTML.html#51,51,1536,864,1536,864,8-21-2022,9-41-15,6,depth_duration_stimuli/000943_2014-06-09_19-31-07_260595134347_rgbf000128-resize_1/000943_2014-06-09_19-31-07_260595134347_rgbf000128-resize_1-target.png,125,1.9765,3,3387,124,feet,jsons/VE125_randls_68.json,600746,861597,30,Woman
6,928490,DepthScenes,duration_manipulation_targetAtFixation,jsons/VE125_randls_68.json,http://54.235.29.9/FacialAge/BNav_EC2/DepthDuration/v2_depth_duration_MTurk/v2_DepthDuration_HTML.html#51,51,1536,864,1536,864,8-21-2022,9-41-15,7,depth_duration_stimuli/001810_2014-06-26_20-51-35_260595134347_rgbf000040-resize_3/001810_2014-06-26_20-51-35_260595134347_rgbf000040-resize_3-target.png,125,2.2525,2,2276,125,feet,jsons/VE125_randls_68.json,600746,861597,30,Woman
7,928490,DepthScenes,duration_manipulation_targetAtFixation,jsons/VE125_randls_68.json,http://54.235.29.9/FacialAge/BNav_EC2/DepthDuration/v2_depth_duration_MTurk/v2_DepthDuration_HTML.html#51,51,1536,864,1536,864,8-21-2022,9-41-15,8,depth_duration_stimuli/003010_2014-06-15_12-54-35_094959634447_rgbf000112-resize_0/003010_2014-06-15_12-54-35_094959634447_rgbf000112-resize_0-target.png,125,3.1185,4,2567,124,feet,jsons/VE125_randls_68.json,600746,861597,30,Woman
8,928490,DepthScenes,duration_manipulation_targetAtFixation,jsons/VE125_randls_68.json,http://54.235.29.9/FacialAge/BNav_EC2/DepthDuration/v2_depth_duration_MTurk/v2_DepthDuration_HTML.html#51,51,1536,864,1536,864,8-21-2022,9-41-15,9,depth_duration_stimuli/000758_2014-06-08_22-05-08_260595134347_rgbf000085-resize_0/000758_2014-06-08_22-05-08_260595134347_rgbf000085-resize_0-target.png,125,3.3810000000000002,5,4131,124,feet,jsons/VE125_randls_68.json,600746,861597,30,Woman
9,928490,DepthScenes,duration_manipulation_targetAtFixation,jsons/VE125_randls_68.json,http://54.235.29.9/FacialAge/BNav_EC2/DepthDuration/v2_depth_duration_MTurk/v2_DepthDuration_HTML.html#51,51,1536,864,1536,864,8-21-2022,9-41-15,10,depth_duration_stimuli/000854_2014-06-09_19-43-13_260595134347_rgbf000066-resize_0/000854_2014-06-09_19-43-13_260595134347_rgbf000066-resize_0-target.png,125,3.068,0,12142,124,feet,jsons/VE125_randls_68.json,600746,861597,30,Woman
10,928490,DepthScenes,duration_manipulation_targetAtFixation,jsons/VE125_randls_68.json,http://54.235.29.9/FacialAge/BNav_EC2/DepthDuration/v2_depth_duration_MTurk/v2_DepthDuration_HTML.html#51,51,1536,864,1536,864,8-21-2022,9-41-15,11,depth_duration_stimuli/001417_2014-06-19_16-25-36_260595134347_rgbf000115-resize_5/001417_2014-06-19_16-25-36_260595134347_rgbf000115-resize_5-target.png,125,4.6255,5,5221,124,feet,jsons/VE125_randls_68.json,600746,861597,30,Woman
11,928490,DepthScenes,duration_manipulation_targetAtFixation,jsons/VE125_randls_68.json,http://54.235.29.9/FacialAge/BNav_EC2/DepthDuration/v2_depth_duration_MTurk/v2_DepthDuration_HTML.html#51,51,1536,864,1536,864,8-21-2022,9-41-15,12,depth_duration_stimuli/003081_2014-06-15_15-19-16_094959634447_rgbf000150-resize_1/003081_2014-06-15_15-19-16_094959634447_rgbf000150-resize_1-target.png,125,3.9125,5,2528,124,feet,jsons/VE125_randls_68.json,600746,861597,30,Woman
12,928490,DepthScenes,duration_manipulation_targetAtFixation,jsons/VE125_randls_68.json,http://54.235.29.9/FacialAge/BNav_EC2/DepthDuration/v2_depth_duration_MTurk/v2_DepthDuration_HTML.html#51,51,1536,864,1536,864,8-21-2022,9-41-15,13,depth_duration_stimuli/000569_2014-06-09_22-51-47_260595134347_rgbf000141-resize_3/000569_2014-06-09_22-51-47_260595134347_rgbf000141-resize-original.jpg,125,4.512,4,2285,124,feet,jsons/VE125_randls_68.json,600746,861597,30,Woman
13,928490,DepthScenes,duration_manipulation_targetAtFixation,jsons/VE125_randls_68.json,http://54.235.29.9/FacialAge/BNav_EC2/DepthDuration/v2_depth_duration_MTurk/v2_DepthDuration_HTML.html#51,51,1536,864,1536,864,8-21-2022,9-41-15,14,depth_duration_stimuli/001164_2014-06-17_15-35-46_260595134347_rgbf000085-resize_3/001164_2014-06-17_15-35-46_260595134347_rgbf000085-resize_3-target.png,125,2.354,5,4097,125,feet,jsons/VE125_randls_68.json,600746,861597,30,Woman
14,928490,DepthScenes,duration_manipulation_targetAtFixation,jsons/VE125_randls_68.json,http://54.235.29.9/FacialAge/BNav_EC2/DepthDuration/v2_depth_duration_MTurk/v2_DepthDuration_HTML.html#51,51,1536,864,1536,864,8-21-2022,9-41-15,15,depth_duration_stimuli/001136_2014-06-17_15-19-41_260595134347_rgbf000076-resize_3/001136_2014-06-17_15-19-41_260595134347_rgbf000076-resize_3-target.png,125,1.8655,4,2614,121,feet,jsons/VE125_randls_68.json,600746,861597,30,Woman
15,928490,DepthScenes,duration_manipulation_targetAtFixation,jsons/VE125_randls_68.json,http://54.235.29.9/FacialAge/BNav_EC2/DepthDuration/v2_depth_duration_MTurk/v2_DepthDuration_HTML.html#51,51,1536,864,1536,864,8-21-2022,9-41-15,16,depth_duration_stimuli/002057_2014-06-24_21-00-13_260595134347_rgbf000120-resize_1/002057_2014-06-24_21-00-13_260595134347_rgbf000120-resize_1-target.png,125,2.967,5,3495,127,feet,jsons/VE125_randls_68.json,600746,861597,30,Woman
16,928490,DepthScenes,duration_manipulation_targetAtFixation,jsons/VE125_randls_68.json,http://54.235.29.9/FacialAge/BNav_EC2/DepthDuration/v2_depth_duration_MTurk/v2_DepthDuration_HTML.html#51,51,1536,864,1536,864,8-21-2022,9-41-15,17,depth_duration_stimuli/000709_2014-06-08_13-51-55_260595134347_rgbf000068-resize_3/000709_2014-06-08_13-51-55_260595134347_rgbf000068-resize_3-target.png,125,1.8030000000000002,4,4877,124,feet,jsons/VE125_randls_68.json,600746,861597,30,Woman
17,928490,DepthScenes,duration_manipulation_targetAtFixation,jsons/VE125_randls_68.json,http://54.235.29.9/FacialAge/BNav_EC2/DepthDuration/v2_depth_duration_MTurk/v2_DepthDuration_HTML.html#51,51,1536,864,1536,864,8-21-2022,9-41-15,18,depth_duration_stimuli/001199_2014-06-17_16-03-48_260595134347_rgbf000077-resize_0/001199_2014-06-17_16-03-48_260595134347_rgbf000077-resize_0-target.png,125,3.4375,4,4549,124,feet,jsons/VE125_randls_68.json,600746,861597,30,Woman
18,928490,DepthScenes,duration_manipulation_targetAtFixation,jsons/VE125_randls_68.json,http://54.235.29.9/FacialAge/BNav_EC2/DepthDuration/v2_depth_duration_MTurk/v2_DepthDuration_HTML.html#51,51,1536,864,1536,864,8-21-2022,9-41-15,19,depth_duration_stimuli/000502_2014-06-08_23-02-32_260595134347_rgbf000063-resize_4/000502_2014-06-08_23-02-32_260595134347_rgbf000063-resize_4-target.png,125,2.431,3,2489,124,feet,jsons/VE125_randls_68.json,600746,861597,30,Woman
19,928490,DepthScenes,duration_manipulation_targetAtFixation,jsons/VE125_randls_68.json,http://54.235.29.9/FacialAge/BNav_EC2/DepthDuration/v2_depth_duration_MTurk/v2_DepthDuration_HTML.html#51,51,1536,864,1536,864,8-21-2022,9-41-15,20,depth_duration_stimuli/000493_2014-06-09_21-01-18_260595134347_rgbf000196-resize_3/000493_2014-06-09_21-01-18_260595134347_rgbf000196-resize_3-target.png,125,3.44,2,2755,124,feet,jsons/VE125_randls_68.json,600746,861597,30,Woman
20,928490,DepthScenes,duration_manipulation_targetAtFixation,jsons/VE125_randls_68.json,http://54.235.29.9/FacialAge/BNav_EC2/DepthDuration/v2_depth_duration_MTurk/v2_DepthDuration_HTML.html#51,51,1536,864,1536,864,8-21-2022,9-41-15,21,depth_duration_stimuli/000191_2014-05-12_17-07-38_260595134347_rgbf000199-resize_0/000191_2014-05-12_17-07-38_260595134347_rgbf000199-resize_0-target.png,125,3.7995,4,3463,124,feet,jsons/VE125_randls_68.json,600746,861597,30,Woman
21,928490,DepthScenes,duration_manipulation_targetAtFixation,jsons/VE125_randls_68.json,http://54.235.29.9/FacialAge/BNav_EC2/DepthDuration/v2_depth_duration_MTurk/v2_DepthDuration_HTML.html#51,51,1536,864,1536,864,8-21-2022,9-41-15,22,depth_duration_stimuli/001808_2014-06-26_20-50-58_260595134347_rgbf000029-resize_1/001808_2014-06-26_20-50-58_260595134347_rgbf000029-resize_1-target.png,125,4.249,3,2365,124,feet,jsons/VE125_randls_68.json,600746,861597,30,Woman
22,928490,DepthScenes,duration_manipulation_targetAtFixation,jsons/VE125_randls_68.json,http://54.235.29.9/FacialAge/BNav_EC2/DepthDuration/v2_depth_duration_MTurk/v2_DepthDuration_HTML.html#51,51,1536,864,1536,864,8-21-2022,9-41-15,23,depth_duration_stimuli/001815_2014-06-26_20-52-55_260595134347_rgbf000020-resize_0/001815_2014-06-26_20-52-55_260595134347_rgbf000020-resize_0-target.png,125,3.3865,6,6728,124,feet,jsons/VE125_randls_68.json,600746,861597,30,Woman
23,928490,DepthScenes,duration_manipulation_targetAtFixation,jsons/VE125_randls_68.json,http://54.235.29.9/FacialAge/BNav_EC2/DepthDuration/v2_depth_duration_MTurk/v2_DepthDuration_HTML.html#51,51,1536,864,1536,864,8-21-2022,9-41-15,24,depth_duration_stimuli/000906_2014-06-08_13-35-43_260595134347_rgbf000155-resize_1/000906_2014-06-08_13-35-43_260595134347_rgbf000155-resize_1-target.png,125,2.8489999999999998,5,4323,125,feet,jsons/VE125_randls_68.json,600746,861597,30,Woman
24,928490,DepthScenes,duration_manipulation_targetAtFixation,jsons/VE125_randls_68.json,http://54.235.29.9/FacialAge/BNav_EC2/DepthDuration/v2_depth_duration_MTurk/v2_DepthDuration_HTML.html#51,51,1536,864,1536,864,8-21-2022,9-41-15,25,depth_duration_stimuli/002805_2014-06-22_19-54-03_094959634447_rgbf000079-resize_1/002805_2014-06-22_19-54-03_094959634447_rgbf000079-resize_1-target.png,125,3.1439999999999997,4,3621,125,feet,jsons/VE125_randls_68.json,600746,861597,30,Woman
25,928490,DepthScenes,duration_manipulation_targetAtFixation,jsons/VE125_randls_68.json,http://54.235.29.9/FacialAge/BNav_EC2/DepthDuration/v2_depth_duration_MTurk/v2_DepthDuration_HTML.html#51,51,1536,864,1536,864,8-21-2022,9-41-15,26,depth_duration_stimuli/002549_2014-06-24_13-41-39_094959634447_rgbf000022-resize_3/002549_2014-06-24_13-41-39_094959634447_rgbf000022-resize_3-target.png,125,1.476,2,3902,125,feet,jsons/VE125_randls_68.json,600746,861597,30,Woman
26,928490,DepthScenes,duration_manipulation_targetAtFixation,jsons/VE125_randls_68.json,http://54.235.29.9/FacialAge/BNav_EC2/DepthDuration/v2_depth_duration_MTurk/v2_DepthDuration_HTML.html#51,51,1536,864,1536,864,8-21-2022,9-41-15,27,depth_duration_stimuli/002750_2014-06-22_19-08-03_094959634447_rgbf000094-resize_4/002750_2014-06-22_19-08-03_094959634447_rgbf000094-resize_4-target.png,125,2.354,3,2051,124,feet,jsons/VE125_randls_68.json,600746,861597,30,Woman
27,928490,DepthScenes,duration_manipulation_targetAtFixation,jsons/VE125_randls_68.json,http://54.235.29.9/FacialAge/BNav_EC2/DepthDuration/v2_depth_duration_MTurk/v2_DepthDuration_HTML.html#51,51,1536,864,1536,864,8-21-2022,9-41-15,28,depth_duration_stimuli/001570_2014-06-20_17-21-09_260595134347_rgbf000135-resize_4/001570_2014-06-20_17-21-09_260595134347_rgbf000135-resize_4-target.png,125,4.467,4,2293,124,feet,jsons/VE125_randls_68.json,600746,861597,30,Woman
28,928490,DepthScenes,duration_manipulation_targetAtFixation,jsons/VE125_randls_68.json,http://54.235.29.9/FacialAge/BNav_EC2/DepthDuration/v2_depth_duration_MTurk/v2_DepthDuration_HTML.html#51,51,1536,864,1536,864,8-21-2022,9-41-15,29,depth_duration_stimuli/001392_2014-06-19_16-07-59_260595134347_rgbf000046-resize_1/001392_2014-06-19_16-07-59_260595134347_rgbf000046-resize_1-target.png,125,4.135,5,4340,123,feet,jsons/VE125_randls_68.json,600746,861597,30,Woman
29,928490,DepthScenes,duration_manipulation_targetAtFixation,jsons/VE125_randls_68.json,http://54.235.29.9/FacialAge/BNav_EC2/DepthDuration/v2_depth_duration_MTurk/v2_DepthDuration_HTML.html#51,51,1536,864,1536,864,8-21-2022,9-41-15,30,depth_duration_stimuli/000375_2014-06-08_11-17-29_260595134347_rgbf000133-resize_2/000375_2014-06-08_11-17-29_260595134347_rgbf000133-resize-original.jpg,125,4.718,4,2698,125,feet,jsons/VE125_randls_68.json,600746,861597,30,Woman
30,928490,DepthScenes,duration_manipulation_targetAtFixation,jsons/VE125_randls_68.json,http://54.235.29.9/FacialAge/BNav_EC2/DepthDuration/v2_depth_duration_MTurk/v2_DepthDuration_HTML.html#51,51,1536,864,1536,864,8-21-2022,9-41-15,31,depth_duration_stimuli/001449_2014-06-19_17-01-27_260595134347_rgbf000116-resize_2/001449_2014-06-19_17-01-27_260595134347_rgbf000116-resize_2-target.png,125,3.452,5,2471,124,feet,jsons/VE125_randls_68.json,600746,861597,30,Woman
31,928490,DepthScenes,duration_manipulation_targetAtFixation,jsons/VE125_randls_68.json,http://54.235.29.9/FacialAge/BNav_EC2/DepthDuration/v2_depth_duration_MTurk/v2_DepthDuration_HTML.html#51,51,1536,864,1536,864,8-21-2022,9-41-15,32,depth_duration_stimuli/001450_2014-06-19_17-02-03_260595134347_rgbf000203-resize_4/001450_2014-06-19_17-02-03_260595134347_rgbf000203-resize_4-target.png,125,4.0106666666667,4,2295,124,feet,jsons/VE125_randls_68.json,600746,861597,30,Woman
32,928490,DepthScenes,duration_manipulation_targetAtFixation,jsons/VE125_randls_68.json,http://54.235.29.9/FacialAge/BNav_EC2/DepthDuration/v2_depth_duration_MTurk/v2_DepthDuration_HTML.html#51,51,1536,864,1536,864,8-21-2022,9-41-15,33,depth_duration_stimuli/002905_2014-06-03_18-04-43_094959634447_rgbf000151-resize_2/002905_2014-06-03_18-04-43_094959634447_rgbf000151-resize_2-target.png,125,2.0295,3,2287,124,feet,jsons/VE125_randls_68.json,600746,861597,30,Woman
33,928490,DepthScenes,duration_manipulation_targetAtFixation,jsons/VE125_randls_68.json,http://54.235.29.9/FacialAge/BNav_EC2/DepthDuration/v2_depth_duration_MTurk/v2_DepthDuration_HTML.html#51,51,1536,864,1536,864,8-21-2022,9-41-15,34,depth_duration_stimuli/003423_2014-05-21_10-23-26_094959634447_rgbf002665-resize_2/003423_2014-05-21_10-23-26_094959634447_rgbf002665-resize_2-target.png,125,3.2575,3,2737,124,feet,jsons/VE125_randls_68.json,600746,861597,30,Woman
34,928490,DepthScenes,duration_manipulation_targetAtFixation,jsons/VE125_randls_68.json,http://54.235.29.9/FacialAge/BNav_EC2/DepthDuration/v2_depth_duration_MTurk/v2_DepthDuration_HTML.html#51,51,1536,864,1536,864,8-21-2022,9-41-15,35,depth_duration_stimuli/002445_2014-06-28_20-32-16_260595134347_rgbf000029-resize_4/002445_2014-06-28_20-32-16_260595134347_rgbf000029-resize_4-target.png,125,2.5315,3,4677,124,feet,jsons/VE125_randls_68.json,600746,861597,30,Woman
35,928490,DepthScenes,duration_manipulation_targetAtFixation,jsons/VE125_randls_68.json,http://54.235.29.9/FacialAge/BNav_EC2/DepthDuration/v2_depth_duration_MTurk/v2_DepthDuration_HTML.html#51,51,1536,864,1536,864,8-21-2022,9-41-15,36,depth_duration_stimuli/000780_2014-06-08_22-28-29_260595134347_rgbf000126-resize_1/000780_2014-06-08_22-28-29_260595134347_rgbf000126-resize_1-target.png,125,3.3825,4,2496,124,feet,jsons/VE125_randls_68.json,600746,861597,30,Woman
36,928490,DepthScenes,duration_manipulation_targetAtFixation,jsons/VE125_randls_68.json,http://54.235.29.9/FacialAge/BNav_EC2/DepthDuration/v2_depth_duration_MTurk/v2_DepthDuration_HTML.html#51,51,1536,864,1536,864,8-21-2022,9-41-15,37,depth_duration_stimuli/000009_2014-05-26_14-32-05_260595134347_rgbf000034-resize_3/000009_2014-05-26_14-32-05_260595134347_rgbf000034-resize_3-target.png,125,3.8715,5,2769,125,feet,jsons/VE125_randls_68.json,600746,861597,30,Woman
37,928490,DepthScenes,duration_manipulation_targetAtFixation,jsons/VE125_randls_68.json,http://54.235.29.9/FacialAge/BNav_EC2/DepthDuration/v2_depth_duration_MTurk/v2_DepthDuration_HTML.html#51,51,1536,864,1536,864,8-21-2022,9-41-15,38,depth_duration_stimuli/001828_2014-06-26_21-40-03_260595134347_rgbf000024-resize_0/001828_2014-06-26_21-40-03_260595134347_rgbf000024-resize_0-target.png,125,4.8260000000000005,4,2034,125,feet,jsons/VE125_randls_68.json,600746,861597,30,Woman
38,928490,DepthScenes,duration_manipulation_targetAtFixation,jsons/VE125_randls_68.json,http://54.235.29.9/FacialAge/BNav_EC2/DepthDuration/v2_depth_duration_MTurk/v2_DepthDuration_HTML.html#51,51,1536,864,1536,864,8-21-2022,9-41-15,39,depth_duration_stimuli/000642_2014-06-08_16-59-25_260595134347_rgbf000098-resize_2/000642_2014-06-08_16-59-25_260595134347_rgbf000098-resize_2-target.png,125,2.8815,3,2395,124,feet,jsons/VE125_randls_68.json,600746,861597,30,Woman
39,928490,DepthScenes,duration_manipulation_targetAtFixation,jsons/VE125_randls_68.json,http://54.235.29.9/FacialAge/BNav_EC2/DepthDuration/v2_depth_duration_MTurk/v2_DepthDuration_HTML.html#51,51,1536,864,1536,864,8-21-2022,9-41-15,40,depth_duration_stimuli/002425_2014-06-28_20-27-29_260595134347_rgbf000031-resize_8/002425_2014-06-28_20-27-29_260595134347_rgbf000031-resize_8-target.png,125,3.8960000000000004,3,3941,124,feet,jsons/VE125_randls_68.json,600746,861597,30,Woman
40,928490,DepthScenes,duration_manipulation_targetAtFixation,jsons/VE125_randls_68.json,http://54.235.29.9/FacialAge/BNav_EC2/DepthDuration/v2_depth_duration_MTurk/v2_DepthDuration_HTML.html#51,51,1536,864,1536,864,8-21-2022,9-41-15,41,depth_duration_stimuli/000788_2014-06-08_22-34-36_260595134347_rgbf000131-resize_1/000788_2014-06-08_22-34-36_260595134347_rgbf000131-resize_1-target.png,125,3.359,3,2675,124,feet,jsons/VE125_randls_68.json,600746,861597,30,Woman
41,928490,DepthScenes,duration_manipulation_targetAtFixation,jsons/VE125_randls_68.json,http://54.235.29.9/FacialAge/BNav_EC2/DepthDuration/v2_depth_duration_MTurk/v2_DepthDuration_HTML.html#51,51,1536,864,1536,864,8-21-2022,9-41-15,42,depth_duration_stimuli/001235_2014-06-17_16-37-36_260595134347_rgbf000084-resize_4/001235_2014-06-17_16-37-36_260595134347_rgbf000084-resize_4-target.png,125,3.6605,4,2470,136,feet,jsons/VE125_randls_68.json,600746,861597,30,Woman
42,928490,DepthScenes,duration_manipulation_targetAtFixation,jsons/VE125_randls_68.json,http://54.235.29.9/FacialAge/BNav_EC2/DepthDuration/v2_depth_duration_MTurk/v2_DepthDuration_HTML.html#51,51,1536,864,1536,864,8-21-2022,9-41-15,43,depth_duration_stimuli/002763_2014-06-22_19-13-10_094959634447_rgbf000075-resize_4/002763_2014-06-22_19-13-10_094959634447_rgbf000075-resize_4-target.png,125,1.68375,4,1884,124,feet,jsons/VE125_randls_68.json,600746,861597,30,Woman
43,928490,DepthScenes,duration_manipulation_targetAtFixation,jsons/VE125_randls_68.json,http://54.235.29.9/FacialAge/BNav_EC2/DepthDuration/v2_depth_duration_MTurk/v2_DepthDuration_HTML.html#51,51,1536,864,1536,864,8-21-2022,9-41-15,44,depth_duration_stimuli/002209_2014-06-28_18-36-10_260595134347_rgbf000051-resize_1/002209_2014-06-28_18-36-10_260595134347_rgbf000051-resize_1-target.png,125,2.057,2,3291,124,feet,jsons/VE125_randls_68.json,600746,861597,30,Woman
44,928490,DepthScenes,duration_manipulation_targetAtFixation,jsons/VE125_randls_68.json,http://54.235.29.9/FacialAge/BNav_EC2/DepthDuration/v2_depth_duration_MTurk/v2_DepthDuration_HTML.html#51,51,1536,864,1536,864,8-21-2022,9-41-15,45,depth_duration_stimuli/000787_2014-06-08_22-33-53_260595134347_rgbf000175-resize_1/000787_2014-06-08_22-33-53_260595134347_rgbf000175-resize-original.jpg,125,4.784,3,7362,124,feet,jsons/VE125_randls_68.json,600746,861597,30,Woman
45,928490,DepthScenes,duration_manipulation_targetAtFixation,jsons/VE125_randls_68.json,http://54.235.29.9/FacialAge/BNav_EC2/DepthDuration/v2_depth_duration_MTurk/v2_DepthDuration_HTML.html#51,51,1536,864,1536,864,8-21-2022,9-41-15,46,depth_duration_stimuli/001059_2014-06-08_21-53-27_260595134347_rgbf000061-resize_4/001059_2014-06-08_21-53-27_260595134347_rgbf000061-resize_4-target.png,125,2.4185,3,2650,124,feet,jsons/VE125_randls_68.json,600746,861597,30,Woman
46,928490,DepthScenes,duration_manipulation_targetAtFixation,jsons/VE125_randls_68.json,http://54.235.29.9/FacialAge/BNav_EC2/DepthDuration/v2_depth_duration_MTurk/v2_DepthDuration_HTML.html#51,51,1536,864,1536,864,8-21-2022,9-41-15,47,depth_duration_stimuli/001032_2014-06-08_13-23-17_260595134347_rgbf000021-resize_3/001032_2014-06-08_13-23-17_260595134347_rgbf000021-resize_3-target.png,125,3.2725,0,3622,124,feet,jsons/VE125_randls_68.json,600746,861597,30,Woman
47,928490,DepthScenes,duration_manipulation_targetAtFixation,jsons/VE125_randls_68.json,http://54.235.29.9/FacialAge/BNav_EC2/DepthDuration/v2_depth_duration_MTurk/v2_DepthDuration_HTML.html#51,51,1536,864,1536,864,8-21-2022,9-41-15,48,depth_duration_stimuli/002788_2014-06-22_19-36-03_094959634447_rgbf000088-resize_2/002788_2014-06-22_19-36-03_094959634447_rgbf000088-resize_2-target.png,125,1.6465,4,3774,123,feet,jsons/VE125_randls_68.json,600746,861597,30,Woman
48,928490,DepthScenes,duration_manipulation_targetAtFixation,jsons/VE125_randls_68.json,http://54.235.29.9/FacialAge/BNav_EC2/DepthDuration/v2_depth_duration_MTurk/v2_DepthDuration_HTML.html#51,51,1536,864,1536,864,8-21-2022,9-41-15,49,depth_duration_stimuli/000749_2014-06-08_21-55-06_260595134347_rgbf000070-resize_2/000749_2014-06-08_21-55-06_260595134347_rgbf000070-resize_2-target.png,125,2.331,3,2632,124,feet,jsons/VE125_randls_68.json,600746,861597,30,Woman
49,928490,DepthScenes,duration_manipulation_targetAtFixation,jsons/VE125_randls_68.json,http://54.235.29.9/FacialAge/BNav_EC2/DepthDuration/v2_depth_duration_MTurk/v2_DepthDuration_HTML.html#51,51,1536,864,1536,864,8-21-2022,9-41-15,50,depth_duration_stimuli/000469_2014-06-09_19-42-10_260595134347_rgbf000081-resize_1/000469_2014-06-09_19-42-10_260595134347_rgbf000081-resize_1-target.png,125,1.652,2,1972,124,feet,jsons/VE125_randls_68.json,600746,861597,30,Woman
50,928490,DepthScenes,duration_manipulation_targetAtFixation,jsons/VE125_randls_68.json,http://54.235.29.9/FacialAge/BNav_EC2/DepthDuration/v2_depth_duration_MTurk/v2_DepthDuration_HTML.html#51,51,1536,864,1536,864,8-21-2022,9-41-15,51,depth_duration_stimuli/000483_2014-06-09_20-41-45_260595134347_rgbf000116-resize_4/000483_2014-06-09_20-41-45_260595134347_rgbf000116-resize_4-target.png,125,1.337,4,5259,125,feet,jsons/VE125_randls_68.json,600746,861597,30,Woman
51,928490,DepthScenes,duration_manipulation_targetAtFixation,jsons/VE125_randls_68.json,http://54.235.29.9/FacialAge/BNav_EC2/DepthDuration/v2_depth_duration_MTurk/v2_DepthDuration_HTML.html#51,51,1536,864,1536,864,8-21-2022,9-41-15,52,depth_duration_stimuli/001055_2014-06-08_18-45-35_260595134347_rgbf000111-resize_4/001055_2014-06-08_18-45-35_260595134347_rgbf000111-resize_4-target.png,125,2.4290000000000003,6,3379,124,feet,jsons/VE125_randls_68.json,600746,861597,30,Woman
52,928490,DepthScenes,duration_manipulation_targetAtFixation,jsons/VE125_randls_68.json,http://54.235.29.9/FacialAge/BNav_EC2/DepthDuration/v2_depth_duration_MTurk/v2_DepthDuration_HTML.html#51,51,1536,864,1536,864,8-21-2022,9-41-15,53,depth_duration_stimuli/000549_2014-06-08_22-10-24_260595134347_rgbf000247-resize_3/000549_2014-06-08_22-10-24_260595134347_rgbf000247-resize_3-target.png,125,1.841,2,2381,124,feet,jsons/VE125_randls_68.json,600746,861597,30,Woman
53,928490,DepthScenes,duration_manipulation_targetAtFixation,jsons/VE125_randls_68.json,http://54.235.29.9/FacialAge/BNav_EC2/DepthDuration/v2_depth_duration_MTurk/v2_DepthDuration_HTML.html#51,51,1536,864,1536,864,8-21-2022,9-41-15,54,depth_duration_stimuli/000810_2014-06-08_17-20-01_260595134347_rgbf000105-resize_0/000810_2014-06-08_17-20-01_260595134347_rgbf000105-resize_0-target.png,125,1.4865,3,2715,124,feet,jsons/VE125_randls_68.json,600746,861597,30,Woman
54,928490,DepthScenes,duration_manipulation_targetAtFixation,jsons/VE125_randls_68.json,http://54.235.29.9/FacialAge/BNav_EC2/DepthDuration/v2_depth_duration_MTurk/v2_DepthDuration_HTML.html#51,51,1536,864,1536,864,8-21-2022,9-41-15,55,depth_duration_stimuli/001214_2014-06-17_16-13-55_260595134347_rgbf000111-resize_0/001214_2014-06-17_16-13-55_260595134347_rgbf000111-resize_0-target.png,125,2.6505,2,2013,124,feet,jsons/VE125_randls_68.json,600746,861597,30,Woman
55,928490,DepthScenes,duration_manipulation_targetAtFixation,jsons/VE125_randls_68.json,http://54.235.29.9/FacialAge/BNav_EC2/DepthDuration/v2_depth_duration_MTurk/v2_DepthDuration_HTML.html#51,51,1536,864,1536,864,8-21-2022,9-41-15,56,depth_duration_stimuli/001092_2014-06-15_17-34-58_260595134347_rgbf000171-resize_3/001092_2014-06-15_17-34-58_260595134347_rgbf000171-resize_3-target.png,125,2.6935,2,3393,124,feet,jsons/VE125_randls_68.json,600746,861597,30,Woman
56,928490,DepthScenes,duration_manipulation_targetAtFixation,jsons/VE125_randls_68.json,http://54.235.29.9/FacialAge/BNav_EC2/DepthDuration/v2_depth_duration_MTurk/v2_DepthDuration_HTML.html#51,51,1536,864,1536,864,8-21-2022,9-41-15,57,depth_duration_stimuli/002545_2014-06-24_13-38-53_094959634447_rgbf000080-resize_4/002545_2014-06-24_13-38-53_094959634447_rgbf000080-resize_4-target.png,125,1.9205,2,2489,123,feet,jsons/VE125_randls_68.json,600746,861597,30,Woman
57,928490,DepthScenes,duration_manipulation_targetAtFixation,jsons/VE125_randls_68.json,http://54.235.29.9/FacialAge/BNav_EC2/DepthDuration/v2_depth_duration_MTurk/v2_DepthDuration_HTML.html#51,51,1536,864,1536,864,8-21-2022,9-41-15,58,depth_duration_stimuli/002989_2014-06-15_12-25-03_094959634447_rgbf000150-resize_3/002989_2014-06-15_12-25-03_094959634447_rgbf000150-resize_3-target.png,125,4.1975,3,2176,125,feet,jsons/VE125_randls_68.json,600746,861597,30,Woman
58,928490,DepthScenes,duration_manipulation_targetAtFixation,jsons/VE125_randls_68.json,http://54.235.29.9/FacialAge/BNav_EC2/DepthDuration/v2_depth_duration_MTurk/v2_DepthDuration_HTML.html#51,51,1536,864,1536,864,8-21-2022,9-41-15,59,depth_duration_stimuli/000866_2014-06-09_20-45-42_260595134347_rgbf000139-resize_1/000866_2014-06-09_20-45-42_260595134347_rgbf000139-resize_1-target.png,125,3.2155,3,3044,125,feet,jsons/VE125_randls_68.json,600746,861597,30,Woman
59,928490,DepthScenes,duration_manipulation_targetAtFixation,jsons/VE125_randls_68.json,http://54.235.29.9/FacialAge/BNav_EC2/DepthDuration/v2_depth_duration_MTurk/v2_DepthDuration_HTML.html#51,51,1536,864,1536,864,8-21-2022,9-41-15,60,depth_duration_stimuli/001244_2014-06-17_16-47-45_260595134347_rgbf000030-resize_4/001244_2014-06-17_16-47-45_260595134347_rgbf000030-resize_4-target.png,125,2.0425,3,2247,125,feet,jsons/VE125_randls_68.json,600746,861597,30,Woman
60,928490,DepthScenes,duration_manipulation_targetAtFixation,jsons/VE125_randls_68.json,http://54.235.29.9/FacialAge/BNav_EC2/DepthDuration/v2_depth_duration_MTurk/v2_DepthDuration_HTML.html#51,51,1536,864,1536,864,8-21-2022,9-41-15,61,depth_duration_stimuli/003495_2014-05-21_16-01-51_094959634447_rgbf000100-resize_3/003495_2014-05-21_16-01-51_094959634447_rgbf000100-resize_3-target.png,125,1.6255,2,2386,123,feet,jsons/VE125_randls_68.json,600746,861597,30,Woman
61,928490,DepthScenes,duration_manipulation_targetAtFixation,jsons/VE125_randls_68.json,http://54.235.29.9/FacialAge/BNav_EC2/DepthDuration/v2_depth_duration_MTurk/v2_DepthDuration_HTML.html#51,51,1536,864,1536,864,8-21-2022,9-41-15,62,depth_duration_stimuli/002043_2014-06-24_20-29-38_260595134347_rgbf000039-resize_4/002043_2014-06-24_20-29-38_260595134347_rgbf000039-resize_4-target.png,125,2.8435,4,2442,124,feet,jsons/VE125_randls_68.json,600746,861597,30,Woman
62,928490,DepthScenes,duration_manipulation_targetAtFixation,jsons/VE125_randls_68.json,http://54.235.29.9/FacialAge/BNav_EC2/DepthDuration/v2_depth_duration_MTurk/v2_DepthDuration_HTML.html#51,51,1536,864,1536,864,8-21-2022,9-41-15,63,depth_duration_stimuli/003048_2014-06-15_13-49-43_094959634447_rgbf000150-resize_1/003048_2014-06-15_13-49-43_094959634447_rgbf000150-resize_1-target.png,125,4.0035,4,2356,125,feet,jsons/VE125_randls_68.json,600746,861597,30,Woman
63,928490,DepthScenes,duration_manipulation_targetAtFixation,jsons/VE125_randls_68.json,http://54.235.29.9/FacialAge/BNav_EC2/DepthDuration/v2_depth_duration_MTurk/v2_DepthDuration_HTML.html#51,51,1536,864,1536,864,8-21-2022,9-41-15,64,depth_duration_stimuli/000773_2014-06-08_22-24-54_260595134347_rgbf000093-resize_1/000773_2014-06-08_22-24-54_260595134347_rgbf000093-resize_1-target.png,125,4.973,5,2433,124,feet,jsons/VE125_randls_68.json,600746,861597,30,Woman
64,928490,DepthScenes,duration_manipulation_targetAtFixation,jsons/VE125_randls_68.json,http://54.235.29.9/FacialAge/BNav_EC2/DepthDuration/v2_depth_duration_MTurk/v2_DepthDuration_HTML.html#51,51,1536,864,1536,864,8-21-2022,9-41-15,65,depth_duration_stimuli/002414_2014-06-28_20-24-58_260595134347_rgbf000067-resize_4/002414_2014-06-28_20-24-58_260595134347_rgbf000067-resize_4-target.png,125,4.363,6,3035,124,feet,jsons/VE125_randls_68.json,600746,861597,30,Woman
65,928490,DepthScenes,duration_manipulation_targetAtFixation,jsons/VE125_randls_68.json,http://54.235.29.9/FacialAge/BNav_EC2/DepthDuration/v2_depth_duration_MTurk/v2_DepthDuration_HTML.html#51,51,1536,864,1536,864,8-21-2022,9-41-15,66,depth_duration_stimuli/001222_2014-06-17_16-24-06_260595134347_rgbf000073-resize_0/001222_2014-06-17_16-24-06_260595134347_rgbf000073-resize-original.jpg,125,1.4385,4,4823,124,feet,jsons/VE125_randls_68.json,600746,861597,30,Woman
66,928490,DepthScenes,duration_manipulation_targetAtFixation,jsons/VE125_randls_68.json,http://54.235.29.9/FacialAge/BNav_EC2/DepthDuration/v2_depth_duration_MTurk/v2_DepthDuration_HTML.html#51,51,1536,864,1536,864,8-21-2022,9-41-15,67,depth_duration_stimuli/001150_2014-06-17_15-27-34_260595134347_rgbf000108-resize_2/001150_2014-06-17_15-27-34_260595134347_rgbf000108-resize_2-target.png,125,4.0325,5,3325,124,feet,jsons/VE125_randls_68.json,600746,861597,30,Woman
67,928490,DepthScenes,duration_manipulation_targetAtFixation,jsons/VE125_randls_68.json,http://54.235.29.9/FacialAge/BNav_EC2/DepthDuration/v2_depth_duration_MTurk/v2_DepthDuration_HTML.html#51,51,1536,864,1536,864,8-21-2022,9-41-15,68,depth_duration_stimuli/000665_2014-06-09_20-42-35_260595134347_rgbf000110-resize_1/000665_2014-06-09_20-42-35_260595134347_rgbf000110-resize_1-target.png,125,3.057,3,2770,124,feet,jsons/VE125_randls_68.json,600746,861597,30,Woman
68,928490,DepthScenes,duration_manipulation_targetAtFixation,jsons/VE125_randls_68.json,http://54.235.29.9/FacialAge/BNav_EC2/DepthDuration/v2_depth_duration_MTurk/v2_DepthDuration_HTML.html#51,51,1536,864,1536,864,8-21-2022,9-41-15,69,depth_duration_stimuli/000692_2014-06-08_13-09-42_260595134347_rgbf000199-resize_2/000692_2014-06-08_13-09-42_260595134347_rgbf000199-resize_2-target.png,125,3.661,5,2911,125,feet,jsons/VE125_randls_68.json,600746,861597,30,Woman
69,928490,DepthScenes,duration_manipulation_targetAtFixation,jsons/VE125_randls_68.json,http://54.235.29.9/FacialAge/BNav_EC2/DepthDuration/v2_depth_duration_MTurk/v2_DepthDuration_HTML.html#51,51,1536,864,1536,864,8-21-2022,9-41-15,70,depth_duration_stimuli/001094_2014-06-15_17-36-00_260595134347_rgbf000205-resize_0/001094_2014-06-15_17-36-00_260595134347_rgbf000205-resize_0-target.png,125,4.2175,4,4100,125,feet,jsons/VE125_randls_68.json,600746,861597,30,Woman
70,928490,DepthScenes,duration_manipulation_targetAtFixation,jsons/VE125_randls_68.json,http://54.235.29.9/FacialAge/BNav_EC2/DepthDuration/v2_depth_duration_MTurk/v2_DepthDuration_HTML.html#51,51,1536,864,1536,864,8-21-2022,9-41-15,71,depth_duration_stimuli/000436_2014-06-09_22-25-11_260595134347_rgbf000137-resize_1/000436_2014-06-09_22-25-11_260595134347_rgbf000137-resize_1-target.png,125,4.0705,5,2961,125,feet,jsons/VE125_randls_68.json,600746,861597,30,Woman
71,928490,DepthScenes,duration_manipulation_targetAtFixation,jsons/VE125_randls_68.json,http://54.235.29.9/FacialAge/BNav_EC2/DepthDuration/v2_depth_duration_MTurk/v2_DepthDuration_HTML.html#51,51,1536,864,1536,864,8-21-2022,9-41-15,72,depth_duration_stimuli/002444_2014-06-28_20-32-08_260595134347_rgbf000027-resize_0/002444_2014-06-28_20-32-08_260595134347_rgbf000027-resize_0-target.png,125,4.388999999999999,4,2769,124,feet,jsons/VE125_randls_68.json,600746,861597,30,Woman
72,928490,DepthScenes,duration_manipulation_targetAtFixation,jsons/VE125_randls_68.json,http://54.235.29.9/FacialAge/BNav_EC2/DepthDuration/v2_depth_duration_MTurk/v2_DepthDuration_HTML.html#51,51,1536,864,1536,864,8-21-2022,9-41-15,73,depth_duration_stimuli/002725_2014-06-22_11-47-51_094959634447_rgbf000070-resize_1/002725_2014-06-22_11-47-51_094959634447_rgbf000070-resize_1-target.png,125,2.195,3,2036,123,feet,jsons/VE125_randls_68.json,600746,861597,30,Woman
73,928490,DepthScenes,duration_manipulation_targetAtFixation,jsons/VE125_randls_68.json,http://54.235.29.9/FacialAge/BNav_EC2/DepthDuration/v2_depth_duration_MTurk/v2_DepthDuration_HTML.html#51,51,1536,864,1536,864,8-21-2022,9-41-15,74,depth_duration_stimuli/002344_2014-06-28_20-06-29_260595134347_rgbf000030-resize_1/002344_2014-06-28_20-06-29_260595134347_rgbf000030-resize_1-target.png,125,1.5795,3,4406,123,feet,jsons/VE125_randls_68.json,600746,861597,30,Woman
74,928490,DepthScenes,duration_manipulation_targetAtFixation,jsons/VE125_randls_68.json,http://54.235.29.9/FacialAge/BNav_EC2/DepthDuration/v2_depth_duration_MTurk/v2_DepthDuration_HTML.html#51,51,1536,864,1536,864,8-21-2022,9-41-15,75,depth_duration_stimuli/000878_2014-06-08_22-52-45_260595134347_rgbf000045-resize_2/000878_2014-06-08_22-52-45_260595134347_rgbf000045-resize_2-target.png,125,2.092,2,2195,124,feet,jsons/VE125_randls_68.json,600746,861597,30,Woman
75,928490,DepthScenes,duration_manipulation_targetAtFixation,jsons/VE125_randls_68.json,http://54.235.29.9/FacialAge/BNav_EC2/DepthDuration/v2_depth_duration_MTurk/v2_DepthDuration_HTML.html#51,51,1536,864,1536,864,8-21-2022,9-41-15,76,depth_duration_stimuli/002953_2014-06-08_17-32-18_094959634447_rgbf000059-resize_5/002953_2014-06-08_17-32-18_094959634447_rgbf000059-resize_5-target.png,125,1.551,2,3025,124,feet,jsons/VE125_randls_68.json,600746,861597,30,Woman
76,928490,DepthScenes,duration_manipulation_targetAtFixation,jsons/VE125_randls_68.json,http://54.235.29.9/FacialAge/BNav_EC2/DepthDuration/v2_depth_duration_MTurk/v2_DepthDuration_HTML.html#51,51,1536,864,1536,864,8-21-2022,9-41-15,77,depth_duration_stimuli/002279_2014-06-28_18-55-32_260595134347_rgbf000040-resize_5/002279_2014-06-28_18-55-32_260595134347_rgbf000040-resize_5-target.png,125,1.5043333333333,1,2196,124,feet,jsons/VE125_randls_68.json,600746,861597,30,Woman
77,928490,DepthScenes,duration_manipulation_targetAtFixation,jsons/VE125_randls_68.json,http://54.235.29.9/FacialAge/BNav_EC2/DepthDuration/v2_depth_duration_MTurk/v2_DepthDuration_HTML.html#51,51,1536,864,1536,864,8-21-2022,9-41-15,78,depth_duration_stimuli/000635_2014-06-08_16-38-42_260595134347_rgbf000106-resize_1/000635_2014-06-08_16-38-42_260595134347_rgbf000106-resize_1-target.png,125,2.074,3,3321,124,feet,jsons/VE125_randls_68.json,600746,861597,30,Woman
78,928490,DepthScenes,duration_manipulation_targetAtFixation,jsons/VE125_randls_68.json,http://54.235.29.9/FacialAge/BNav_EC2/DepthDuration/v2_depth_duration_MTurk/v2_DepthDuration_HTML.html#51,51,1536,864,1536,864,8-21-2022,9-41-15,79,depth_duration_stimuli/002509_2014-06-24_13-19-22_094959634447_rgbf000077-resize_0/002509_2014-06-24_13-19-22_094959634447_rgbf000077-resize_0-target.png,125,1.3065,1,2785,125,feet,jsons/VE125_randls_68.json,600746,861597,30,Woman
79,928490,DepthScenes,duration_manipulation_targetAtFixation,jsons/VE125_randls_68.json,http://54.235.29.9/FacialAge/BNav_EC2/DepthDuration/v2_depth_duration_MTurk/v2_DepthDuration_HTML.html#51,51,1536,864,1536,864,8-21-2022,9-41-15,80,depth_duration_stimuli/003338_2014-05-20_11-01-23_094959634447_rgbf000051-resize_6/003338_2014-05-20_11-01-23_094959634447_rgbf000051-resize_6-target.png,125,1.693,2,5409,124,feet,jsons/VE125_randls_68.json,600746,861597,30,Woman
80,928490,DepthScenes,duration_manipulation_targetAtFixation,jsons/VE125_randls_68.json,http://54.235.29.9/FacialAge/BNav_EC2/DepthDuration/v2_depth_duration_MTurk/v2_DepthDuration_HTML.html#51,51,1536,864,1536,864,8-21-2022,9-41-15,81,depth_duration_stimuli/002153_2014-06-25_21-27-18_260595134347_rgbf000038-resize_5/002153_2014-06-25_21-27-18_260595134347_rgbf000038-resize_5-target.png,125,2.505,3,2286,124,feet,jsons/VE125_randls_68.json,600746,861597,30,Woman
81,928490,DepthScenes,duration_manipulation_targetAtFixation,jsons/VE125_randls_68.json,http://54.235.29.9/FacialAge/BNav_EC2/DepthDuration/v2_depth_duration_MTurk/v2_DepthDuration_HTML.html#51,51,1536,864,1536,864,8-21-2022,9-41-15,82,depth_duration_stimuli/002660_2014-06-13_15-44-18_094959634447_rgbf001878-resize_2/002660_2014-06-13_15-44-18_094959634447_rgbf001878-resize_2-target.png,125,3.576,3,3580,124,feet,jsons/VE125_randls_68.json,600746,861597,30,Woman
82,928490,DepthScenes,duration_manipulation_targetAtFixation,jsons/VE125_randls_68.json,http://54.235.29.9/FacialAge/BNav_EC2/DepthDuration/v2_depth_duration_MTurk/v2_DepthDuration_HTML.html#51,51,1536,864,1536,864,8-21-2022,9-41-15,83,depth_duration_stimuli/002039_2014-06-24_20-22-38_260595134347_rgbf000084-resize_1/002039_2014-06-24_20-22-38_260595134347_rgbf000084-resize_1-target.png,125,4.408,3,2302,125,feet,jsons/VE125_randls_68.json,600746,861597,30,Woman
83,928490,DepthScenes,duration_manipulation_targetAtFixation,jsons/VE125_randls_68.json,http://54.235.29.9/FacialAge/BNav_EC2/DepthDuration/v2_depth_duration_MTurk/v2_DepthDuration_HTML.html#51,51,1536,864,1536,864,8-21-2022,9-41-15,84,depth_duration_stimuli/002103_2014-06-25_20-00-40_260595134347_rgbf000049-resize_0/002103_2014-06-25_20-00-40_260595134347_rgbf000049-resize_0-target.png,125,4.105,3,3159,124,feet,jsons/VE125_randls_68.json,600746,861597,30,Woman
84,928490,DepthScenes,duration_manipulation_targetAtFixation,jsons/VE125_randls_68.json,http://54.235.29.9/FacialAge/BNav_EC2/DepthDuration/v2_depth_duration_MTurk/v2_DepthDuration_HTML.html#51,51,1536,864,1536,864,8-21-2022,9-41-15,85,depth_duration_stimuli/000470_2014-06-09_19-42-40_260595134347_rgbf000094-resize_1/000470_2014-06-09_19-42-40_260595134347_rgbf000094-resize_1-target.png,125,1.831,3,2199,124,feet,jsons/VE125_randls_68.json,600746,861597,30,Woman
85,928490,DepthScenes,duration_manipulation_targetAtFixation,jsons/VE125_randls_68.json,http://54.235.29.9/FacialAge/BNav_EC2/DepthDuration/v2_depth_duration_MTurk/v2_DepthDuration_HTML.html#51,51,1536,864,1536,864,8-21-2022,9-41-15,86,depth_duration_stimuli/000109_2014-05-14_23-41-52_260595134347_rgbf000035-resize_9/000109_2014-05-14_23-41-52_260595134347_rgbf000035-resize_9-target.png,125,1.3545,1,2637,124,feet,jsons/VE125_randls_68.json,600746,861597,30,Woman
86,928490,DepthScenes,duration_manipulation_targetAtFixation,jsons/VE125_randls_68.json,http://54.235.29.9/FacialAge/BNav_EC2/DepthDuration/v2_depth_duration_MTurk/v2_DepthDuration_HTML.html#51,51,1536,864,1536,864,8-21-2022,9-41-15,87,depth_duration_stimuli/002213_2014-06-28_18-37-58_260595134347_rgbf000055-resize_1/002213_2014-06-28_18-37-58_260595134347_rgbf000055-resize_1-target.png,125,3.62,3,3097,124,feet,jsons/VE125_randls_68.json,600746,861597,30,Woman
87,928490,DepthScenes,duration_manipulation_targetAtFixation,jsons/VE125_randls_68.json,http://54.235.29.9/FacialAge/BNav_EC2/DepthDuration/v2_depth_duration_MTurk/v2_DepthDuration_HTML.html#51,51,1536,864,1536,864,8-21-2022,9-41-15,88,depth_duration_stimuli/000691_2014-06-08_13-08-50_260595134347_rgbf000132-resize_3/000691_2014-06-08_13-08-50_260595134347_rgbf000132-resize_3-target.png,125,4.1530000000000005,3,2388,125,feet,jsons/VE125_randls_68.json,600746,861597,30,Woman
88,928490,DepthScenes,duration_manipulation_targetAtFixation,jsons/VE125_randls_68.json,http://54.235.29.9/FacialAge/BNav_EC2/DepthDuration/v2_depth_duration_MTurk/v2_DepthDuration_HTML.html#51,51,1536,864,1536,864,8-21-2022,9-41-15,89,depth_duration_stimuli/000736_2014-06-08_18-24-15_260595134347_rgbf000206-resize_3/000736_2014-06-08_18-24-15_260595134347_rgbf000206-resize_3-target.png,125,3.515,3,1965,125,feet,jsons/VE125_randls_68.json,600746,861597,30,Woman
89,928490,DepthScenes,duration_manipulation_targetAtFixation,jsons/VE125_randls_68.json,http://54.235.29.9/FacialAge/BNav_EC2/DepthDuration/v2_depth_duration_MTurk/v2_DepthDuration_HTML.html#51,51,1536,864,1536,864,8-21-2022,9-41-15,90,depth_duration_stimuli/000137_2014-05-20_17-04-49_260595134347_rgbf000120-resize_1/000137_2014-05-20_17-04-49_260595134347_rgbf000120-resize_1-target.png,125,3.786,4,1943,124,feet,jsons/VE125_randls_68.json,600746,861597,30,Woman
90,928490,DepthScenes,duration_manipulation_targetAtFixation,jsons/VE125_randls_68.json,http://54.235.29.9/FacialAge/BNav_EC2/DepthDuration/v2_depth_duration_MTurk/v2_DepthDuration_HTML.html#51,51,1536,864,1536,864,8-21-2022,9-41-15,91,depth_duration_stimuli/002630_2014-06-24_14-47-50_094959634447_rgbf000055-resize_1/002630_2014-06-24_14-47-50_094959634447_rgbf000055-resize_1-target.png,125,3.0095,6,3579,125,feet,jsons/VE125_randls_68.json,600746,861597,30,Woman
91,928490,DepthScenes,duration_manipulation_targetAtFixation,jsons/VE125_randls_68.json,http://54.235.29.9/FacialAge/BNav_EC2/DepthDuration/v2_depth_duration_MTurk/v2_DepthDuration_HTML.html#51,51,1536,864,1536,864,8-21-2022,9-41-15,92,depth_duration_stimuli/002758_2014-06-22_19-11-20_094959634447_rgbf000128-resize_1/002758_2014-06-22_19-11-20_094959634447_rgbf000128-resize_1-target.png,125,2.555,4,3512,125,feet,jsons/VE125_randls_68.json,600746,861597,30,Woman
92,928490,DepthScenes,duration_manipulation_targetAtFixation,jsons/VE125_randls_68.json,http://54.235.29.9/FacialAge/BNav_EC2/DepthDuration/v2_depth_duration_MTurk/v2_DepthDuration_HTML.html#51,51,1536,864,1536,864,8-21-2022,9-41-15,93,depth_duration_stimuli/000506_2014-06-08_23-21-00_260595134347_rgbf000070-resize_7/000506_2014-06-08_23-21-00_260595134347_rgbf000070-resize_7-target.png,125,4.0585,4,1599,124,feet,jsons/VE125_randls_68.json,600746,861597,30,Woman
93,928490,DepthScenes,duration_manipulation_targetAtFixation,jsons/VE125_randls_68.json,http://54.235.29.9/FacialAge/BNav_EC2/DepthDuration/v2_depth_duration_MTurk/v2_DepthDuration_HTML.html#51,51,1536,864,1536,864,8-21-2022,9-41-15,94,depth_duration_stimuli/003079_2014-06-15_15-18-20_094959634447_rgbf000152-resize_8/003079_2014-06-15_15-18-20_094959634447_rgbf000152-resize_8-target.png,125,2.8775,4,2270,125,feet,jsons/VE125_randls_68.json,600746,861597,30,Woman
94,928490,DepthScenes,duration_manipulation_targetAtFixation,jsons/VE125_randls_68.json,http://54.235.29.9/FacialAge/BNav_EC2/DepthDuration/v2_depth_duration_MTurk/v2_DepthDuration_HTML.html#51,51,1536,864,1536,864,8-21-2022,9-41-15,95,depth_duration_stimuli/002118_2014-06-25_20-32-08_260595134347_rgbf000078-resize_1/002118_2014-06-25_20-32-08_260595134347_rgbf000078-resize_1-target.png,125,2.6460000000000004,3,1748,125,feet,jsons/VE125_randls_68.json,600746,861597,30,Woman
95,928490,DepthScenes,duration_manipulation_targetAtFixation,jsons/VE125_randls_68.json,http://54.235.29.9/FacialAge/BNav_EC2/DepthDuration/v2_depth_duration_MTurk/v2_DepthDuration_HTML.html#51,51,1536,864,1536,864,8-21-2022,9-41-15,96,depth_duration_stimuli/001516_2014-06-20_16-25-09_260595134347_rgbf000076-resize_2/001516_2014-06-20_16-25-09_260595134347_rgbf000076-resize_2-target.png,125,1.7445,2,4111,124,feet,jsons/VE125_randls_68.json,600746,861597,30,Woman
96,928490,DepthScenes,duration_manipulation_targetAtFixation,jsons/VE125_randls_68.json,http://54.235.29.9/FacialAge/BNav_EC2/DepthDuration/v2_depth_duration_MTurk/v2_DepthDuration_HTML.html#51,51,1536,864,1536,864,8-21-2022,9-41-15,97,depth_duration_stimuli/000682_2014-06-08_23-14-58_260595134347_rgbf000041-resize_5/000682_2014-06-08_23-14-58_260595134347_rgbf000041-resize_5-target.png,125,2.7239999999999998,3,1871,123,feet,jsons/VE125_randls_68.json,600746,861597,30,Woman
97,928490,DepthScenes,duration_manipulation_targetAtFixation,jsons/VE125_randls_68.json,http://54.235.29.9/FacialAge/BNav_EC2/DepthDuration/v2_depth_duration_MTurk/v2_DepthDuration_HTML.html#51,51,1536,864,1536,864,8-21-2022,9-41-15,98,depth_duration_stimuli/001650_2014-06-20_12-09-00_260595134347_rgbf000087-resize_3/001650_2014-06-20_12-09-00_260595134347_rgbf000087-resize_3-target.png,125,1.9505,4,2380,124,feet,jsons/VE125_randls_68.json,600746,861597,30,Woman
98,928490,DepthScenes,duration_manipulation_targetAtFixation,jsons/VE125_randls_68.json,http://54.235.29.9/FacialAge/BNav_EC2/DepthDuration/v2_depth_duration_MTurk/v2_DepthDuration_HTML.html#51,51,1536,864,1536,864,8-21-2022,9-41-15,99,depth_duration_stimuli/001540_2014-06-20_17-01-05_260595134347_rgbf000086-resize_2/001540_2014-06-20_17-01-05_260595134347_rgbf000086-resize-original.jpg,125,1.459,3,2776,124,feet,jsons/VE125_randls_68.json,600746,861597,30,Woman
99,928490,DepthScenes,duration_manipulation_targetAtFixation,jsons/VE125_randls_68.json,http://54.235.29.9/FacialAge/BNav_EC2/DepthDuration/v2_depth_duration_MTurk/v2_DepthDuration_HTML.html#51,51,1536,864,1536,864,8-21-2022,9-41-15,100,depth_duration_stimuli/002988_2014-06-15_12-24-20_094959634447_rgbf000150-resize_1/002988_2014-06-15_12-24-20_094959634447_rgbf000150-resize_1-target.png,125,4.7669999999999995,0,6968,124,feet,jsons/VE125_randls_68.json,600746,861597,30,Woman
100,928490,DepthScenes,duration_manipulation_targetAtFixation,jsons/VE125_randls_68.json,http://54.235.29.9/FacialAge/BNav_EC2/DepthDuration/v2_depth_duration_MTurk/v2_DepthDuration_HTML.html#51,51,1536,864,1536,864,8-21-2022,9-41-15,101,depth_duration_stimuli/001052_2014-06-08_18-24-54_260595134347_rgbf000130-resize_1/001052_2014-06-08_18-24-54_260595134347_rgbf000130-resize_1-target.png,125,4.1045,3,6422,124,feet,jsons/VE125_randls_68.json,600746,861597,30,Woman
101,928490,DepthScenes,duration_manipulation_targetAtFixation,jsons/VE125_randls_68.json,http://54.235.29.9/FacialAge/BNav_EC2/DepthDuration/v2_depth_duration_MTurk/v2_DepthDuration_HTML.html#51,51,1536,864,1536,864,8-21-2022,9-41-15,102,depth_duration_stimuli/001056_2014-06-08_18-46-44_260595134347_rgbf000068-resize_0/001056_2014-06-08_18-46-44_260595134347_rgbf000068-resize_0-target.png,125,2.6625,3,2293,124,feet,jsons/VE125_randls_68.json,600746,861597,30,Woman
102,928490,DepthScenes,duration_manipulation_targetAtFixation,jsons/VE125_randls_68.json,http://54.235.29.9/FacialAge/BNav_EC2/DepthDuration/v2_depth_duration_MTurk/v2_DepthDuration_HTML.html#51,51,1536,864,1536,864,8-21-2022,9-41-15,103,depth_duration_stimuli/002199_2014-06-28_18-33-56_260595134347_rgbf000074-resize_0/002199_2014-06-28_18-33-56_260595134347_rgbf000074-resize_0-target.png,125,1.996,1,2644,125,feet,jsons/VE125_randls_68.json,600746,861597,30,Woman
103,928490,DepthScenes,duration_manipulation_targetAtFixation,jsons/VE125_randls_68.json,http://54.235.29.9/FacialAge/BNav_EC2/DepthDuration/v2_depth_duration_MTurk/v2_DepthDuration_HTML.html#51,51,1536,864,1536,864,8-21-2022,9-41-15,104,depth_duration_stimuli/002663_2014-06-13_15-50-26_094959634447_rgbf000075-resize_1/002663_2014-06-13_15-50-26_094959634447_rgbf000075-resize_1-target.png,125,4.7495,3,8880,125,feet,jsons/VE125_randls_68.json,600746,861597,30,Woman
104,928490,DepthScenes,duration_manipulation_targetAtFixation,jsons/VE125_randls_68.json,http://54.235.29.9/FacialAge/BNav_EC2/DepthDuration/v2_depth_duration_MTurk/v2_DepthDuration_HTML.html#51,51,1536,864,1536,864,8-21-2022,9-41-15,105,depth_duration_stimuli/000409_2014-06-04_19-23-33_260595134347_rgbf000067-resize_0/000409_2014-06-04_19-23-33_260595134347_rgbf000067-resize_0-target.png,125,3.7335,4,3160,125,feet,jsons/VE125_randls_68.json,600746,861597,30,Woman
105,928490,DepthScenes,duration_manipulation_targetAtFixation,jsons/VE125_randls_68.json,http://54.235.29.9/FacialAge/BNav_EC2/DepthDuration/v2_depth_duration_MTurk/v2_DepthDuration_HTML.html#51,51,1536,864,1536,864,8-21-2022,9-41-15,106,depth_duration_stimuli/002784_2014-06-22_19-26-30_094959634447_rgbf000083-resize_3/002784_2014-06-22_19-26-30_094959634447_rgbf000083-resize_3-target.png,125,1.8046666666667,2,3783,124,feet,jsons/VE125_randls_68.json,600746,861597,30,Woman
106,928490,DepthScenes,duration_manipulation_targetAtFixation,jsons/VE125_randls_68.json,http://54.235.29.9/FacialAge/BNav_EC2/DepthDuration/v2_depth_duration_MTurk/v2_DepthDuration_HTML.html#51,51,1536,864,1536,864,8-21-2022,9-41-15,107,depth_duration_stimuli/001100_2014-06-15_17-46-26_260595134347_rgbf000225-resize_2/001100_2014-06-15_17-46-26_260595134347_rgbf000225-resize_2-target.png,125,2.24,2,2245,125,feet,jsons/VE125_randls_68.json,600746,861597,30,Woman
107,928490,DepthScenes,duration_manipulation_targetAtFixation,jsons/VE125_randls_68.json,http://54.235.29.9/FacialAge/BNav_EC2/DepthDuration/v2_depth_duration_MTurk/v2_DepthDuration_HTML.html#51,51,1536,864,1536,864,8-21-2022,9-41-15,108,depth_duration_stimuli/003534_2014-05-22_15-06-10_094959634447_rgbf000102-resize_4/003534_2014-05-22_15-06-10_094959634447_rgbf000102-resize_4-target.png,125,1.426,1,1723,124,feet,jsons/VE125_randls_68.json,600746,861597,30,Woman
108,928490,DepthScenes,duration_manipulation_targetAtFixation,jsons/VE125_randls_68.json,http://54.235.29.9/FacialAge/BNav_EC2/DepthDuration/v2_depth_duration_MTurk/v2_DepthDuration_HTML.html#51,51,1536,864,1536,864,8-21-2022,9-41-15,109,depth_duration_stimuli/002637_2014-06-24_14-51-13_094959634447_rgbf000066-resize_4/002637_2014-06-24_14-51-13_094959634447_rgbf000066-resize_4-target.png,125,1.9955,2,1919,124,feet,jsons/VE125_randls_68.json,600746,861597,30,Woman
109,928490,DepthScenes,duration_manipulation_targetAtFixation,jsons/VE125_randls_68.json,http://54.235.29.9/FacialAge/BNav_EC2/DepthDuration/v2_depth_duration_MTurk/v2_DepthDuration_HTML.html#51,51,1536,864,1536,864,8-21-2022,9-41-15,110,depth_duration_stimuli/001029_2014-06-08_13-17-57_260595134347_rgbf000065-resize_1/001029_2014-06-08_13-17-57_260595134347_rgbf000065-resize_1-target.png,125,3.0835,3,2277,124,feet,jsons/VE125_randls_68.json,600746,861597,30,Woman
110,928490,DepthScenes,duration_manipulation_targetAtFixation,jsons/VE125_randls_68.json,http://54.235.29.9/FacialAge/BNav_EC2/DepthDuration/v2_depth_duration_MTurk/v2_DepthDuration_HTML.html#51,51,1536,864,1536,864,8-21-2022,9-41-15,111,depth_duration_stimuli/000677_2014-06-08_23-10-32_260595134347_rgbf000158-resize_6/000677_2014-06-08_23-10-32_260595134347_rgbf000158-resize_6-target.png,125,3.556,4,3005,124,feet,jsons/VE125_randls_68.json,600746,861597,30,Woman
111,928490,DepthScenes,duration_manipulation_targetAtFixation,jsons/VE125_randls_68.json,http://54.235.29.9/FacialAge/BNav_EC2/DepthDuration/v2_depth_duration_MTurk/v2_DepthDuration_HTML.html#51,51,1536,864,1536,864,8-21-2022,9-41-15,112,depth_duration_stimuli/000917_2014-06-09_22-45-29_260595134347_rgbf000149-resize_3/000917_2014-06-09_22-45-29_260595134347_rgbf000149-resize_3-target.png,125,4.1865,3,2208,124,feet,jsons/VE125_randls_68.json,600746,861597,30,Woman
112,928490,DepthScenes,duration_manipulation_targetAtFixation,jsons/VE125_randls_68.json,http://54.235.29.9/FacialAge/BNav_EC2/DepthDuration/v2_depth_duration_MTurk/v2_DepthDuration_HTML.html#51,51,1536,864,1536,864,8-21-2022,9-41-15,113,depth_duration_stimuli/002323_2014-06-28_20-01-54_260595134347_rgbf000051-resize_4/002323_2014-06-28_20-01-54_260595134347_rgbf000051-resize_4-target.png,125,3.7310000000000003,4,2139,123,feet,jsons/VE125_randls_68.json,600746,861597,30,Woman
113,928490,DepthScenes,duration_manipulation_targetAtFixation,jsons/VE125_randls_68.json,http://54.235.29.9/FacialAge/BNav_EC2/DepthDuration/v2_depth_duration_MTurk/v2_DepthDuration_HTML.html#51,51,1536,864,1536,864,8-21-2022,9-41-15,114,depth_duration_stimuli/003621_2014-05-23_18-06-08_094959634447_rgbf000101-resize_1/003621_2014-05-23_18-06-08_094959634447_rgbf000101-resize_1-target.png,125,3.9835,3,2338,124,feet,jsons/VE125_randls_68.json,600746,861597,30,Woman
114,928490,DepthScenes,duration_manipulation_targetAtFixation,jsons/VE125_randls_68.json,http://54.235.29.9/FacialAge/BNav_EC2/DepthDuration/v2_depth_duration_MTurk/v2_DepthDuration_HTML.html#51,51,1536,864,1536,864,8-21-2022,9-41-15,115,depth_duration_stimuli/001584_2014-06-20_11-07-43_260595134347_rgbf000002-resize_1/001584_2014-06-20_11-07-43_260595134347_rgbf000002-resize_1-target.png,125,3.53,3,2773,124,feet,jsons/VE125_randls_68.json,600746,861597,30,Woman
115,928490,DepthScenes,duration_manipulation_targetAtFixation,jsons/VE125_randls_68.json,http://54.235.29.9/FacialAge/BNav_EC2/DepthDuration/v2_depth_duration_MTurk/v2_DepthDuration_HTML.html#51,51,1536,864,1536,864,8-21-2022,9-41-15,116,depth_duration_stimuli/001170_2014-06-17_15-43-44_260595134347_rgbf000096-resize_6/001170_2014-06-17_15-43-44_260595134347_rgbf000096-resize-original.jpg,125,1.1909999999999998,3,2297,123,feet,jsons/VE125_randls_68.json,600746,861597,30,Woman
116,928490,DepthScenes,duration_manipulation_targetAtFixation,jsons/VE125_randls_68.json,http://54.235.29.9/FacialAge/BNav_EC2/DepthDuration/v2_depth_duration_MTurk/v2_DepthDuration_HTML.html#51,51,1536,864,1536,864,8-21-2022,9-41-15,117,depth_duration_stimuli/002600_2014-06-24_14-27-04_094959634447_rgbf000074-resize_2/002600_2014-06-24_14-27-04_094959634447_rgbf000074-resize_2-target.png,125,2.7575,2,2574,124,feet,jsons/VE125_randls_68.json,600746,861597,30,Woman
117,928490,DepthScenes,duration_manipulation_targetAtFixation,jsons/VE125_randls_68.json,http://54.235.29.9/FacialAge/BNav_EC2/DepthDuration/v2_depth_duration_MTurk/v2_DepthDuration_HTML.html#51,51,1536,864,1536,864,8-21-2022,9-41-15,118,depth_duration_stimuli/003228_2014-05-14_13-42-35_094959634447_rgbf000101-resize_1/003228_2014-05-14_13-42-35_094959634447_rgbf000101-resize_1-target.png,125,1.9680000000000002,2,2465,124,feet,jsons/VE125_randls_68.json,600746,861597,30,Woman
118,928490,DepthScenes,duration_manipulation_targetAtFixation,jsons/VE125_randls_68.json,http://54.235.29.9/FacialAge/BNav_EC2/DepthDuration/v2_depth_duration_MTurk/v2_DepthDuration_HTML.html#51,51,1536,864,1536,864,8-21-2022,9-41-15,119,depth_duration_stimuli/002570_2014-06-24_13-59-54_094959634447_rgbf000059-resize_0/002570_2014-06-24_13-59-54_094959634447_rgbf000059-resize_0-target.png,125,4.037,2,3646,124,feet,jsons/VE125_randls_68.json,600746,861597,30,Woman
119,928490,DepthScenes,duration_manipulation_targetAtFixation,jsons/VE125_randls_68.json,http://54.235.29.9/FacialAge/BNav_EC2/DepthDuration/v2_depth_duration_MTurk/v2_DepthDuration_HTML.html#51,51,1536,864,1536,864,8-21-2022,9-41-15,120,depth_duration_stimuli/002467_2014-06-28_20-38-07_260595134347_rgbf000026-resize_2/002467_2014-06-28_20-38-07_260595134347_rgbf000026-resize_2-target.png,125,4.742,4,3200,125,feet,jsons/VE125_randls_68.json,600746,861597,30,Woman
120,928490,DepthScenes,duration_manipulation_targetAtFixation,jsons/VE125_randls_68.json,http://54.235.29.9/FacialAge/BNav_EC2/DepthDuration/v2_depth_duration_MTurk/v2_DepthDuration_HTML.html#51,51,1536,864,1536,864,8-21-2022,9-41-15,121,depth_duration_stimuli/001175_2014-06-17_15-45-55_260595134347_rgbf000129-resize_4/001175_2014-06-17_15-45-55_260595134347_rgbf000129-resize_4-target.png,125,4.255,6,3098,124,feet,jsons/VE125_randls_68.json,600746,861597,30,Woman
121,928490,DepthScenes,duration_manipulation_targetAtFixation,jsons/VE125_randls_68.json,http://54.235.29.9/FacialAge/BNav_EC2/DepthDuration/v2_depth_duration_MTurk/v2_DepthDuration_HTML.html#51,51,1536,864,1536,864,8-21-2022,9-41-15,122,depth_duration_stimuli/003490_2014-05-21_15-50-11_094959634447_rgbf000101-resize_3/003490_2014-05-21_15-50-11_094959634447_rgbf000101-resize_3-target.png,125,3.6445,3,2236,125,feet,jsons/VE125_randls_68.json,600746,861597,30,Woman
122,928490,DepthScenes,duration_manipulation_targetAtFixation,jsons/VE125_randls_68.json,http://54.235.29.9/FacialAge/BNav_EC2/DepthDuration/v2_depth_duration_MTurk/v2_DepthDuration_HTML.html#51,51,1536,864,1536,864,8-21-2022,9-41-15,123,depth_duration_stimuli/003492_2014-05-21_15-50-55_094959634447_rgbf000828-resize_1/003492_2014-05-21_15-50-55_094959634447_rgbf000828-resize_1-target.png,125,4.06875,4,2205,122,feet,jsons/VE125_randls_68.json,600746,861597,30,Woman
123,928490,DepthScenes,duration_manipulation_targetAtFixation,jsons/VE125_randls_68.json,http://54.235.29.9/FacialAge/BNav_EC2/DepthDuration/v2_depth_duration_MTurk/v2_DepthDuration_HTML.html#51,51,1536,864,1536,864,8-21-2022,9-41-15,124,depth_duration_stimuli/002568_2014-06-24_13-59-21_094959634447_rgbf000062-resize_4/002568_2014-06-24_13-59-21_094959634447_rgbf000062-resize_4-target.png,125,3.015,3,1967,125,feet,jsons/VE125_randls_68.json,600746,861597,30,Woman
124,928490,DepthScenes,duration_manipulation_targetAtFixation,jsons/VE125_randls_68.json,http://54.235.29.9/FacialAge/BNav_EC2/DepthDuration/v2_depth_duration_MTurk/v2_DepthDuration_HTML.html#51,51,1536,864,1536,864,8-21-2022,9-41-15,125,depth_duration_stimuli/001158_2014-06-17_15-32-16_260595134347_rgbf000138-resize_2/001158_2014-06-17_15-32-16_260595134347_rgbf000138-resize_2-target.png,125,4.5315,2,1887,125,feet,jsons/VE125_randls_68.json,600746,861597,30,Woman
125,928490,DepthScenes,duration_manipulation_targetAtFixation,jsons/VE125_randls_68.json,http://54.235.29.9/FacialAge/BNav_EC2/DepthDuration/v2_depth_duration_MTurk/v2_DepthDuration_HTML.html#51,51,1536,864,1536,864,8-21-2022,9-41-15,126,depth_duration_stimuli/000556_2014-06-09_22-42-56_260595134347_rgbf000214-resize_1/000556_2014-06-09_22-42-56_260595134347_rgbf000214-resize_1-target.png,125,4.8415,3,1716,122,feet,jsons/VE125_randls_68.json,600746,861597,30,Woman
126,928490,DepthScenes,duration_manipulation_targetAtFixation,jsons/VE125_randls_68.json,http://54.235.29.9/FacialAge/BNav_EC2/DepthDuration/v2_depth_duration_MTurk/v2_DepthDuration_HTML.html#51,51,1536,864,1536,864,8-21-2022,9-41-15,127,depth_duration_stimuli/001133_2014-06-17_14-49-16_260595134347_rgbf000100-resize_0/001133_2014-06-17_14-49-16_260595134347_rgbf000100-resize_0-target.png,125,4.2115,4,2036,125,feet,jsons/VE125_randls_68.json,600746,861597,30,Woman
127,928490,DepthScenes,duration_manipulation_targetAtFixation,jsons/VE125_randls_68.json,http://54.235.29.9/FacialAge/BNav_EC2/DepthDuration/v2_depth_duration_MTurk/v2_DepthDuration_HTML.html#51,51,1536,864,1536,864,8-21-2022,9-41-15,128,depth_duration_stimuli/001132_2014-06-17_14-48-54_260595134347_rgbf000100-resize_2/001132_2014-06-17_14-48-54_260595134347_rgbf000100-resize_2-target.png,125,3.753,3,1887,124,feet,jsons/VE125_randls_68.json,600746,861597,30,Woman
128,928490,DepthScenes,duration_manipulation_targetAtFixation,jsons/VE125_randls_68.json,http://54.235.29.9/FacialAge/BNav_EC2/DepthDuration/v2_depth_duration_MTurk/v2_DepthDuration_HTML.html#51,51,1536,864,1536,864,8-21-2022,9-41-15,129,depth_duration_stimuli/002375_2014-06-28_20-13-44_260595134347_rgbf000032-resize_1/002375_2014-06-28_20-13-44_260595134347_rgbf000032-resize_1-target.png,125,4.0175,4,2529,125,feet,jsons/VE125_randls_68.json,600746,861597,30,Woman
129,928490,DepthScenes,duration_manipulation_targetAtFixation,jsons/VE125_randls_68.json,http://54.235.29.9/FacialAge/BNav_EC2/DepthDuration/v2_depth_duration_MTurk/v2_DepthDuration_HTML.html#51,51,1536,864,1536,864,8-21-2022,9-41-15,130,depth_duration_stimuli/002657_2014-06-13_15-29-54_094959634447_rgbf000150-resize_1/002657_2014-06-13_15-29-54_094959634447_rgbf000150-resize_1-target.png,125,4.919,5,2528,124,feet,jsons/VE125_randls_68.json,600746,861597,30,Woman
130,928490,DepthScenes,duration_manipulation_targetAtFixation,jsons/VE125_randls_68.json,http://54.235.29.9/FacialAge/BNav_EC2/DepthDuration/v2_depth_duration_MTurk/v2_DepthDuration_HTML.html#51,51,1536,864,1536,864,8-21-2022,9-41-15,131,depth_duration_stimuli/000414_2014-06-04_19-49-13_260595134347_rgbf000044-resize_0/000414_2014-06-04_19-49-13_260595134347_rgbf000044-resize_0-target.png,125,4.329,3,2720,105,feet,jsons/VE125_randls_68.json,600746,861597,30,Woman
131,928490,DepthScenes,duration_manipulation_targetAtFixation,jsons/VE125_randls_68.json,http://54.235.29.9/FacialAge/BNav_EC2/DepthDuration/v2_depth_duration_MTurk/v2_DepthDuration_HTML.html#51,51,1536,864,1536,864,8-21-2022,9-41-15,132,depth_duration_stimuli/003129_2014-05-12_10-48-10_094959634447_rgbf000100-resize_0/003129_2014-05-12_10-48-10_094959634447_rgbf000100-resize_0-target.png,125,4.9305,4,2269,125,feet,jsons/VE125_randls_68.json,600746,861597,30,Woman
132,928490,DepthScenes,duration_manipulation_targetAtFixation,jsons/VE125_randls_68.json,http://54.235.29.9/FacialAge/BNav_EC2/DepthDuration/v2_depth_duration_MTurk/v2_DepthDuration_HTML.html#51,51,1536,864,1536,864,8-21-2022,9-41-15,133,depth_duration_stimuli/000739_2014-06-08_18-45-58_260595134347_rgbf000068-resize_1/000739_2014-06-08_18-45-58_260595134347_rgbf000068-resize_1-target.png,125,3.534,2,4503,124,feet,jsons/VE125_randls_68.json,600746,861597,30,Woman
133,928490,DepthScenes,duration_manipulation_targetAtFixation,jsons/VE125_randls_68.json,http://54.235.29.9/FacialAge/BNav_EC2/DepthDuration/v2_depth_duration_MTurk/v2_DepthDuration_HTML.html#51,51,1536,864,1536,864,8-21-2022,9-41-15,134,depth_duration_stimuli/000734_2014-06-08_17-39-11_260595134347_rgbf000128-resize_2/000734_2014-06-08_17-39-11_260595134347_rgbf000128-resize_2-target.png,125,4.098,3,2426,125,feet,jsons/VE125_randls_68.json,600746,861597,30,Woman
134,928490,DepthScenes,duration_manipulation_targetAtFixation,jsons/VE125_randls_68.json,http://54.235.29.9/FacialAge/BNav_EC2/DepthDuration/v2_depth_duration_MTurk/v2_DepthDuration_HTML.html#51,51,1536,864,1536,864,8-21-2022,9-41-15,135,depth_duration_stimuli/002072_2014-06-24_21-48-06_260595134347_rgbf000115-resize_0/002072_2014-06-24_21-48-06_260595134347_rgbf000115-resize-original.jpg,125,4.702,0,4543,124,feet,jsons/VE125_randls_68.json,600746,861597,30,Woman
135,928490,DepthScenes,duration_manipulation_targetAtFixation,jsons/VE125_randls_68.json,http://54.235.29.9/FacialAge/BNav_EC2/DepthDuration/v2_depth_duration_MTurk/v2_DepthDuration_HTML.html#51,51,1536,864,1536,864,8-21-2022,9-41-15,136,depth_duration_stimuli/000929_2014-06-09_16-33-19_260595134347_rgbf000139-resize_0/000929_2014-06-09_16-33-19_260595134347_rgbf000139-resize_0-target.png,125,2.8680000000000003,3,3552,124,feet,jsons/VE125_randls_68.json,600746,861597,30,Woman
136,928490,DepthScenes,duration_manipulation_targetAtFixation,jsons/VE125_randls_68.json,http://54.235.29.9/FacialAge/BNav_EC2/DepthDuration/v2_depth_duration_MTurk/v2_DepthDuration_HTML.html#51,51,1536,864,1536,864,8-21-2022,9-41-15,137,depth_duration_stimuli/000457_2014-06-08_16-52-43_260595134347_rgbf000199-resize_1/000457_2014-06-08_16-52-43_260595134347_rgbf000199-resize_1-target.png,125,3.6489999999999996,3,2089,125,feet,jsons/VE125_randls_68.json,600746,861597,30,Woman
137,928490,DepthScenes,duration_manipulation_targetAtFixation,jsons/VE125_randls_68.json,http://54.235.29.9/FacialAge/BNav_EC2/DepthDuration/v2_depth_duration_MTurk/v2_DepthDuration_HTML.html#51,51,1536,864,1536,864,8-21-2022,9-41-15,138,depth_duration_stimuli/000486_2014-06-09_20-47-20_260595134347_rgbf000143-resize_2/000486_2014-06-09_20-47-20_260595134347_rgbf000143-resize_2-target.png,125,4.8325,3,6261,123,feet,jsons/VE125_randls_68.json,600746,861597,30,Woman
138,928490,DepthScenes,duration_manipulation_targetAtFixation,jsons/VE125_randls_68.json,http://54.235.29.9/FacialAge/BNav_EC2/DepthDuration/v2_depth_duration_MTurk/v2_DepthDuration_HTML.html#51,51,1536,864,1536,864,8-21-2022,9-41-15,139,depth_duration_stimuli/003083_2014-06-15_15-21-03_094959634447_rgbf000063-resize_1/003083_2014-06-15_15-21-03_094959634447_rgbf000063-resize_1-target.png,125,4.1405,4,3313,124,feet,jsons/VE125_randls_68.json,600746,861597,30,Woman
139,928490,DepthScenes,duration_manipulation_targetAtFixation,jsons/VE125_randls_68.json,http://54.235.29.9/FacialAge/BNav_EC2/DepthDuration/v2_depth_duration_MTurk/v2_DepthDuration_HTML.html#51,51,1536,864,1536,864,8-21-2022,9-41-15,140,depth_duration_stimuli/001555_2014-06-20_17-12-10_260595134347_rgbf000065-resize_4/001555_2014-06-20_17-12-10_260595134347_rgbf000065-resize_4-target.png,125,1.633,4,2316,124,feet,jsons/VE125_randls_68.json,600746,861597,30,Woman
140,928490,DepthScenes,duration_manipulation_targetAtFixation,jsons/VE125_randls_68.json,http://54.235.29.9/FacialAge/BNav_EC2/DepthDuration/v2_depth_duration_MTurk/v2_DepthDuration_HTML.html#51,51,1536,864,1536,864,8-21-2022,9-41-15,141,depth_duration_stimuli/000103_2014-05-14_22-01-17_260595134347_rgbf000152-resize_5/000103_2014-05-14_22-01-17_260595134347_rgbf000152-resize_5-target.png,125,1.993,5,3138,124,feet,jsons/VE125_randls_68.json,600746,861597,30,Woman
141,928490,DepthScenes,duration_manipulation_targetAtFixation,jsons/VE125_randls_68.json,http://54.235.29.9/FacialAge/BNav_EC2/DepthDuration/v2_depth_duration_MTurk/v2_DepthDuration_HTML.html#51,51,1536,864,1536,864,8-21-2022,9-41-15,142,depth_duration_stimuli/002964_2014-06-08_17-46-11_094959634447_rgbf000091-resize_4/002964_2014-06-08_17-46-11_094959634447_rgbf000091-resize_4-target.png,125,1.6909999999999998,1,2482,125,feet,jsons/VE125_randls_68.json,600746,861597,30,Woman
142,928490,DepthScenes,duration_manipulation_targetAtFixation,jsons/VE125_randls_68.json,http://54.235.29.9/FacialAge/BNav_EC2/DepthDuration/v2_depth_duration_MTurk/v2_DepthDuration_HTML.html#51,51,1536,864,1536,864,8-21-2022,9-41-15,143,depth_duration_stimuli/002136_2014-06-25_21-18-03_260595134347_rgbf000109-resize_3/002136_2014-06-25_21-18-03_260595134347_rgbf000109-resize_3-target.png,125,1.9569999999999999,1,2260,125,feet,jsons/VE125_randls_68.json,600746,861597,30,Woman
143,928490,DepthScenes,duration_manipulation_targetAtFixation,jsons/VE125_randls_68.json,http://54.235.29.9/FacialAge/BNav_EC2/DepthDuration/v2_depth_duration_MTurk/v2_DepthDuration_HTML.html#51,51,1536,864,1536,864,8-21-2022,9-41-15,144,depth_duration_stimuli/002748_2014-06-22_19-07-22_094959634447_rgbf000078-resize_1/002748_2014-06-22_19-07-22_094959634447_rgbf000078-resize_1-target.png,125,4.6705,4,4284,128,feet,jsons/VE125_randls_68.json,600746,861597,30,Woman
144,928490,DepthScenes,duration_manipulation_targetAtFixation,jsons/VE125_randls_68.json,http://54.235.29.9/FacialAge/BNav_EC2/DepthDuration/v2_depth_duration_MTurk/v2_DepthDuration_HTML.html#51,51,1536,864,1536,864,8-21-2022,9-41-15,145,depth_duration_stimuli/002995_2014-06-15_12-31-26_094959634447_rgbf000150-resize_1/002995_2014-06-15_12-31-26_094959634447_rgbf000150-resize_1-target.png,125,3.8360000000000003,4,8165,124,feet,jsons/VE125_randls_68.json,600746,861597,30,Woman
145,928490,DepthScenes,duration_manipulation_targetAtFixation,jsons/VE125_randls_68.json,http://54.235.29.9/FacialAge/BNav_EC2/DepthDuration/v2_depth_duration_MTurk/v2_DepthDuration_HTML.html#51,51,1536,864,1536,864,8-21-2022,9-41-15,146,depth_duration_stimuli/001498_2014-06-19_17-45-14_260595134347_rgbf000129-resize_4/001498_2014-06-19_17-45-14_260595134347_rgbf000129-resize-original.jpg,125,1.4075,0,5972,125,feet,jsons/VE125_randls_68.json,600746,861597,30,Woman
146,928490,DepthScenes,duration_manipulation_targetAtFixation,jsons/VE125_randls_68.json,http://54.235.29.9/FacialAge/BNav_EC2/DepthDuration/v2_depth_duration_MTurk/v2_DepthDuration_HTML.html#51,51,1536,864,1536,864,8-21-2022,9-41-15,147,depth_duration_stimuli/000447_2014-06-08_16-15-46_260595134347_rgbf000130-resize_1/000447_2014-06-08_16-15-46_260595134347_rgbf000130-resize_1-target.png,125,4.479,4,6029,124,feet,jsons/VE125_randls_68.json,600746,861597,30,Woman
147,928490,DepthScenes,duration_manipulation_targetAtFixation,jsons/VE125_randls_68.json,http://54.235.29.9/FacialAge/BNav_EC2/DepthDuration/v2_depth_duration_MTurk/v2_DepthDuration_HTML.html#51,51,1536,864,1536,864,8-21-2022,9-41-15,148,depth_duration_stimuli/001447_2014-06-19_17-00-32_260595134347_rgbf000082-resize_5/001447_2014-06-19_17-00-32_260595134347_rgbf000082-resize_5-target.png,125,4.13775,1,3425,124,feet,jsons/VE125_randls_68.json,600746,861597,30,Woman
148,928490,DepthScenes,duration_manipulation_targetAtFixation,jsons/VE125_randls_68.json,http://54.235.29.9/FacialAge/BNav_EC2/DepthDuration/v2_depth_duration_MTurk/v2_DepthDuration_HTML.html#51,51,1536,864,1536,864,8-21-2022,9-41-15,149,depth_duration_stimuli/000368_2014-06-09_15-53-01_260595134347_rgbf000155-resize_2/000368_2014-06-09_15-53-01_260595134347_rgbf000155-resize_2-target.png,125,2.4859999999999998,0,4659,124,feet,jsons/VE125_randls_68.json,600746,861597,30,Woman
149,928490,DepthScenes,duration_manipulation_targetAtFixation,jsons/VE125_randls_68.json,http://54.235.29.9/FacialAge/BNav_EC2/DepthDuration/v2_depth_duration_MTurk/v2_DepthDuration_HTML.html#51,51,1536,864,1536,864,8-21-2022,9-41-15,150,depth_duration_stimuli/002678_2014-06-13_16-15-32_094959634447_rgbf000151-resize_6/002678_2014-06-13_16-15-32_094959634447_rgbf000151-resize_6-target.png,125,2.1830000000000003,2,2825,124,feet,jsons/VE125_randls_68.json,600746,861597,30,Woman
150,928490,DepthScenes,duration_manipulation_targetAtFixation,jsons/VE125_randls_68.json,http://54.235.29.9/FacialAge/BNav_EC2/DepthDuration/v2_depth_duration_MTurk/v2_DepthDuration_HTML.html#51,51,1536,864,1536,864,8-21-2022,9-41-15,151,depth_duration_stimuli/003292_2014-05-14_21-53-49_094959634447_rgbf000100-resize_2/003292_2014-05-14_21-53-49_094959634447_rgbf000100-resize_2-target.png,125,3.4815,2,2511,125,feet,jsons/VE125_randls_68.json,600746,861597,30,Woman
151,928490,DepthScenes,duration_manipulation_targetAtFixation,jsons/VE125_randls_68.json,http://54.235.29.9/FacialAge/BNav_EC2/DepthDuration/v2_depth_duration_MTurk/v2_DepthDuration_HTML.html#51,51,1536,864,1536,864,8-21-2022,9-41-15,152,depth_duration_stimuli/002639_2014-06-24_14-51-37_094959634447_rgbf000074-resize_4/002639_2014-06-24_14-51-37_094959634447_rgbf000074-resize_4-target.png,125,4.0375,2,2170,124,feet,jsons/VE125_randls_68.json,600746,861597,30,Woman
152,928490,DepthScenes,duration_manipulation_targetAtFixation,jsons/VE125_randls_68.json,http://54.235.29.9/FacialAge/BNav_EC2/DepthDuration/v2_depth_duration_MTurk/v2_DepthDuration_HTML.html#51,51,1536,864,1536,864,8-21-2022,9-41-15,153,depth_duration_stimuli/001011_2014-06-08_23-18-54_260595134347_rgbf000044-resize_4/001011_2014-06-08_23-18-54_260595134347_rgbf000044-resize_4-target.png,125,2.4730000000000003,3,3909,124,feet,jsons/VE125_randls_68.json,600746,861597,30,Woman
153,928490,DepthScenes,duration_manipulation_targetAtFixation,jsons/VE125_randls_68.json,http://54.235.29.9/FacialAge/BNav_EC2/DepthDuration/v2_depth_duration_MTurk/v2_DepthDuration_HTML.html#51,51,1536,864,1536,864,8-21-2022,9-41-15,154,depth_duration_stimuli/002875_2014-06-01_15-19-00_094959634447_rgbf000151-resize_1/002875_2014-06-01_15-19-00_094959634447_rgbf000151-resize_1-target.png,125,1.9675,1,2444,125,feet,jsons/VE125_randls_68.json,600746,861597,30,Woman
154,928490,DepthScenes,duration_manipulation_targetAtFixation,jsons/VE125_randls_68.json,http://54.235.29.9/FacialAge/BNav_EC2/DepthDuration/v2_depth_duration_MTurk/v2_DepthDuration_HTML.html#51,51,1536,864,1536,864,8-21-2022,9-41-15,155,depth_duration_stimuli/002272_2014-06-28_18-53-56_260595134347_rgbf000067-resize_2/002272_2014-06-28_18-53-56_260595134347_rgbf000067-resize_2-target.png,125,1.138,2,2698,124,feet,jsons/VE125_randls_68.json,600746,861597,30,Woman
155,928490,DepthScenes,duration_manipulation_targetAtFixation,jsons/VE125_randls_68.json,http://54.235.29.9/FacialAge/BNav_EC2/DepthDuration/v2_depth_duration_MTurk/v2_DepthDuration_HTML.html#51,51,1536,864,1536,864,8-21-2022,9-41-15,156,depth_duration_stimuli/001571_2014-06-20_17-21-32_260595134347_rgbf000089-resize_1/001571_2014-06-20_17-21-32_260595134347_rgbf000089-resize_1-target.png,125,1.86,2,2737,124,feet,jsons/VE125_randls_68.json,600746,861597,30,Woman
156,928490,DepthScenes,duration_manipulation_targetAtFixation,jsons/VE125_randls_68.json,http://54.235.29.9/FacialAge/BNav_EC2/DepthDuration/v2_depth_duration_MTurk/v2_DepthDuration_HTML.html#51,51,1536,864,1536,864,8-21-2022,9-41-15,157,depth_duration_stimuli/001016_2014-06-09_16-16-10_260595134347_rgbf000112-resize_5/001016_2014-06-09_16-16-10_260595134347_rgbf000112-resize_5-target.png,125,1.6565,2,2115,124,feet,jsons/VE125_randls_68.json,600746,861597,30,Woman
157,928490,DepthScenes,duration_manipulation_targetAtFixation,jsons/VE125_randls_68.json,http://54.235.29.9/FacialAge/BNav_EC2/DepthDuration/v2_depth_duration_MTurk/v2_DepthDuration_HTML.html#51,51,1536,864,1536,864,8-21-2022,9-41-15,158,depth_duration_stimuli/002340_2014-06-28_20-05-46_260595134347_rgbf000113-resize_0/002340_2014-06-28_20-05-46_260595134347_rgbf000113-resize_0-target.png,125,2.4735,4,2583,124,feet,jsons/VE125_randls_68.json,600746,861597,30,Woman
158,928490,DepthScenes,duration_manipulation_targetAtFixation,jsons/VE125_randls_68.json,http://54.235.29.9/FacialAge/BNav_EC2/DepthDuration/v2_depth_duration_MTurk/v2_DepthDuration_HTML.html#51,51,1536,864,1536,864,8-21-2022,9-41-15,159,depth_duration_stimuli/001110_2014-06-15_17-25-28_260595134347_rgbf000150-resize_1/001110_2014-06-15_17-25-28_260595134347_rgbf000150-resize_1-target.png,125,1.7115,2,3081,124,feet,jsons/VE125_randls_68.json,600746,861597,30,Woman
159,928490,DepthScenes,duration_manipulation_targetAtFixation,jsons/VE125_randls_68.json,http://54.235.29.9/FacialAge/BNav_EC2/DepthDuration/v2_depth_duration_MTurk/v2_DepthDuration_HTML.html#51,51,1536,864,1536,864,8-21-2022,9-41-15,160,depth_duration_stimuli/000927_2014-06-09_16-32-30_260595134347_rgbf000123-resize_3/000927_2014-06-09_16-32-30_260595134347_rgbf000123-resize_3-target.png,125,2.6785,3,1981,124,feet,jsons/VE125_randls_68.json,600746,861597,30,Woman
160,928490,DepthScenes,duration_manipulation_targetAtFixation,jsons/VE125_randls_68.json,http://54.235.29.9/FacialAge/BNav_EC2/DepthDuration/v2_depth_duration_MTurk/v2_DepthDuration_HTML.html#51,51,1536,864,1536,864,8-21-2022,9-41-15,161,depth_duration_stimuli/001066_2014-06-08_22-03-20_260595134347_rgbf000066-resize_4/001066_2014-06-08_22-03-20_260595134347_rgbf000066-resize_4-target.png,125,4.2330000000000005,3,2161,124,feet,jsons/VE125_randls_68.json,600746,861597,30,Woman
161,928490,DepthScenes,duration_manipulation_targetAtFixation,jsons/VE125_randls_68.json,http://54.235.29.9/FacialAge/BNav_EC2/DepthDuration/v2_depth_duration_MTurk/v2_DepthDuration_HTML.html#51,51,1536,864,1536,864,8-21-2022,9-41-15,162,depth_duration_stimuli/000742_2014-06-08_18-48-09_260595134347_rgbf000164-resize_4/000742_2014-06-08_18-48-09_260595134347_rgbf000164-resize_4-target.png,125,4.632,0,4285,124,feet,jsons/VE125_randls_68.json,600746,861597,30,Woman
162,928490,DepthScenes,duration_manipulation_targetAtFixation,jsons/VE125_randls_68.json,http://54.235.29.9/FacialAge/BNav_EC2/DepthDuration/v2_depth_duration_MTurk/v2_DepthDuration_HTML.html#51,51,1536,864,1536,864,8-21-2022,9-41-15,163,depth_duration_stimuli/001806_2014-06-26_20-50-20_260595134347_rgbf000091-resize_1/001806_2014-06-26_20-50-20_260595134347_rgbf000091-resize_1-target.png,125,2.7305,2,2939,124,feet,jsons/VE125_randls_68.json,600746,861597,30,Woman
163,928490,DepthScenes,duration_manipulation_targetAtFixation,jsons/VE125_randls_68.json,http://54.235.29.9/FacialAge/BNav_EC2/DepthDuration/v2_depth_duration_MTurk/v2_DepthDuration_HTML.html#51,51,1536,864,1536,864,8-21-2022,9-41-15,164,depth_duration_stimuli/001617_2014-06-20_11-35-32_260595134347_rgbf000066-resize_1/001617_2014-06-20_11-35-32_260595134347_rgbf000066-resize_1-target.png,125,3.7910000000000004,5,4090,125,feet,jsons/VE125_randls_68.json,600746,861597,30,Woman
