,subjID,experimentName,versionName,sequenceName,url,selected_row,windowWidth,windowHeight,screenWidth,screenHeight,startDate,startTime,trial,stimulus,duration,actual_depth,depth_estimate,trial_RT,log_sceneDuration,unitSelection,seq_filepath,experimentTime,totalTime,age,gender
0,931391,DepthScenes,duration_manipulation_targetAtFixation,jsons/v1_VE1000_randls_3.json,http://54.235.29.9/FacialAge/BNav_EC2/DepthDuration/v2_depth_duration_MTurk/v2_DepthDuration_HTML.html#152,152,1366,768,1366,768,8-22-2022,9-4-27,1,depth_duration_stimuli/000368_2014-06-09_15-53-01_260595134347_rgbf000155-resize_2/000368_2014-06-09_15-53-01_260595134347_rgbf000155-resize_2-target.png,1000,2.4859999999999998,2,6470,1011,meters,jsons/v1_VE1000_randls_3.json,861332,1030858,49,Woman
1,931391,DepthScenes,duration_manipulation_targetAtFixation,jsons/v1_VE1000_randls_3.json,http://54.235.29.9/FacialAge/BNav_EC2/DepthDuration/v2_depth_duration_MTurk/v2_DepthDuration_HTML.html#152,152,1366,768,1366,768,8-22-2022,9-4-27,2,depth_duration_stimuli/002678_2014-06-13_16-15-32_094959634447_rgbf000151-resize_6/002678_2014-06-13_16-15-32_094959634447_rgbf000151-resize_6-target.png,1000,2.1830000000000003,3,3460,998,meters,jsons/v1_VE1000_randls_3.json,861332,1030858,49,Woman
2,931391,DepthScenes,duration_manipulation_targetAtFixation,jsons/v1_VE1000_randls_3.json,http://54.235.29.9/FacialAge/BNav_EC2/DepthDuration/v2_depth_duration_MTurk/v2_DepthDuration_HTML.html#152,152,1366,768,1366,768,8-22-2022,9-4-27,3,depth_duration_stimuli/002445_2014-06-28_20-32-16_260595134347_rgbf000029-resize_4/002445_2014-06-28_20-32-16_260595134347_rgbf000029-resize_4-target.png,1000,2.5315,4,4154,1006,meters,jsons/v1_VE1000_randls_3.json,861332,1030858,49,Woman
3,931391,DepthScenes,duration_manipulation_targetAtFixation,jsons/v1_VE1000_randls_3.json,http://54.235.29.9/FacialAge/BNav_EC2/DepthDuration/v2_depth_duration_MTurk/v2_DepthDuration_HTML.html#152,152,1366,768,1366,768,8-22-2022,9-4-27,4,depth_duration_stimuli/000780_2014-06-08_22-28-29_260595134347_rgbf000126-resize_1/000780_2014-06-08_22-28-29_260595134347_rgbf000126-resize_1-target.png,1000,3.3825,3,4100,1005,meters,jsons/v1_VE1000_randls_3.json,861332,1030858,49,Woman
4,931391,DepthScenes,duration_manipulation_targetAtFixation,jsons/v1_VE1000_randls_3.json,http://54.235.29.9/FacialAge/BNav_EC2/DepthDuration/v2_depth_duration_MTurk/v2_DepthDuration_HTML.html#152,152,1366,768,1366,768,8-22-2022,9-4-27,5,depth_duration_stimuli/001167_2014-06-17_15-38-07_260595134347_rgbf000108-resize_0/001167_2014-06-17_15-38-07_260595134347_rgbf000108-resize_0-target.png,1000,1.8505,1,3655,996,meters,jsons/v1_VE1000_randls_3.json,861332,1030858,49,Woman
5,931391,DepthScenes,duration_manipulation_targetAtFixation,jsons/v1_VE1000_randls_3.json,http://54.235.29.9/FacialAge/BNav_EC2/DepthDuration/v2_depth_duration_MTurk/v2_DepthDuration_HTML.html#152,152,1366,768,1366,768,8-22-2022,9-4-27,6,depth_duration_stimuli/003587_2014-05-23_16-48-02_094959634447_rgbf002384-resize_2/003587_2014-05-23_16-48-02_094959634447_rgbf002384-resize_2-target.png,1000,1.357,4,3777,1007,meters,jsons/v1_VE1000_randls_3.json,861332,1030858,49,Woman
6,931391,DepthScenes,duration_manipulation_targetAtFixation,jsons/v1_VE1000_randls_3.json,http://54.235.29.9/FacialAge/BNav_EC2/DepthDuration/v2_depth_duration_MTurk/v2_DepthDuration_HTML.html#152,152,1366,768,1366,768,8-22-2022,9-4-27,7,depth_duration_stimuli/002784_2014-06-22_19-26-30_094959634447_rgbf000083-resize_3/002784_2014-06-22_19-26-30_094959634447_rgbf000083-resize_3-target.png,1000,1.8046666666667,5,5774,997,meters,jsons/v1_VE1000_randls_3.json,861332,1030858,49,Woman
7,931391,DepthScenes,duration_manipulation_targetAtFixation,jsons/v1_VE1000_randls_3.json,http://54.235.29.9/FacialAge/BNav_EC2/DepthDuration/v2_depth_duration_MTurk/v2_DepthDuration_HTML.html#152,152,1366,768,1366,768,8-22-2022,9-4-27,8,depth_duration_stimuli/001100_2014-06-15_17-46-26_260595134347_rgbf000225-resize_2/001100_2014-06-15_17-46-26_260595134347_rgbf000225-resize_2-target.png,1000,2.24,1,3593,1012,meters,jsons/v1_VE1000_randls_3.json,861332,1030858,49,Woman
8,931391,DepthScenes,duration_manipulation_targetAtFixation,jsons/v1_VE1000_randls_3.json,http://54.235.29.9/FacialAge/BNav_EC2/DepthDuration/v2_depth_duration_MTurk/v2_DepthDuration_HTML.html#152,152,1366,768,1366,768,8-22-2022,9-4-27,9,depth_duration_stimuli/001055_2014-06-08_18-45-35_260595134347_rgbf000111-resize_4/001055_2014-06-08_18-45-35_260595134347_rgbf000111-resize_4-target.png,1000,2.4290000000000003,2,3813,1000,meters,jsons/v1_VE1000_randls_3.json,861332,1030858,49,Woman
9,931391,DepthScenes,duration_manipulation_targetAtFixation,jsons/v1_VE1000_randls_3.json,http://54.235.29.9/FacialAge/BNav_EC2/DepthDuration/v2_depth_duration_MTurk/v2_DepthDuration_HTML.html#152,152,1366,768,1366,768,8-22-2022,9-4-27,10,depth_duration_stimuli/000549_2014-06-08_22-10-24_260595134347_rgbf000247-resize_3/000549_2014-06-08_22-10-24_260595134347_rgbf000247-resize_3-target.png,1000,1.841,3,6543,995,meters,jsons/v1_VE1000_randls_3.json,861332,1030858,49,Woman
10,931391,DepthScenes,duration_manipulation_targetAtFixation,jsons/v1_VE1000_randls_3.json,http://54.235.29.9/FacialAge/BNav_EC2/DepthDuration/v2_depth_duration_MTurk/v2_DepthDuration_HTML.html#152,152,1366,768,1366,768,8-22-2022,9-4-27,11,depth_duration_stimuli/002788_2014-06-22_19-36-03_094959634447_rgbf000088-resize_2/002788_2014-06-22_19-36-03_094959634447_rgbf000088-resize_2-target.png,1000,1.6465,4,9142,1001,meters,jsons/v1_VE1000_randls_3.json,861332,1030858,49,Woman
11,931391,DepthScenes,duration_manipulation_targetAtFixation,jsons/v1_VE1000_randls_3.json,http://54.235.29.9/FacialAge/BNav_EC2/DepthDuration/v2_depth_duration_MTurk/v2_DepthDuration_HTML.html#152,152,1366,768,1366,768,8-22-2022,9-4-27,12,depth_duration_stimuli/000749_2014-06-08_21-55-06_260595134347_rgbf000070-resize_2/000749_2014-06-08_21-55-06_260595134347_rgbf000070-resize_2-target.png,1000,2.331,3,4392,1007,meters,jsons/v1_VE1000_randls_3.json,861332,1030858,49,Woman
12,931391,DepthScenes,duration_manipulation_targetAtFixation,jsons/v1_VE1000_randls_3.json,http://54.235.29.9/FacialAge/BNav_EC2/DepthDuration/v2_depth_duration_MTurk/v2_DepthDuration_HTML.html#152,152,1366,768,1366,768,8-22-2022,9-4-27,13,depth_duration_stimuli/000569_2014-06-09_22-51-47_260595134347_rgbf000141-resize_3/000569_2014-06-09_22-51-47_260595134347_rgbf000141-resize-original.jpg,1000,4.512,2,3894,1004,meters,jsons/v1_VE1000_randls_3.json,861332,1030858,49,Woman
13,931391,DepthScenes,duration_manipulation_targetAtFixation,jsons/v1_VE1000_randls_3.json,http://54.235.29.9/FacialAge/BNav_EC2/DepthDuration/v2_depth_duration_MTurk/v2_DepthDuration_HTML.html#152,152,1366,768,1366,768,8-22-2022,9-4-27,14,depth_duration_stimuli/003534_2014-05-22_15-06-10_094959634447_rgbf000102-resize_4/003534_2014-05-22_15-06-10_094959634447_rgbf000102-resize_4-target.png,1000,1.426,3,3680,1005,meters,jsons/v1_VE1000_randls_3.json,861332,1030858,49,Woman
14,931391,DepthScenes,duration_manipulation_targetAtFixation,jsons/v1_VE1000_randls_3.json,http://54.235.29.9/FacialAge/BNav_EC2/DepthDuration/v2_depth_duration_MTurk/v2_DepthDuration_HTML.html#152,152,1366,768,1366,768,8-22-2022,9-4-27,15,depth_duration_stimuli/002637_2014-06-24_14-51-13_094959634447_rgbf000066-resize_4/002637_2014-06-24_14-51-13_094959634447_rgbf000066-resize_4-target.png,1000,1.9955,4,3329,991,meters,jsons/v1_VE1000_randls_3.json,861332,1030858,49,Woman
15,931391,DepthScenes,duration_manipulation_targetAtFixation,jsons/v1_VE1000_randls_3.json,http://54.235.29.9/FacialAge/BNav_EC2/DepthDuration/v2_depth_duration_MTurk/v2_DepthDuration_HTML.html#152,152,1366,768,1366,768,8-22-2022,9-4-27,16,depth_duration_stimuli/000773_2014-06-08_22-24-54_260595134347_rgbf000093-resize_1/000773_2014-06-08_22-24-54_260595134347_rgbf000093-resize_1-target.png,1000,4.973,3,4121,1001,meters,jsons/v1_VE1000_randls_3.json,861332,1030858,49,Woman
16,931391,DepthScenes,duration_manipulation_targetAtFixation,jsons/v1_VE1000_randls_3.json,http://54.235.29.9/FacialAge/BNav_EC2/DepthDuration/v2_depth_duration_MTurk/v2_DepthDuration_HTML.html#152,152,1366,768,1366,768,8-22-2022,9-4-27,17,depth_duration_stimuli/002414_2014-06-28_20-24-58_260595134347_rgbf000067-resize_4/002414_2014-06-28_20-24-58_260595134347_rgbf000067-resize_4-target.png,1000,4.363,3,3798,993,meters,jsons/v1_VE1000_randls_3.json,861332,1030858,49,Woman
17,931391,DepthScenes,duration_manipulation_targetAtFixation,jsons/v1_VE1000_randls_3.json,http://54.235.29.9/FacialAge/BNav_EC2/DepthDuration/v2_depth_duration_MTurk/v2_DepthDuration_HTML.html#152,152,1366,768,1366,768,8-22-2022,9-4-27,18,depth_duration_stimuli/002153_2014-06-25_21-27-18_260595134347_rgbf000038-resize_5/002153_2014-06-25_21-27-18_260595134347_rgbf000038-resize_5-target.png,1000,2.505,3,4786,1005,meters,jsons/v1_VE1000_randls_3.json,861332,1030858,49,Woman
18,931391,DepthScenes,duration_manipulation_targetAtFixation,jsons/v1_VE1000_randls_3.json,http://54.235.29.9/FacialAge/BNav_EC2/DepthDuration/v2_depth_duration_MTurk/v2_DepthDuration_HTML.html#152,152,1366,768,1366,768,8-22-2022,9-4-27,19,depth_duration_stimuli/002660_2014-06-13_15-44-18_094959634447_rgbf001878-resize_2/002660_2014-06-13_15-44-18_094959634447_rgbf001878-resize_2-target.png,1000,3.576,3,3751,971,meters,jsons/v1_VE1000_randls_3.json,861332,1030858,49,Woman
19,931391,DepthScenes,duration_manipulation_targetAtFixation,jsons/v1_VE1000_randls_3.json,http://54.235.29.9/FacialAge/BNav_EC2/DepthDuration/v2_depth_duration_MTurk/v2_DepthDuration_HTML.html#152,152,1366,768,1366,768,8-22-2022,9-4-27,20,depth_duration_stimuli/000788_2014-06-08_22-34-36_260595134347_rgbf000131-resize_1/000788_2014-06-08_22-34-36_260595134347_rgbf000131-resize_1-target.png,1000,3.359,4,3682,1007,meters,jsons/v1_VE1000_randls_3.json,861332,1030858,49,Woman
20,931391,DepthScenes,duration_manipulation_targetAtFixation,jsons/v1_VE1000_randls_3.json,http://54.235.29.9/FacialAge/BNav_EC2/DepthDuration/v2_depth_duration_MTurk/v2_DepthDuration_HTML.html#152,152,1366,768,1366,768,8-22-2022,9-4-27,21,depth_duration_stimuli/001235_2014-06-17_16-37-36_260595134347_rgbf000084-resize_4/001235_2014-06-17_16-37-36_260595134347_rgbf000084-resize_4-target.png,1000,3.6605,2,3725,1008,meters,jsons/v1_VE1000_randls_3.json,861332,1030858,49,Woman
21,931391,DepthScenes,duration_manipulation_targetAtFixation,jsons/v1_VE1000_randls_3.json,http://54.235.29.9/FacialAge/BNav_EC2/DepthDuration/v2_depth_duration_MTurk/v2_DepthDuration_HTML.html#152,152,1366,768,1366,768,8-22-2022,9-4-27,22,depth_duration_stimuli/002272_2014-06-28_18-53-56_260595134347_rgbf000067-resize_2/002272_2014-06-28_18-53-56_260595134347_rgbf000067-resize_2-target.png,1000,1.138,3,3272,991,meters,jsons/v1_VE1000_randls_3.json,861332,1030858,49,Woman
22,931391,DepthScenes,duration_manipulation_targetAtFixation,jsons/v1_VE1000_randls_3.json,http://54.235.29.9/FacialAge/BNav_EC2/DepthDuration/v2_depth_duration_MTurk/v2_DepthDuration_HTML.html#152,152,1366,768,1366,768,8-22-2022,9-4-27,23,depth_duration_stimuli/001571_2014-06-20_17-21-32_260595134347_rgbf000089-resize_1/001571_2014-06-20_17-21-32_260595134347_rgbf000089-resize_1-target.png,1000,1.86,4,3599,1007,meters,jsons/v1_VE1000_randls_3.json,861332,1030858,49,Woman
23,931391,DepthScenes,duration_manipulation_targetAtFixation,jsons/v1_VE1000_randls_3.json,http://54.235.29.9/FacialAge/BNav_EC2/DepthDuration/v2_depth_duration_MTurk/v2_DepthDuration_HTML.html#152,152,1366,768,1366,768,8-22-2022,9-4-27,24,depth_duration_stimuli/002057_2014-06-24_21-00-13_260595134347_rgbf000120-resize_1/002057_2014-06-24_21-00-13_260595134347_rgbf000120-resize_1-target.png,1000,2.967,3,3281,997,meters,jsons/v1_VE1000_randls_3.json,861332,1030858,49,Woman
24,931391,DepthScenes,duration_manipulation_targetAtFixation,jsons/v1_VE1000_randls_3.json,http://54.235.29.9/FacialAge/BNav_EC2/DepthDuration/v2_depth_duration_MTurk/v2_DepthDuration_HTML.html#152,152,1366,768,1366,768,8-22-2022,9-4-27,25,depth_duration_stimuli/000709_2014-06-08_13-51-55_260595134347_rgbf000068-resize_3/000709_2014-06-08_13-51-55_260595134347_rgbf000068-resize_3-target.png,1000,1.8030000000000002,2,3586,998,meters,jsons/v1_VE1000_randls_3.json,861332,1030858,49,Woman
25,931391,DepthScenes,duration_manipulation_targetAtFixation,jsons/v1_VE1000_randls_3.json,http://54.235.29.9/FacialAge/BNav_EC2/DepthDuration/v2_depth_duration_MTurk/v2_DepthDuration_HTML.html#152,152,1366,768,1366,768,8-22-2022,9-4-27,26,depth_duration_stimuli/000736_2014-06-08_18-24-15_260595134347_rgbf000206-resize_3/000736_2014-06-08_18-24-15_260595134347_rgbf000206-resize_3-target.png,1000,3.515,2,18587,997,meters,jsons/v1_VE1000_randls_3.json,861332,1030858,49,Woman
26,931391,DepthScenes,duration_manipulation_targetAtFixation,jsons/v1_VE1000_randls_3.json,http://54.235.29.9/FacialAge/BNav_EC2/DepthDuration/v2_depth_duration_MTurk/v2_DepthDuration_HTML.html#152,152,1366,768,1366,768,8-22-2022,9-4-27,27,depth_duration_stimuli/000137_2014-05-20_17-04-49_260595134347_rgbf000120-resize_1/000137_2014-05-20_17-04-49_260595134347_rgbf000120-resize_1-target.png,1000,3.786,4,3974,1004,meters,jsons/v1_VE1000_randls_3.json,861332,1030858,49,Woman
27,931391,DepthScenes,duration_manipulation_targetAtFixation,jsons/v1_VE1000_randls_3.json,http://54.235.29.9/FacialAge/BNav_EC2/DepthDuration/v2_depth_duration_MTurk/v2_DepthDuration_HTML.html#152,152,1366,768,1366,768,8-22-2022,9-4-27,28,depth_duration_stimuli/001449_2014-06-19_17-01-27_260595134347_rgbf000116-resize_2/001449_2014-06-19_17-01-27_260595134347_rgbf000116-resize_2-target.png,1000,3.452,2,4244,997,meters,jsons/v1_VE1000_randls_3.json,861332,1030858,49,Woman
28,931391,DepthScenes,duration_manipulation_targetAtFixation,jsons/v1_VE1000_randls_3.json,http://54.235.29.9/FacialAge/BNav_EC2/DepthDuration/v2_depth_duration_MTurk/v2_DepthDuration_HTML.html#152,152,1366,768,1366,768,8-22-2022,9-4-27,29,depth_duration_stimuli/001450_2014-06-19_17-02-03_260595134347_rgbf000203-resize_4/001450_2014-06-19_17-02-03_260595134347_rgbf000203-resize_4-target.png,1000,4.0106666666667,3,3463,1010,meters,jsons/v1_VE1000_randls_3.json,861332,1030858,49,Woman
29,931391,DepthScenes,duration_manipulation_targetAtFixation,jsons/v1_VE1000_randls_3.json,http://54.235.29.9/FacialAge/BNav_EC2/DepthDuration/v2_depth_duration_MTurk/v2_DepthDuration_HTML.html#152,152,1366,768,1366,768,8-22-2022,9-4-27,30,depth_duration_stimuli/000375_2014-06-08_11-17-29_260595134347_rgbf000133-resize_2/000375_2014-06-08_11-17-29_260595134347_rgbf000133-resize-original.jpg,1000,4.718,2,3865,993,meters,jsons/v1_VE1000_randls_3.json,861332,1030858,49,Woman
30,931391,DepthScenes,duration_manipulation_targetAtFixation,jsons/v1_VE1000_randls_3.json,http://54.235.29.9/FacialAge/BNav_EC2/DepthDuration/v2_depth_duration_MTurk/v2_DepthDuration_HTML.html#152,152,1366,768,1366,768,8-22-2022,9-4-27,31,depth_duration_stimuli/000009_2014-05-26_14-32-05_260595134347_rgbf000034-resize_3/000009_2014-05-26_14-32-05_260595134347_rgbf000034-resize_3-target.png,1000,3.8715,4,3468,1010,meters,jsons/v1_VE1000_randls_3.json,861332,1030858,49,Woman
31,931391,DepthScenes,duration_manipulation_targetAtFixation,jsons/v1_VE1000_randls_3.json,http://54.235.29.9/FacialAge/BNav_EC2/DepthDuration/v2_depth_duration_MTurk/v2_DepthDuration_HTML.html#152,152,1366,768,1366,768,8-22-2022,9-4-27,32,depth_duration_stimuli/001828_2014-06-26_21-40-03_260595134347_rgbf000024-resize_0/001828_2014-06-26_21-40-03_260595134347_rgbf000024-resize_0-target.png,1000,4.8260000000000005,3,3639,998,meters,jsons/v1_VE1000_randls_3.json,861332,1030858,49,Woman
32,931391,DepthScenes,duration_manipulation_targetAtFixation,jsons/v1_VE1000_randls_3.json,http://54.235.29.9/FacialAge/BNav_EC2/DepthDuration/v2_depth_duration_MTurk/v2_DepthDuration_HTML.html#152,152,1366,768,1366,768,8-22-2022,9-4-27,33,depth_duration_stimuli/001056_2014-06-08_18-46-44_260595134347_rgbf000068-resize_0/001056_2014-06-08_18-46-44_260595134347_rgbf000068-resize_0-target.png,1000,2.6625,2,3438,997,meters,jsons/v1_VE1000_randls_3.json,861332,1030858,49,Woman
33,931391,DepthScenes,duration_manipulation_targetAtFixation,jsons/v1_VE1000_randls_3.json,http://54.235.29.9/FacialAge/BNav_EC2/DepthDuration/v2_depth_duration_MTurk/v2_DepthDuration_HTML.html#152,152,1366,768,1366,768,8-22-2022,9-4-27,34,depth_duration_stimuli/002199_2014-06-28_18-33-56_260595134347_rgbf000074-resize_0/002199_2014-06-28_18-33-56_260595134347_rgbf000074-resize_0-target.png,1000,1.996,3,3506,993,meters,jsons/v1_VE1000_randls_3.json,861332,1030858,49,Woman
34,931391,DepthScenes,duration_manipulation_targetAtFixation,jsons/v1_VE1000_randls_3.json,http://54.235.29.9/FacialAge/BNav_EC2/DepthDuration/v2_depth_duration_MTurk/v2_DepthDuration_HTML.html#152,152,1366,768,1366,768,8-22-2022,9-4-27,35,depth_duration_stimuli/000414_2014-06-04_19-49-13_260595134347_rgbf000044-resize_0/000414_2014-06-04_19-49-13_260595134347_rgbf000044-resize_0-target.png,1000,4.329,4,3450,992,meters,jsons/v1_VE1000_randls_3.json,861332,1030858,49,Woman
35,931391,DepthScenes,duration_manipulation_targetAtFixation,jsons/v1_VE1000_randls_3.json,http://54.235.29.9/FacialAge/BNav_EC2/DepthDuration/v2_depth_duration_MTurk/v2_DepthDuration_HTML.html#152,152,1366,768,1366,768,8-22-2022,9-4-27,36,depth_duration_stimuli/003129_2014-05-12_10-48-10_094959634447_rgbf000100-resize_0/003129_2014-05-12_10-48-10_094959634447_rgbf000100-resize_0-target.png,1000,4.9305,4,30205,1009,meters,jsons/v1_VE1000_randls_3.json,861332,1030858,49,Woman
36,931391,DepthScenes,duration_manipulation_targetAtFixation,jsons/v1_VE1000_randls_3.json,http://54.235.29.9/FacialAge/BNav_EC2/DepthDuration/v2_depth_duration_MTurk/v2_DepthDuration_HTML.html#152,152,1366,768,1366,768,8-22-2022,9-4-27,37,depth_duration_stimuli/002043_2014-06-24_20-29-38_260595134347_rgbf000039-resize_4/002043_2014-06-24_20-29-38_260595134347_rgbf000039-resize_4-target.png,1000,2.8435,2,3866,990,meters,jsons/v1_VE1000_randls_3.json,861332,1030858,49,Woman
37,931391,DepthScenes,duration_manipulation_targetAtFixation,jsons/v1_VE1000_randls_3.json,http://54.235.29.9/FacialAge/BNav_EC2/DepthDuration/v2_depth_duration_MTurk/v2_DepthDuration_HTML.html#152,152,1366,768,1366,768,8-22-2022,9-4-27,38,depth_duration_stimuli/003048_2014-06-15_13-49-43_094959634447_rgbf000150-resize_1/003048_2014-06-15_13-49-43_094959634447_rgbf000150-resize_1-target.png,1000,4.0035,3,4283,999,meters,jsons/v1_VE1000_randls_3.json,861332,1030858,49,Woman
38,931391,DepthScenes,duration_manipulation_targetAtFixation,jsons/v1_VE1000_randls_3.json,http://54.235.29.9/FacialAge/BNav_EC2/DepthDuration/v2_depth_duration_MTurk/v2_DepthDuration_HTML.html#152,152,1366,768,1366,768,8-22-2022,9-4-27,39,depth_duration_stimuli/001806_2014-06-26_20-50-20_260595134347_rgbf000091-resize_1/001806_2014-06-26_20-50-20_260595134347_rgbf000091-resize_1-target.png,1000,2.7305,3,4422,986,meters,jsons/v1_VE1000_randls_3.json,861332,1030858,49,Woman
39,931391,DepthScenes,duration_manipulation_targetAtFixation,jsons/v1_VE1000_randls_3.json,http://54.235.29.9/FacialAge/BNav_EC2/DepthDuration/v2_depth_duration_MTurk/v2_DepthDuration_HTML.html#152,152,1366,768,1366,768,8-22-2022,9-4-27,40,depth_duration_stimuli/001617_2014-06-20_11-35-32_260595134347_rgbf000066-resize_1/001617_2014-06-20_11-35-32_260595134347_rgbf000066-resize_1-target.png,1000,3.7910000000000004,2,3316,999,meters,jsons/v1_VE1000_randls_3.json,861332,1030858,49,Woman
40,931391,DepthScenes,duration_manipulation_targetAtFixation,jsons/v1_VE1000_randls_3.json,http://54.235.29.9/FacialAge/BNav_EC2/DepthDuration/v2_depth_duration_MTurk/v2_DepthDuration_HTML.html#152,152,1366,768,1366,768,8-22-2022,9-4-27,41,depth_duration_stimuli/001810_2014-06-26_20-51-35_260595134347_rgbf000040-resize_3/001810_2014-06-26_20-51-35_260595134347_rgbf000040-resize_3-target.png,1000,2.2525,3,3776,999,meters,jsons/v1_VE1000_randls_3.json,861332,1030858,49,Woman
41,931391,DepthScenes,duration_manipulation_targetAtFixation,jsons/v1_VE1000_randls_3.json,http://54.235.29.9/FacialAge/BNav_EC2/DepthDuration/v2_depth_duration_MTurk/v2_DepthDuration_HTML.html#152,152,1366,768,1366,768,8-22-2022,9-4-27,42,depth_duration_stimuli/003010_2014-06-15_12-54-35_094959634447_rgbf000112-resize_0/003010_2014-06-15_12-54-35_094959634447_rgbf000112-resize_0-target.png,1000,3.1185,4,3898,990,meters,jsons/v1_VE1000_randls_3.json,861332,1030858,49,Woman
42,931391,DepthScenes,duration_manipulation_targetAtFixation,jsons/v1_VE1000_randls_3.json,http://54.235.29.9/FacialAge/BNav_EC2/DepthDuration/v2_depth_duration_MTurk/v2_DepthDuration_HTML.html#152,152,1366,768,1366,768,8-22-2022,9-4-27,43,depth_duration_stimuli/002600_2014-06-24_14-27-04_094959634447_rgbf000074-resize_2/002600_2014-06-24_14-27-04_094959634447_rgbf000074-resize_2-target.png,1000,2.7575,3,4006,989,meters,jsons/v1_VE1000_randls_3.json,861332,1030858,49,Woman
43,931391,DepthScenes,duration_manipulation_targetAtFixation,jsons/v1_VE1000_randls_3.json,http://54.235.29.9/FacialAge/BNav_EC2/DepthDuration/v2_depth_duration_MTurk/v2_DepthDuration_HTML.html#152,152,1366,768,1366,768,8-22-2022,9-4-27,44,depth_duration_stimuli/003228_2014-05-14_13-42-35_094959634447_rgbf000101-resize_1/003228_2014-05-14_13-42-35_094959634447_rgbf000101-resize_1-target.png,1000,1.9680000000000002,2,3406,1009,meters,jsons/v1_VE1000_randls_3.json,861332,1030858,49,Woman
44,931391,DepthScenes,duration_manipulation_targetAtFixation,jsons/v1_VE1000_randls_3.json,http://54.235.29.9/FacialAge/BNav_EC2/DepthDuration/v2_depth_duration_MTurk/v2_DepthDuration_HTML.html#152,152,1366,768,1366,768,8-22-2022,9-4-27,45,depth_duration_stimuli/000787_2014-06-08_22-33-53_260595134347_rgbf000175-resize_1/000787_2014-06-08_22-33-53_260595134347_rgbf000175-resize-original.jpg,1000,4.784,3,4036,997,meters,jsons/v1_VE1000_randls_3.json,861332,1030858,49,Woman
45,931391,DepthScenes,duration_manipulation_targetAtFixation,jsons/v1_VE1000_randls_3.json,http://54.235.29.9/FacialAge/BNav_EC2/DepthDuration/v2_depth_duration_MTurk/v2_DepthDuration_HTML.html#152,152,1366,768,1366,768,8-22-2022,9-4-27,46,depth_duration_stimuli/002905_2014-06-03_18-04-43_094959634447_rgbf000151-resize_2/002905_2014-06-03_18-04-43_094959634447_rgbf000151-resize_2-target.png,1000,2.0295,3,40790,1013,meters,jsons/v1_VE1000_randls_3.json,861332,1030858,49,Woman
46,931391,DepthScenes,duration_manipulation_targetAtFixation,jsons/v1_VE1000_randls_3.json,http://54.235.29.9/FacialAge/BNav_EC2/DepthDuration/v2_depth_duration_MTurk/v2_DepthDuration_HTML.html#152,152,1366,768,1366,768,8-22-2022,9-4-27,47,depth_duration_stimuli/003423_2014-05-21_10-23-26_094959634447_rgbf002665-resize_2/003423_2014-05-21_10-23-26_094959634447_rgbf002665-resize_2-target.png,1000,3.2575,3,6731,993,meters,jsons/v1_VE1000_randls_3.json,861332,1030858,49,Woman
47,931391,DepthScenes,duration_manipulation_targetAtFixation,jsons/v1_VE1000_randls_3.json,http://54.235.29.9/FacialAge/BNav_EC2/DepthDuration/v2_depth_duration_MTurk/v2_DepthDuration_HTML.html#152,152,1366,768,1366,768,8-22-2022,9-4-27,48,depth_duration_stimuli/000469_2014-06-09_19-42-10_260595134347_rgbf000081-resize_1/000469_2014-06-09_19-42-10_260595134347_rgbf000081-resize_1-target.png,1000,1.652,4,3464,988,meters,jsons/v1_VE1000_randls_3.json,861332,1030858,49,Woman
48,931391,DepthScenes,duration_manipulation_targetAtFixation,jsons/v1_VE1000_randls_3.json,http://54.235.29.9/FacialAge/BNav_EC2/DepthDuration/v2_depth_duration_MTurk/v2_DepthDuration_HTML.html#152,152,1366,768,1366,768,8-22-2022,9-4-27,49,depth_duration_stimuli/000483_2014-06-09_20-41-45_260595134347_rgbf000116-resize_4/000483_2014-06-09_20-41-45_260595134347_rgbf000116-resize_4-target.png,1000,1.337,3,3190,1006,meters,jsons/v1_VE1000_randls_3.json,861332,1030858,49,Woman
49,931391,DepthScenes,duration_manipulation_targetAtFixation,jsons/v1_VE1000_randls_3.json,http://54.235.29.9/FacialAge/BNav_EC2/DepthDuration/v2_depth_duration_MTurk/v2_DepthDuration_HTML.html#152,152,1366,768,1366,768,8-22-2022,9-4-27,50,depth_duration_stimuli/000906_2014-06-08_13-35-43_260595134347_rgbf000155-resize_1/000906_2014-06-08_13-35-43_260595134347_rgbf000155-resize_1-target.png,1000,2.8489999999999998,4,3675,994,meters,jsons/v1_VE1000_randls_3.json,861332,1030858,49,Woman
50,931391,DepthScenes,duration_manipulation_targetAtFixation,jsons/v1_VE1000_randls_3.json,http://54.235.29.9/FacialAge/BNav_EC2/DepthDuration/v2_depth_duration_MTurk/v2_DepthDuration_HTML.html#152,152,1366,768,1366,768,8-22-2022,9-4-27,51,depth_duration_stimuli/002805_2014-06-22_19-54-03_094959634447_rgbf000079-resize_1/002805_2014-06-22_19-54-03_094959634447_rgbf000079-resize_1-target.png,1000,3.1439999999999997,2,3285,995,meters,jsons/v1_VE1000_randls_3.json,861332,1030858,49,Woman
51,931391,DepthScenes,duration_manipulation_targetAtFixation,jsons/v1_VE1000_randls_3.json,http://54.235.29.9/FacialAge/BNav_EC2/DepthDuration/v2_depth_duration_MTurk/v2_DepthDuration_HTML.html#152,152,1366,768,1366,768,8-22-2022,9-4-27,52,depth_duration_stimuli/002989_2014-06-15_12-25-03_094959634447_rgbf000150-resize_3/002989_2014-06-15_12-25-03_094959634447_rgbf000150-resize_3-target.png,1000,4.1975,3,3263,993,meters,jsons/v1_VE1000_randls_3.json,861332,1030858,49,Woman
52,931391,DepthScenes,duration_manipulation_targetAtFixation,jsons/v1_VE1000_randls_3.json,http://54.235.29.9/FacialAge/BNav_EC2/DepthDuration/v2_depth_duration_MTurk/v2_DepthDuration_HTML.html#152,152,1366,768,1366,768,8-22-2022,9-4-27,53,depth_duration_stimuli/000866_2014-06-09_20-45-42_260595134347_rgbf000139-resize_1/000866_2014-06-09_20-45-42_260595134347_rgbf000139-resize_1-target.png,1000,3.2155,4,3439,1011,meters,jsons/v1_VE1000_randls_3.json,861332,1030858,49,Woman
53,931391,DepthScenes,duration_manipulation_targetAtFixation,jsons/v1_VE1000_randls_3.json,http://54.235.29.9/FacialAge/BNav_EC2/DepthDuration/v2_depth_duration_MTurk/v2_DepthDuration_HTML.html#152,152,1366,768,1366,768,8-22-2022,9-4-27,54,depth_duration_stimuli/000758_2014-06-08_22-05-08_260595134347_rgbf000085-resize_0/000758_2014-06-08_22-05-08_260595134347_rgbf000085-resize_0-target.png,1000,3.3810000000000002,3,3240,994,meters,jsons/v1_VE1000_randls_3.json,861332,1030858,49,Woman
54,931391,DepthScenes,duration_manipulation_targetAtFixation,jsons/v1_VE1000_randls_3.json,http://54.235.29.9/FacialAge/BNav_EC2/DepthDuration/v2_depth_duration_MTurk/v2_DepthDuration_HTML.html#152,152,1366,768,1366,768,8-22-2022,9-4-27,55,depth_duration_stimuli/000854_2014-06-09_19-43-13_260595134347_rgbf000066-resize_0/000854_2014-06-09_19-43-13_260595134347_rgbf000066-resize_0-target.png,1000,3.068,2,3446,1011,meters,jsons/v1_VE1000_randls_3.json,861332,1030858,49,Woman
55,931391,DepthScenes,duration_manipulation_targetAtFixation,jsons/v1_VE1000_randls_3.json,http://54.235.29.9/FacialAge/BNav_EC2/DepthDuration/v2_depth_duration_MTurk/v2_DepthDuration_HTML.html#152,152,1366,768,1366,768,8-22-2022,9-4-27,56,depth_duration_stimuli/001066_2014-06-08_22-03-20_260595134347_rgbf000066-resize_4/001066_2014-06-08_22-03-20_260595134347_rgbf000066-resize_4-target.png,1000,4.2330000000000005,3,3766,1000,meters,jsons/v1_VE1000_randls_3.json,861332,1030858,49,Woman
56,931391,DepthScenes,duration_manipulation_targetAtFixation,jsons/v1_VE1000_randls_3.json,http://54.235.29.9/FacialAge/BNav_EC2/DepthDuration/v2_depth_duration_MTurk/v2_DepthDuration_HTML.html#152,152,1366,768,1366,768,8-22-2022,9-4-27,57,depth_duration_stimuli/000742_2014-06-08_18-48-09_260595134347_rgbf000164-resize_4/000742_2014-06-08_18-48-09_260595134347_rgbf000164-resize_4-target.png,1000,4.632,4,5109,991,meters,jsons/v1_VE1000_randls_3.json,861332,1030858,49,Woman
57,931391,DepthScenes,duration_manipulation_targetAtFixation,jsons/v1_VE1000_randls_3.json,http://54.235.29.9/FacialAge/BNav_EC2/DepthDuration/v2_depth_duration_MTurk/v2_DepthDuration_HTML.html#152,152,1366,768,1366,768,8-22-2022,9-4-27,58,depth_duration_stimuli/000692_2014-06-08_13-09-42_260595134347_rgbf000199-resize_2/000692_2014-06-08_13-09-42_260595134347_rgbf000199-resize_2-target.png,1000,3.661,3,5812,1000,meters,jsons/v1_VE1000_randls_3.json,861332,1030858,49,Woman
58,931391,DepthScenes,duration_manipulation_targetAtFixation,jsons/v1_VE1000_randls_3.json,http://54.235.29.9/FacialAge/BNav_EC2/DepthDuration/v2_depth_duration_MTurk/v2_DepthDuration_HTML.html#152,152,1366,768,1366,768,8-22-2022,9-4-27,59,depth_duration_stimuli/001094_2014-06-15_17-36-00_260595134347_rgbf000205-resize_0/001094_2014-06-15_17-36-00_260595134347_rgbf000205-resize_0-target.png,1000,4.2175,2,5024,1010,meters,jsons/v1_VE1000_randls_3.json,861332,1030858,49,Woman
59,931391,DepthScenes,duration_manipulation_targetAtFixation,jsons/v1_VE1000_randls_3.json,http://54.235.29.9/FacialAge/BNav_EC2/DepthDuration/v2_depth_duration_MTurk/v2_DepthDuration_HTML.html#152,152,1366,768,1366,768,8-22-2022,9-4-27,60,depth_duration_stimuli/001158_2014-06-17_15-32-16_260595134347_rgbf000138-resize_2/001158_2014-06-17_15-32-16_260595134347_rgbf000138-resize_2-target.png,1000,4.5315,4,3385,990,meters,jsons/v1_VE1000_randls_3.json,861332,1030858,49,Woman
60,931391,DepthScenes,duration_manipulation_targetAtFixation,jsons/v1_VE1000_randls_3.json,http://54.235.29.9/FacialAge/BNav_EC2/DepthDuration/v2_depth_duration_MTurk/v2_DepthDuration_HTML.html#152,152,1366,768,1366,768,8-22-2022,9-4-27,61,depth_duration_stimuli/000556_2014-06-09_22-42-56_260595134347_rgbf000214-resize_1/000556_2014-06-09_22-42-56_260595134347_rgbf000214-resize_1-target.png,1000,4.8415,3,3107,1002,meters,jsons/v1_VE1000_randls_3.json,861332,1030858,49,Woman
61,931391,DepthScenes,duration_manipulation_targetAtFixation,jsons/v1_VE1000_randls_3.json,http://54.235.29.9/FacialAge/BNav_EC2/DepthDuration/v2_depth_duration_MTurk/v2_DepthDuration_HTML.html#152,152,1366,768,1366,768,8-22-2022,9-4-27,62,depth_duration_stimuli/001808_2014-06-26_20-50-58_260595134347_rgbf000029-resize_1/001808_2014-06-26_20-50-58_260595134347_rgbf000029-resize_1-target.png,1000,4.249,2,3273,1002,meters,jsons/v1_VE1000_randls_3.json,861332,1030858,49,Woman
62,931391,DepthScenes,duration_manipulation_targetAtFixation,jsons/v1_VE1000_randls_3.json,http://54.235.29.9/FacialAge/BNav_EC2/DepthDuration/v2_depth_duration_MTurk/v2_DepthDuration_HTML.html#152,152,1366,768,1366,768,8-22-2022,9-4-27,63,depth_duration_stimuli/001815_2014-06-26_20-52-55_260595134347_rgbf000020-resize_0/001815_2014-06-26_20-52-55_260595134347_rgbf000020-resize_0-target.png,1000,3.3865,4,3547,994,meters,jsons/v1_VE1000_randls_3.json,861332,1030858,49,Woman
63,931391,DepthScenes,duration_manipulation_targetAtFixation,jsons/v1_VE1000_randls_3.json,http://54.235.29.9/FacialAge/BNav_EC2/DepthDuration/v2_depth_duration_MTurk/v2_DepthDuration_HTML.html#152,152,1366,768,1366,768,8-22-2022,9-4-27,64,depth_duration_stimuli/003492_2014-05-21_15-50-55_094959634447_rgbf000828-resize_1/003492_2014-05-21_15-50-55_094959634447_rgbf000828-resize_1-target.png,1000,4.06875,3,6009,1000,meters,jsons/v1_VE1000_randls_3.json,861332,1030858,49,Woman
64,931391,DepthScenes,duration_manipulation_targetAtFixation,jsons/v1_VE1000_randls_3.json,http://54.235.29.9/FacialAge/BNav_EC2/DepthDuration/v2_depth_duration_MTurk/v2_DepthDuration_HTML.html#152,152,1366,768,1366,768,8-22-2022,9-4-27,65,depth_duration_stimuli/002568_2014-06-24_13-59-21_094959634447_rgbf000062-resize_4/002568_2014-06-24_13-59-21_094959634447_rgbf000062-resize_4-target.png,1000,3.015,2,3151,1002,meters,jsons/v1_VE1000_randls_3.json,861332,1030858,49,Woman
65,931391,DepthScenes,duration_manipulation_targetAtFixation,jsons/v1_VE1000_randls_3.json,http://54.235.29.9/FacialAge/BNav_EC2/DepthDuration/v2_depth_duration_MTurk/v2_DepthDuration_HTML.html#152,152,1366,768,1366,768,8-22-2022,9-4-27,66,depth_duration_stimuli/001222_2014-06-17_16-24-06_260595134347_rgbf000073-resize_0/001222_2014-06-17_16-24-06_260595134347_rgbf000073-resize-original.jpg,1000,1.4385,4,3077,998,meters,jsons/v1_VE1000_randls_3.json,861332,1030858,49,Woman
66,931391,DepthScenes,duration_manipulation_targetAtFixation,jsons/v1_VE1000_randls_3.json,http://54.235.29.9/FacialAge/BNav_EC2/DepthDuration/v2_depth_duration_MTurk/v2_DepthDuration_HTML.html#152,152,1366,768,1366,768,8-22-2022,9-4-27,67,depth_duration_stimuli/000470_2014-06-09_19-42-40_260595134347_rgbf000094-resize_1/000470_2014-06-09_19-42-40_260595134347_rgbf000094-resize_1-target.png,1000,1.831,3,3599,1047,meters,jsons/v1_VE1000_randls_3.json,861332,1030858,49,Woman
67,931391,DepthScenes,duration_manipulation_targetAtFixation,jsons/v1_VE1000_randls_3.json,http://54.235.29.9/FacialAge/BNav_EC2/DepthDuration/v2_depth_duration_MTurk/v2_DepthDuration_HTML.html#152,152,1366,768,1366,768,8-22-2022,9-4-27,68,depth_duration_stimuli/000109_2014-05-14_23-41-52_260595134347_rgbf000035-resize_9/000109_2014-05-14_23-41-52_260595134347_rgbf000035-resize_9-target.png,1000,1.3545,4,3839,1005,meters,jsons/v1_VE1000_randls_3.json,861332,1030858,49,Woman
68,931391,DepthScenes,duration_manipulation_targetAtFixation,jsons/v1_VE1000_randls_3.json,http://54.235.29.9/FacialAge/BNav_EC2/DepthDuration/v2_depth_duration_MTurk/v2_DepthDuration_HTML.html#152,152,1366,768,1366,768,8-22-2022,9-4-27,69,depth_duration_stimuli/001059_2014-06-08_21-53-27_260595134347_rgbf000061-resize_4/001059_2014-06-08_21-53-27_260595134347_rgbf000061-resize_4-target.png,1000,2.4185,2,3149,999,meters,jsons/v1_VE1000_randls_3.json,861332,1030858,49,Woman
69,931391,DepthScenes,duration_manipulation_targetAtFixation,jsons/v1_VE1000_randls_3.json,http://54.235.29.9/FacialAge/BNav_EC2/DepthDuration/v2_depth_duration_MTurk/v2_DepthDuration_HTML.html#152,152,1366,768,1366,768,8-22-2022,9-4-27,70,depth_duration_stimuli/001032_2014-06-08_13-23-17_260595134347_rgbf000021-resize_3/001032_2014-06-08_13-23-17_260595134347_rgbf000021-resize_3-target.png,1000,3.2725,1,4274,1005,meters,jsons/v1_VE1000_randls_3.json,861332,1030858,49,Woman
70,931391,DepthScenes,duration_manipulation_targetAtFixation,jsons/v1_VE1000_randls_3.json,http://54.235.29.9/FacialAge/BNav_EC2/DepthDuration/v2_depth_duration_MTurk/v2_DepthDuration_HTML.html#152,152,1366,768,1366,768,8-22-2022,9-4-27,71,depth_duration_stimuli/002663_2014-06-13_15-50-26_094959634447_rgbf000075-resize_1/002663_2014-06-13_15-50-26_094959634447_rgbf000075-resize_1-target.png,1000,4.7495,2,3439,1006,meters,jsons/v1_VE1000_randls_3.json,861332,1030858,49,Woman
71,931391,DepthScenes,duration_manipulation_targetAtFixation,jsons/v1_VE1000_randls_3.json,http://54.235.29.9/FacialAge/BNav_EC2/DepthDuration/v2_depth_duration_MTurk/v2_DepthDuration_HTML.html#152,152,1366,768,1366,768,8-22-2022,9-4-27,72,depth_duration_stimuli/000409_2014-06-04_19-23-33_260595134347_rgbf000067-resize_0/000409_2014-06-04_19-23-33_260595134347_rgbf000067-resize_0-target.png,1000,3.7335,5,3573,991,meters,jsons/v1_VE1000_randls_3.json,861332,1030858,49,Woman
72,931391,DepthScenes,duration_manipulation_targetAtFixation,jsons/v1_VE1000_randls_3.json,http://54.235.29.9/FacialAge/BNav_EC2/DepthDuration/v2_depth_duration_MTurk/v2_DepthDuration_HTML.html#152,152,1366,768,1366,768,8-22-2022,9-4-27,73,depth_duration_stimuli/002570_2014-06-24_13-59-54_094959634447_rgbf000059-resize_0/002570_2014-06-24_13-59-54_094959634447_rgbf000059-resize_0-target.png,1000,4.037,3,3784,938,meters,jsons/v1_VE1000_randls_3.json,861332,1030858,49,Woman
73,931391,DepthScenes,duration_manipulation_targetAtFixation,jsons/v1_VE1000_randls_3.json,http://54.235.29.9/FacialAge/BNav_EC2/DepthDuration/v2_depth_duration_MTurk/v2_DepthDuration_HTML.html#152,152,1366,768,1366,768,8-22-2022,9-4-27,74,depth_duration_stimuli/002467_2014-06-28_20-38-07_260595134347_rgbf000026-resize_2/002467_2014-06-28_20-38-07_260595134347_rgbf000026-resize_2-target.png,1000,4.742,2,4293,992,meters,jsons/v1_VE1000_randls_3.json,861332,1030858,49,Woman
74,931391,DepthScenes,duration_manipulation_targetAtFixation,jsons/v1_VE1000_randls_3.json,http://54.235.29.9/FacialAge/BNav_EC2/DepthDuration/v2_depth_duration_MTurk/v2_DepthDuration_HTML.html#152,152,1366,768,1366,768,8-22-2022,9-4-27,75,depth_duration_stimuli/001092_2014-06-15_17-34-58_260595134347_rgbf000171-resize_3/001092_2014-06-15_17-34-58_260595134347_rgbf000171-resize_3-target.png,1000,2.6935,3,3486,1001,meters,jsons/v1_VE1000_randls_3.json,861332,1030858,49,Woman
75,931391,DepthScenes,duration_manipulation_targetAtFixation,jsons/v1_VE1000_randls_3.json,http://54.235.29.9/FacialAge/BNav_EC2/DepthDuration/v2_depth_duration_MTurk/v2_DepthDuration_HTML.html#152,152,1366,768,1366,768,8-22-2022,9-4-27,76,depth_duration_stimuli/002545_2014-06-24_13-38-53_094959634447_rgbf000080-resize_4/002545_2014-06-24_13-38-53_094959634447_rgbf000080-resize_4-target.png,1000,1.9205,4,3094,995,meters,jsons/v1_VE1000_randls_3.json,861332,1030858,49,Woman
76,931391,DepthScenes,duration_manipulation_targetAtFixation,jsons/v1_VE1000_randls_3.json,http://54.235.29.9/FacialAge/BNav_EC2/DepthDuration/v2_depth_duration_MTurk/v2_DepthDuration_HTML.html#152,152,1366,768,1366,768,8-22-2022,9-4-27,77,depth_duration_stimuli/001150_2014-06-17_15-27-34_260595134347_rgbf000108-resize_2/001150_2014-06-17_15-27-34_260595134347_rgbf000108-resize_2-target.png,1000,4.0325,2,3363,1007,meters,jsons/v1_VE1000_randls_3.json,861332,1030858,49,Woman
77,931391,DepthScenes,duration_manipulation_targetAtFixation,jsons/v1_VE1000_randls_3.json,http://54.235.29.9/FacialAge/BNav_EC2/DepthDuration/v2_depth_duration_MTurk/v2_DepthDuration_HTML.html#152,152,1366,768,1366,768,8-22-2022,9-4-27,78,depth_duration_stimuli/000665_2014-06-09_20-42-35_260595134347_rgbf000110-resize_1/000665_2014-06-09_20-42-35_260595134347_rgbf000110-resize_1-target.png,1000,3.057,4,3655,1001,meters,jsons/v1_VE1000_randls_3.json,861332,1030858,49,Woman
78,931391,DepthScenes,duration_manipulation_targetAtFixation,jsons/v1_VE1000_randls_3.json,http://54.235.29.9/FacialAge/BNav_EC2/DepthDuration/v2_depth_duration_MTurk/v2_DepthDuration_HTML.html#152,152,1366,768,1366,768,8-22-2022,9-4-27,79,depth_duration_stimuli/001011_2014-06-08_23-18-54_260595134347_rgbf000044-resize_4/001011_2014-06-08_23-18-54_260595134347_rgbf000044-resize_4-target.png,1000,2.4730000000000003,3,3584,1003,meters,jsons/v1_VE1000_randls_3.json,861332,1030858,49,Woman
79,931391,DepthScenes,duration_manipulation_targetAtFixation,jsons/v1_VE1000_randls_3.json,http://54.235.29.9/FacialAge/BNav_EC2/DepthDuration/v2_depth_duration_MTurk/v2_DepthDuration_HTML.html#152,152,1366,768,1366,768,8-22-2022,9-4-27,80,depth_duration_stimuli/002875_2014-06-01_15-19-00_094959634447_rgbf000151-resize_1/002875_2014-06-01_15-19-00_094959634447_rgbf000151-resize_1-target.png,1000,1.9675,1,4556,1012,meters,jsons/v1_VE1000_randls_3.json,861332,1030858,49,Woman
80,931391,DepthScenes,duration_manipulation_targetAtFixation,jsons/v1_VE1000_randls_3.json,http://54.235.29.9/FacialAge/BNav_EC2/DepthDuration/v2_depth_duration_MTurk/v2_DepthDuration_HTML.html#152,152,1366,768,1366,768,8-22-2022,9-4-27,81,depth_duration_stimuli/000486_2014-06-09_20-47-20_260595134347_rgbf000143-resize_2/000486_2014-06-09_20-47-20_260595134347_rgbf000143-resize_2-target.png,1000,4.8325,3,3494,1000,meters,jsons/v1_VE1000_randls_3.json,861332,1030858,49,Woman
81,931391,DepthScenes,duration_manipulation_targetAtFixation,jsons/v1_VE1000_randls_3.json,http://54.235.29.9/FacialAge/BNav_EC2/DepthDuration/v2_depth_duration_MTurk/v2_DepthDuration_HTML.html#152,152,1366,768,1366,768,8-22-2022,9-4-27,82,depth_duration_stimuli/003083_2014-06-15_15-21-03_094959634447_rgbf000063-resize_1/003083_2014-06-15_15-21-03_094959634447_rgbf000063-resize_1-target.png,1000,4.1405,3,5294,986,meters,jsons/v1_VE1000_randls_3.json,861332,1030858,49,Woman
82,931391,DepthScenes,duration_manipulation_targetAtFixation,jsons/v1_VE1000_randls_3.json,http://54.235.29.9/FacialAge/BNav_EC2/DepthDuration/v2_depth_duration_MTurk/v2_DepthDuration_HTML.html#152,152,1366,768,1366,768,8-22-2022,9-4-27,83,depth_duration_stimuli/001244_2014-06-17_16-47-45_260595134347_rgbf000030-resize_4/001244_2014-06-17_16-47-45_260595134347_rgbf000030-resize_4-target.png,1000,2.0425,2,13516,991,meters,jsons/v1_VE1000_randls_3.json,861332,1030858,49,Woman
83,931391,DepthScenes,duration_manipulation_targetAtFixation,jsons/v1_VE1000_randls_3.json,http://54.235.29.9/FacialAge/BNav_EC2/DepthDuration/v2_depth_duration_MTurk/v2_DepthDuration_HTML.html#152,152,1366,768,1366,768,8-22-2022,9-4-27,84,depth_duration_stimuli/003495_2014-05-21_16-01-51_094959634447_rgbf000100-resize_3/003495_2014-05-21_16-01-51_094959634447_rgbf000100-resize_3-target.png,1000,1.6255,3,6134,1000,meters,jsons/v1_VE1000_randls_3.json,861332,1030858,49,Woman
84,931391,DepthScenes,duration_manipulation_targetAtFixation,jsons/v1_VE1000_randls_3.json,http://54.235.29.9/FacialAge/BNav_EC2/DepthDuration/v2_depth_duration_MTurk/v2_DepthDuration_HTML.html#152,152,1366,768,1366,768,8-22-2022,9-4-27,85,depth_duration_stimuli/002630_2014-06-24_14-47-50_094959634447_rgbf000055-resize_1/002630_2014-06-24_14-47-50_094959634447_rgbf000055-resize_1-target.png,1000,3.0095,2,4430,1009,meters,jsons/v1_VE1000_randls_3.json,861332,1030858,49,Woman
85,931391,DepthScenes,duration_manipulation_targetAtFixation,jsons/v1_VE1000_randls_3.json,http://54.235.29.9/FacialAge/BNav_EC2/DepthDuration/v2_depth_duration_MTurk/v2_DepthDuration_HTML.html#152,152,1366,768,1366,768,8-22-2022,9-4-27,86,depth_duration_stimuli/002758_2014-06-22_19-11-20_094959634447_rgbf000128-resize_1/002758_2014-06-22_19-11-20_094959634447_rgbf000128-resize_1-target.png,1000,2.555,3,3697,998,meters,jsons/v1_VE1000_randls_3.json,861332,1030858,49,Woman
86,931391,DepthScenes,duration_manipulation_targetAtFixation,jsons/v1_VE1000_randls_3.json,http://54.235.29.9/FacialAge/BNav_EC2/DepthDuration/v2_depth_duration_MTurk/v2_DepthDuration_HTML.html#152,152,1366,768,1366,768,8-22-2022,9-4-27,87,depth_duration_stimuli/002279_2014-06-28_18-55-32_260595134347_rgbf000040-resize_5/002279_2014-06-28_18-55-32_260595134347_rgbf000040-resize_5-target.png,1000,1.5043333333333,5,9379,999,meters,jsons/v1_VE1000_randls_3.json,861332,1030858,49,Woman
87,931391,DepthScenes,duration_manipulation_targetAtFixation,jsons/v1_VE1000_randls_3.json,http://54.235.29.9/FacialAge/BNav_EC2/DepthDuration/v2_depth_duration_MTurk/v2_DepthDuration_HTML.html#152,152,1366,768,1366,768,8-22-2022,9-4-27,88,depth_duration_stimuli/000635_2014-06-08_16-38-42_260595134347_rgbf000106-resize_1/000635_2014-06-08_16-38-42_260595134347_rgbf000106-resize_1-target.png,1000,2.074,2,4397,1012,meters,jsons/v1_VE1000_randls_3.json,861332,1030858,49,Woman
88,931391,DepthScenes,duration_manipulation_targetAtFixation,jsons/v1_VE1000_randls_3.json,http://54.235.29.9/FacialAge/BNav_EC2/DepthDuration/v2_depth_duration_MTurk/v2_DepthDuration_HTML.html#152,152,1366,768,1366,768,8-22-2022,9-4-27,89,depth_duration_stimuli/002213_2014-06-28_18-37-58_260595134347_rgbf000055-resize_1/002213_2014-06-28_18-37-58_260595134347_rgbf000055-resize_1-target.png,1000,3.62,3,3969,988,meters,jsons/v1_VE1000_randls_3.json,861332,1030858,49,Woman
89,931391,DepthScenes,duration_manipulation_targetAtFixation,jsons/v1_VE1000_randls_3.json,http://54.235.29.9/FacialAge/BNav_EC2/DepthDuration/v2_depth_duration_MTurk/v2_DepthDuration_HTML.html#152,152,1366,768,1366,768,8-22-2022,9-4-27,90,depth_duration_stimuli/000691_2014-06-08_13-08-50_260595134347_rgbf000132-resize_3/000691_2014-06-08_13-08-50_260595134347_rgbf000132-resize_3-target.png,1000,4.1530000000000005,1,3536,999,meters,jsons/v1_VE1000_randls_3.json,861332,1030858,49,Woman
90,931391,DepthScenes,duration_manipulation_targetAtFixation,jsons/v1_VE1000_randls_3.json,http://54.235.29.9/FacialAge/BNav_EC2/DepthDuration/v2_depth_duration_MTurk/v2_DepthDuration_HTML.html#152,152,1366,768,1366,768,8-22-2022,9-4-27,91,depth_duration_stimuli/000642_2014-06-08_16-59-25_260595134347_rgbf000098-resize_2/000642_2014-06-08_16-59-25_260595134347_rgbf000098-resize_2-target.png,1000,2.8815,2,3742,1000,meters,jsons/v1_VE1000_randls_3.json,861332,1030858,49,Woman
91,931391,DepthScenes,duration_manipulation_targetAtFixation,jsons/v1_VE1000_randls_3.json,http://54.235.29.9/FacialAge/BNav_EC2/DepthDuration/v2_depth_duration_MTurk/v2_DepthDuration_HTML.html#152,152,1366,768,1366,768,8-22-2022,9-4-27,92,depth_duration_stimuli/002425_2014-06-28_20-27-29_260595134347_rgbf000031-resize_8/002425_2014-06-28_20-27-29_260595134347_rgbf000031-resize_8-target.png,1000,3.8960000000000004,4,3771,996,meters,jsons/v1_VE1000_randls_3.json,861332,1030858,49,Woman
92,931391,DepthScenes,duration_manipulation_targetAtFixation,jsons/v1_VE1000_randls_3.json,http://54.235.29.9/FacialAge/BNav_EC2/DepthDuration/v2_depth_duration_MTurk/v2_DepthDuration_HTML.html#152,152,1366,768,1366,768,8-22-2022,9-4-27,93,depth_duration_stimuli/003621_2014-05-23_18-06-08_094959634447_rgbf000101-resize_1/003621_2014-05-23_18-06-08_094959634447_rgbf000101-resize_1-target.png,1000,3.9835,5,3367,992,meters,jsons/v1_VE1000_randls_3.json,861332,1030858,49,Woman
93,931391,DepthScenes,duration_manipulation_targetAtFixation,jsons/v1_VE1000_randls_3.json,http://54.235.29.9/FacialAge/BNav_EC2/DepthDuration/v2_depth_duration_MTurk/v2_DepthDuration_HTML.html#152,152,1366,768,1366,768,8-22-2022,9-4-27,94,depth_duration_stimuli/001584_2014-06-20_11-07-43_260595134347_rgbf000002-resize_1/001584_2014-06-20_11-07-43_260595134347_rgbf000002-resize_1-target.png,1000,3.53,4,3145,994,meters,jsons/v1_VE1000_randls_3.json,861332,1030858,49,Woman
94,931391,DepthScenes,duration_manipulation_targetAtFixation,jsons/v1_VE1000_randls_3.json,http://54.235.29.9/FacialAge/BNav_EC2/DepthDuration/v2_depth_duration_MTurk/v2_DepthDuration_HTML.html#152,152,1366,768,1366,768,8-22-2022,9-4-27,95,depth_duration_stimuli/000878_2014-06-08_22-52-45_260595134347_rgbf000045-resize_2/000878_2014-06-08_22-52-45_260595134347_rgbf000045-resize_2-target.png,1000,2.092,5,3438,994,meters,jsons/v1_VE1000_randls_3.json,861332,1030858,49,Woman
95,931391,DepthScenes,duration_manipulation_targetAtFixation,jsons/v1_VE1000_randls_3.json,http://54.235.29.9/FacialAge/BNav_EC2/DepthDuration/v2_depth_duration_MTurk/v2_DepthDuration_HTML.html#152,152,1366,768,1366,768,8-22-2022,9-4-27,96,depth_duration_stimuli/002953_2014-06-08_17-32-18_094959634447_rgbf000059-resize_5/002953_2014-06-08_17-32-18_094959634447_rgbf000059-resize_5-target.png,1000,1.551,3,3245,1036,meters,jsons/v1_VE1000_randls_3.json,861332,1030858,49,Woman
96,931391,DepthScenes,duration_manipulation_targetAtFixation,jsons/v1_VE1000_randls_3.json,http://54.235.29.9/FacialAge/BNav_EC2/DepthDuration/v2_depth_duration_MTurk/v2_DepthDuration_HTML.html#152,152,1366,768,1366,768,8-22-2022,9-4-27,97,depth_duration_stimuli/000447_2014-06-08_16-15-46_260595134347_rgbf000130-resize_1/000447_2014-06-08_16-15-46_260595134347_rgbf000130-resize_1-target.png,1000,4.479,5,3251,1076,meters,jsons/v1_VE1000_randls_3.json,861332,1030858,49,Woman
97,931391,DepthScenes,duration_manipulation_targetAtFixation,jsons/v1_VE1000_randls_3.json,http://54.235.29.9/FacialAge/BNav_EC2/DepthDuration/v2_depth_duration_MTurk/v2_DepthDuration_HTML.html#152,152,1366,768,1366,768,8-22-2022,9-4-27,98,depth_duration_stimuli/001447_2014-06-19_17-00-32_260595134347_rgbf000082-resize_5/001447_2014-06-19_17-00-32_260595134347_rgbf000082-resize_5-target.png,1000,4.13775,4,3917,1057,meters,jsons/v1_VE1000_randls_3.json,861332,1030858,49,Woman
98,931391,DepthScenes,duration_manipulation_targetAtFixation,jsons/v1_VE1000_randls_3.json,http://54.235.29.9/FacialAge/BNav_EC2/DepthDuration/v2_depth_duration_MTurk/v2_DepthDuration_HTML.html#152,152,1366,768,1366,768,8-22-2022,9-4-27,99,depth_duration_stimuli/001540_2014-06-20_17-01-05_260595134347_rgbf000086-resize_2/001540_2014-06-20_17-01-05_260595134347_rgbf000086-resize-original.jpg,1000,1.459,2,3398,1009,meters,jsons/v1_VE1000_randls_3.json,861332,1030858,49,Woman
99,931391,DepthScenes,duration_manipulation_targetAtFixation,jsons/v1_VE1000_randls_3.json,http://54.235.29.9/FacialAge/BNav_EC2/DepthDuration/v2_depth_duration_MTurk/v2_DepthDuration_HTML.html#152,152,1366,768,1366,768,8-22-2022,9-4-27,100,depth_duration_stimuli/000929_2014-06-09_16-33-19_260595134347_rgbf000139-resize_0/000929_2014-06-09_16-33-19_260595134347_rgbf000139-resize_0-target.png,1000,2.8680000000000003,5,3879,1013,meters,jsons/v1_VE1000_randls_3.json,861332,1030858,49,Woman
100,931391,DepthScenes,duration_manipulation_targetAtFixation,jsons/v1_VE1000_randls_3.json,http://54.235.29.9/FacialAge/BNav_EC2/DepthDuration/v2_depth_duration_MTurk/v2_DepthDuration_HTML.html#152,152,1366,768,1366,768,8-22-2022,9-4-27,101,depth_duration_stimuli/000457_2014-06-08_16-52-43_260595134347_rgbf000199-resize_1/000457_2014-06-08_16-52-43_260595134347_rgbf000199-resize_1-target.png,1000,3.6489999999999996,2,3738,999,meters,jsons/v1_VE1000_randls_3.json,861332,1030858,49,Woman
101,931391,DepthScenes,duration_manipulation_targetAtFixation,jsons/v1_VE1000_randls_3.json,http://54.235.29.9/FacialAge/BNav_EC2/DepthDuration/v2_depth_duration_MTurk/v2_DepthDuration_HTML.html#152,152,1366,768,1366,768,8-22-2022,9-4-27,102,depth_duration_stimuli/002964_2014-06-08_17-46-11_094959634447_rgbf000091-resize_4/002964_2014-06-08_17-46-11_094959634447_rgbf000091-resize_4-target.png,1000,1.6909999999999998,4,3792,997,meters,jsons/v1_VE1000_randls_3.json,861332,1030858,49,Woman
102,931391,DepthScenes,duration_manipulation_targetAtFixation,jsons/v1_VE1000_randls_3.json,http://54.235.29.9/FacialAge/BNav_EC2/DepthDuration/v2_depth_duration_MTurk/v2_DepthDuration_HTML.html#152,152,1366,768,1366,768,8-22-2022,9-4-27,103,depth_duration_stimuli/002136_2014-06-25_21-18-03_260595134347_rgbf000109-resize_3/002136_2014-06-25_21-18-03_260595134347_rgbf000109-resize_3-target.png,1000,1.9569999999999999,5,3356,982,meters,jsons/v1_VE1000_randls_3.json,861332,1030858,49,Woman
103,931391,DepthScenes,duration_manipulation_targetAtFixation,jsons/v1_VE1000_randls_3.json,http://54.235.29.9/FacialAge/BNav_EC2/DepthDuration/v2_depth_duration_MTurk/v2_DepthDuration_HTML.html#152,152,1366,768,1366,768,8-22-2022,9-4-27,104,depth_duration_stimuli/000917_2014-06-09_22-45-29_260595134347_rgbf000149-resize_3/000917_2014-06-09_22-45-29_260595134347_rgbf000149-resize_3-target.png,1000,4.1865,6,7132,991,meters,jsons/v1_VE1000_randls_3.json,861332,1030858,49,Woman
104,931391,DepthScenes,duration_manipulation_targetAtFixation,jsons/v1_VE1000_randls_3.json,http://54.235.29.9/FacialAge/BNav_EC2/DepthDuration/v2_depth_duration_MTurk/v2_DepthDuration_HTML.html#152,152,1366,768,1366,768,8-22-2022,9-4-27,105,depth_duration_stimuli/002323_2014-06-28_20-01-54_260595134347_rgbf000051-resize_4/002323_2014-06-28_20-01-54_260595134347_rgbf000051-resize_4-target.png,1000,3.7310000000000003,2,3473,998,meters,jsons/v1_VE1000_randls_3.json,861332,1030858,49,Woman
105,931391,DepthScenes,duration_manipulation_targetAtFixation,jsons/v1_VE1000_randls_3.json,http://54.235.29.9/FacialAge/BNav_EC2/DepthDuration/v2_depth_duration_MTurk/v2_DepthDuration_HTML.html#152,152,1366,768,1366,768,8-22-2022,9-4-27,106,depth_duration_stimuli/001199_2014-06-17_16-03-48_260595134347_rgbf000077-resize_0/001199_2014-06-17_16-03-48_260595134347_rgbf000077-resize_0-target.png,1000,3.4375,5,4265,986,meters,jsons/v1_VE1000_randls_3.json,861332,1030858,49,Woman
106,931391,DepthScenes,duration_manipulation_targetAtFixation,jsons/v1_VE1000_randls_3.json,http://54.235.29.9/FacialAge/BNav_EC2/DepthDuration/v2_depth_duration_MTurk/v2_DepthDuration_HTML.html#152,152,1366,768,1366,768,8-22-2022,9-4-27,107,depth_duration_stimuli/000502_2014-06-08_23-02-32_260595134347_rgbf000063-resize_4/000502_2014-06-08_23-02-32_260595134347_rgbf000063-resize_4-target.png,1000,2.431,6,4335,995,meters,jsons/v1_VE1000_randls_3.json,861332,1030858,49,Woman
107,931391,DepthScenes,duration_manipulation_targetAtFixation,jsons/v1_VE1000_randls_3.json,http://54.235.29.9/FacialAge/BNav_EC2/DepthDuration/v2_depth_duration_MTurk/v2_DepthDuration_HTML.html#152,152,1366,768,1366,768,8-22-2022,9-4-27,108,depth_duration_stimuli/001555_2014-06-20_17-12-10_260595134347_rgbf000065-resize_4/001555_2014-06-20_17-12-10_260595134347_rgbf000065-resize_4-target.png,1000,1.633,3,3544,1003,meters,jsons/v1_VE1000_randls_3.json,861332,1030858,49,Woman
108,931391,DepthScenes,duration_manipulation_targetAtFixation,jsons/v1_VE1000_randls_3.json,http://54.235.29.9/FacialAge/BNav_EC2/DepthDuration/v2_depth_duration_MTurk/v2_DepthDuration_HTML.html#152,152,1366,768,1366,768,8-22-2022,9-4-27,109,depth_duration_stimuli/000103_2014-05-14_22-01-17_260595134347_rgbf000152-resize_5/000103_2014-05-14_22-01-17_260595134347_rgbf000152-resize_5-target.png,1000,1.993,5,3547,993,meters,jsons/v1_VE1000_randls_3.json,861332,1030858,49,Woman
109,931391,DepthScenes,duration_manipulation_targetAtFixation,jsons/v1_VE1000_randls_3.json,http://54.235.29.9/FacialAge/BNav_EC2/DepthDuration/v2_depth_duration_MTurk/v2_DepthDuration_HTML.html#152,152,1366,768,1366,768,8-22-2022,9-4-27,110,depth_duration_stimuli/000436_2014-06-09_22-25-11_260595134347_rgbf000137-resize_1/000436_2014-06-09_22-25-11_260595134347_rgbf000137-resize_1-target.png,1000,4.0705,6,3637,1003,meters,jsons/v1_VE1000_randls_3.json,861332,1030858,49,Woman
110,931391,DepthScenes,duration_manipulation_targetAtFixation,jsons/v1_VE1000_randls_3.json,http://54.235.29.9/FacialAge/BNav_EC2/DepthDuration/v2_depth_duration_MTurk/v2_DepthDuration_HTML.html#152,152,1366,768,1366,768,8-22-2022,9-4-27,111,depth_duration_stimuli/002444_2014-06-28_20-32-08_260595134347_rgbf000027-resize_0/002444_2014-06-28_20-32-08_260595134347_rgbf000027-resize_0-target.png,1000,4.388999999999999,2,3559,1000,meters,jsons/v1_VE1000_randls_3.json,861332,1030858,49,Woman
111,931391,DepthScenes,duration_manipulation_targetAtFixation,jsons/v1_VE1000_randls_3.json,http://54.235.29.9/FacialAge/BNav_EC2/DepthDuration/v2_depth_duration_MTurk/v2_DepthDuration_HTML.html#152,152,1366,768,1366,768,8-22-2022,9-4-27,112,depth_duration_stimuli/002725_2014-06-22_11-47-51_094959634447_rgbf000070-resize_1/002725_2014-06-22_11-47-51_094959634447_rgbf000070-resize_1-target.png,1000,2.195,6,3697,995,meters,jsons/v1_VE1000_randls_3.json,861332,1030858,49,Woman
112,931391,DepthScenes,duration_manipulation_targetAtFixation,jsons/v1_VE1000_randls_3.json,http://54.235.29.9/FacialAge/BNav_EC2/DepthDuration/v2_depth_duration_MTurk/v2_DepthDuration_HTML.html#152,152,1366,768,1366,768,8-22-2022,9-4-27,113,depth_duration_stimuli/002344_2014-06-28_20-06-29_260595134347_rgbf000030-resize_1/002344_2014-06-28_20-06-29_260595134347_rgbf000030-resize_1-target.png,1000,1.5795,5,6654,991,meters,jsons/v1_VE1000_randls_3.json,861332,1030858,49,Woman
113,931391,DepthScenes,duration_manipulation_targetAtFixation,jsons/v1_VE1000_randls_3.json,http://54.235.29.9/FacialAge/BNav_EC2/DepthDuration/v2_depth_duration_MTurk/v2_DepthDuration_HTML.html#152,152,1366,768,1366,768,8-22-2022,9-4-27,114,depth_duration_stimuli/000739_2014-06-08_18-45-58_260595134347_rgbf000068-resize_1/000739_2014-06-08_18-45-58_260595134347_rgbf000068-resize_1-target.png,1000,3.534,4,13155,993,meters,jsons/v1_VE1000_randls_3.json,861332,1030858,49,Woman
114,931391,DepthScenes,duration_manipulation_targetAtFixation,jsons/v1_VE1000_randls_3.json,http://54.235.29.9/FacialAge/BNav_EC2/DepthDuration/v2_depth_duration_MTurk/v2_DepthDuration_HTML.html#152,152,1366,768,1366,768,8-22-2022,9-4-27,115,depth_duration_stimuli/000734_2014-06-08_17-39-11_260595134347_rgbf000128-resize_2/000734_2014-06-08_17-39-11_260595134347_rgbf000128-resize_2-target.png,1000,4.098,62,4636,1013,meters,jsons/v1_VE1000_randls_3.json,861332,1030858,49,Woman
115,931391,DepthScenes,duration_manipulation_targetAtFixation,jsons/v1_VE1000_randls_3.json,http://54.235.29.9/FacialAge/BNav_EC2/DepthDuration/v2_depth_duration_MTurk/v2_DepthDuration_HTML.html#152,152,1366,768,1366,768,8-22-2022,9-4-27,116,depth_duration_stimuli/001170_2014-06-17_15-43-44_260595134347_rgbf000096-resize_6/001170_2014-06-17_15-43-44_260595134347_rgbf000096-resize-original.jpg,1000,1.1909999999999998,3,3915,995,meters,jsons/v1_VE1000_randls_3.json,861332,1030858,49,Woman
116,931391,DepthScenes,duration_manipulation_targetAtFixation,jsons/v1_VE1000_randls_3.json,http://54.235.29.9/FacialAge/BNav_EC2/DepthDuration/v2_depth_duration_MTurk/v2_DepthDuration_HTML.html#152,152,1366,768,1366,768,8-22-2022,9-4-27,117,depth_duration_stimuli/001175_2014-06-17_15-45-55_260595134347_rgbf000129-resize_4/001175_2014-06-17_15-45-55_260595134347_rgbf000129-resize_4-target.png,1000,4.255,2,4119,998,meters,jsons/v1_VE1000_randls_3.json,861332,1030858,49,Woman
117,931391,DepthScenes,duration_manipulation_targetAtFixation,jsons/v1_VE1000_randls_3.json,http://54.235.29.9/FacialAge/BNav_EC2/DepthDuration/v2_depth_duration_MTurk/v2_DepthDuration_HTML.html#152,152,1366,768,1366,768,8-22-2022,9-4-27,118,depth_duration_stimuli/003490_2014-05-21_15-50-11_094959634447_rgbf000101-resize_3/003490_2014-05-21_15-50-11_094959634447_rgbf000101-resize_3-target.png,1000,3.6445,3,3310,990,meters,jsons/v1_VE1000_randls_3.json,861332,1030858,49,Woman
118,931391,DepthScenes,duration_manipulation_targetAtFixation,jsons/v1_VE1000_randls_3.json,http://54.235.29.9/FacialAge/BNav_EC2/DepthDuration/v2_depth_duration_MTurk/v2_DepthDuration_HTML.html#152,152,1366,768,1366,768,8-22-2022,9-4-27,119,depth_duration_stimuli/002375_2014-06-28_20-13-44_260595134347_rgbf000032-resize_1/002375_2014-06-28_20-13-44_260595134347_rgbf000032-resize_1-target.png,1000,4.0175,4,4943,992,meters,jsons/v1_VE1000_randls_3.json,861332,1030858,49,Woman
119,931391,DepthScenes,duration_manipulation_targetAtFixation,jsons/v1_VE1000_randls_3.json,http://54.235.29.9/FacialAge/BNav_EC2/DepthDuration/v2_depth_duration_MTurk/v2_DepthDuration_HTML.html#152,152,1366,768,1366,768,8-22-2022,9-4-27,120,depth_duration_stimuli/002657_2014-06-13_15-29-54_094959634447_rgbf000150-resize_1/002657_2014-06-13_15-29-54_094959634447_rgbf000150-resize_1-target.png,1000,4.919,3,3858,993,meters,jsons/v1_VE1000_randls_3.json,861332,1030858,49,Woman
120,931391,DepthScenes,duration_manipulation_targetAtFixation,jsons/v1_VE1000_randls_3.json,http://54.235.29.9/FacialAge/BNav_EC2/DepthDuration/v2_depth_duration_MTurk/v2_DepthDuration_HTML.html#152,152,1366,768,1366,768,8-22-2022,9-4-27,121,depth_duration_stimuli/001016_2014-06-09_16-16-10_260595134347_rgbf000112-resize_5/001016_2014-06-09_16-16-10_260595134347_rgbf000112-resize_5-target.png,1000,1.6565,2,3903,1010,meters,jsons/v1_VE1000_randls_3.json,861332,1030858,49,Woman
121,931391,DepthScenes,duration_manipulation_targetAtFixation,jsons/v1_VE1000_randls_3.json,http://54.235.29.9/FacialAge/BNav_EC2/DepthDuration/v2_depth_duration_MTurk/v2_DepthDuration_HTML.html#152,152,1366,768,1366,768,8-22-2022,9-4-27,122,depth_duration_stimuli/002340_2014-06-28_20-05-46_260595134347_rgbf000113-resize_0/002340_2014-06-28_20-05-46_260595134347_rgbf000113-resize_0-target.png,1000,2.4735,6,3815,1090,meters,jsons/v1_VE1000_randls_3.json,861332,1030858,49,Woman
122,931391,DepthScenes,duration_manipulation_targetAtFixation,jsons/v1_VE1000_randls_3.json,http://54.235.29.9/FacialAge/BNav_EC2/DepthDuration/v2_depth_duration_MTurk/v2_DepthDuration_HTML.html#152,152,1366,768,1366,768,8-22-2022,9-4-27,123,depth_duration_stimuli/000506_2014-06-08_23-21-00_260595134347_rgbf000070-resize_7/000506_2014-06-08_23-21-00_260595134347_rgbf000070-resize_7-target.png,1000,4.0585,5,3498,1004,meters,jsons/v1_VE1000_randls_3.json,861332,1030858,49,Woman
123,931391,DepthScenes,duration_manipulation_targetAtFixation,jsons/v1_VE1000_randls_3.json,http://54.235.29.9/FacialAge/BNav_EC2/DepthDuration/v2_depth_duration_MTurk/v2_DepthDuration_HTML.html#152,152,1366,768,1366,768,8-22-2022,9-4-27,124,depth_duration_stimuli/003079_2014-06-15_15-18-20_094959634447_rgbf000152-resize_8/003079_2014-06-15_15-18-20_094959634447_rgbf000152-resize_8-target.png,1000,2.8775,4,4284,992,meters,jsons/v1_VE1000_randls_3.json,861332,1030858,49,Woman
124,931391,DepthScenes,duration_manipulation_targetAtFixation,jsons/v1_VE1000_randls_3.json,http://54.235.29.9/FacialAge/BNav_EC2/DepthDuration/v2_depth_duration_MTurk/v2_DepthDuration_HTML.html#152,152,1366,768,1366,768,8-22-2022,9-4-27,125,depth_duration_stimuli/000493_2014-06-09_21-01-18_260595134347_rgbf000196-resize_3/000493_2014-06-09_21-01-18_260595134347_rgbf000196-resize_3-target.png,1000,3.44,3,3786,997,meters,jsons/v1_VE1000_randls_3.json,861332,1030858,49,Woman
125,931391,DepthScenes,duration_manipulation_targetAtFixation,jsons/v1_VE1000_randls_3.json,http://54.235.29.9/FacialAge/BNav_EC2/DepthDuration/v2_depth_duration_MTurk/v2_DepthDuration_HTML.html#152,152,1366,768,1366,768,8-22-2022,9-4-27,126,depth_duration_stimuli/000191_2014-05-12_17-07-38_260595134347_rgbf000199-resize_0/000191_2014-05-12_17-07-38_260595134347_rgbf000199-resize_0-target.png,1000,3.7995,4,3989,1004,meters,jsons/v1_VE1000_randls_3.json,861332,1030858,49,Woman
126,931391,DepthScenes,duration_manipulation_targetAtFixation,jsons/v1_VE1000_randls_3.json,http://54.235.29.9/FacialAge/BNav_EC2/DepthDuration/v2_depth_duration_MTurk/v2_DepthDuration_HTML.html#152,152,1366,768,1366,768,8-22-2022,9-4-27,127,depth_duration_stimuli/002763_2014-06-22_19-13-10_094959634447_rgbf000075-resize_4/002763_2014-06-22_19-13-10_094959634447_rgbf000075-resize_4-target.png,1000,1.68375,4,3840,999,meters,jsons/v1_VE1000_randls_3.json,861332,1030858,49,Woman
127,931391,DepthScenes,duration_manipulation_targetAtFixation,jsons/v1_VE1000_randls_3.json,http://54.235.29.9/FacialAge/BNav_EC2/DepthDuration/v2_depth_duration_MTurk/v2_DepthDuration_HTML.html#152,152,1366,768,1366,768,8-22-2022,9-4-27,128,depth_duration_stimuli/002209_2014-06-28_18-36-10_260595134347_rgbf000051-resize_1/002209_2014-06-28_18-36-10_260595134347_rgbf000051-resize_1-target.png,1000,2.057,2,3571,993,meters,jsons/v1_VE1000_randls_3.json,861332,1030858,49,Woman
128,931391,DepthScenes,duration_manipulation_targetAtFixation,jsons/v1_VE1000_randls_3.json,http://54.235.29.9/FacialAge/BNav_EC2/DepthDuration/v2_depth_duration_MTurk/v2_DepthDuration_HTML.html#152,152,1366,768,1366,768,8-22-2022,9-4-27,129,depth_duration_stimuli/003292_2014-05-14_21-53-49_094959634447_rgbf000100-resize_2/003292_2014-05-14_21-53-49_094959634447_rgbf000100-resize_2-target.png,1000,3.4815,6,3748,990,meters,jsons/v1_VE1000_randls_3.json,861332,1030858,49,Woman
129,931391,DepthScenes,duration_manipulation_targetAtFixation,jsons/v1_VE1000_randls_3.json,http://54.235.29.9/FacialAge/BNav_EC2/DepthDuration/v2_depth_duration_MTurk/v2_DepthDuration_HTML.html#152,152,1366,768,1366,768,8-22-2022,9-4-27,130,depth_duration_stimuli/002639_2014-06-24_14-51-37_094959634447_rgbf000074-resize_4/002639_2014-06-24_14-51-37_094959634447_rgbf000074-resize_4-target.png,1000,4.0375,5,4218,996,meters,jsons/v1_VE1000_randls_3.json,861332,1030858,49,Woman
130,931391,DepthScenes,duration_manipulation_targetAtFixation,jsons/v1_VE1000_randls_3.json,http://54.235.29.9/FacialAge/BNav_EC2/DepthDuration/v2_depth_duration_MTurk/v2_DepthDuration_HTML.html#152,152,1366,768,1366,768,8-22-2022,9-4-27,131,depth_duration_stimuli/001133_2014-06-17_14-49-16_260595134347_rgbf000100-resize_0/001133_2014-06-17_14-49-16_260595134347_rgbf000100-resize_0-target.png,1000,4.2115,3,3854,993,meters,jsons/v1_VE1000_randls_3.json,861332,1030858,49,Woman
131,931391,DepthScenes,duration_manipulation_targetAtFixation,jsons/v1_VE1000_randls_3.json,http://54.235.29.9/FacialAge/BNav_EC2/DepthDuration/v2_depth_duration_MTurk/v2_DepthDuration_HTML.html#152,152,1366,768,1366,768,8-22-2022,9-4-27,132,depth_duration_stimuli/001132_2014-06-17_14-48-54_260595134347_rgbf000100-resize_2/001132_2014-06-17_14-48-54_260595134347_rgbf000100-resize_2-target.png,1000,3.753,5,3749,989,meters,jsons/v1_VE1000_randls_3.json,861332,1030858,49,Woman
132,931391,DepthScenes,duration_manipulation_targetAtFixation,jsons/v1_VE1000_randls_3.json,http://54.235.29.9/FacialAge/BNav_EC2/DepthDuration/v2_depth_duration_MTurk/v2_DepthDuration_HTML.html#152,152,1366,768,1366,768,8-22-2022,9-4-27,133,depth_duration_stimuli/002988_2014-06-15_12-24-20_094959634447_rgbf000150-resize_1/002988_2014-06-15_12-24-20_094959634447_rgbf000150-resize_1-target.png,1000,4.7669999999999995,1,4529,994,meters,jsons/v1_VE1000_randls_3.json,861332,1030858,49,Woman
133,931391,DepthScenes,duration_manipulation_targetAtFixation,jsons/v1_VE1000_randls_3.json,http://54.235.29.9/FacialAge/BNav_EC2/DepthDuration/v2_depth_duration_MTurk/v2_DepthDuration_HTML.html#152,152,1366,768,1366,768,8-22-2022,9-4-27,134,depth_duration_stimuli/001052_2014-06-08_18-24-54_260595134347_rgbf000130-resize_1/001052_2014-06-08_18-24-54_260595134347_rgbf000130-resize_1-target.png,1000,4.1045,4,3588,984,meters,jsons/v1_VE1000_randls_3.json,861332,1030858,49,Woman
134,931391,DepthScenes,duration_manipulation_targetAtFixation,jsons/v1_VE1000_randls_3.json,http://54.235.29.9/FacialAge/BNav_EC2/DepthDuration/v2_depth_duration_MTurk/v2_DepthDuration_HTML.html#152,152,1366,768,1366,768,8-22-2022,9-4-27,135,depth_duration_stimuli/002072_2014-06-24_21-48-06_260595134347_rgbf000115-resize_0/002072_2014-06-24_21-48-06_260595134347_rgbf000115-resize-original.jpg,1000,4.702,0,4714,996,meters,jsons/v1_VE1000_randls_3.json,861332,1030858,49,Woman
135,931391,DepthScenes,duration_manipulation_targetAtFixation,jsons/v1_VE1000_randls_3.json,http://54.235.29.9/FacialAge/BNav_EC2/DepthDuration/v2_depth_duration_MTurk/v2_DepthDuration_HTML.html#152,152,1366,768,1366,768,8-22-2022,9-4-27,136,depth_duration_stimuli/002118_2014-06-25_20-32-08_260595134347_rgbf000078-resize_1/002118_2014-06-25_20-32-08_260595134347_rgbf000078-resize_1-target.png,1000,2.6460000000000004,3,3835,1000,meters,jsons/v1_VE1000_randls_3.json,861332,1030858,49,Woman
136,931391,DepthScenes,duration_manipulation_targetAtFixation,jsons/v1_VE1000_randls_3.json,http://54.235.29.9/FacialAge/BNav_EC2/DepthDuration/v2_depth_duration_MTurk/v2_DepthDuration_HTML.html#152,152,1366,768,1366,768,8-22-2022,9-4-27,137,depth_duration_stimuli/001516_2014-06-20_16-25-09_260595134347_rgbf000076-resize_2/001516_2014-06-20_16-25-09_260595134347_rgbf000076-resize_2-target.png,1000,1.7445,6,5533,993,meters,jsons/v1_VE1000_randls_3.json,861332,1030858,49,Woman
137,931391,DepthScenes,duration_manipulation_targetAtFixation,jsons/v1_VE1000_randls_3.json,http://54.235.29.9/FacialAge/BNav_EC2/DepthDuration/v2_depth_duration_MTurk/v2_DepthDuration_HTML.html#152,152,1366,768,1366,768,8-22-2022,9-4-27,138,depth_duration_stimuli/002039_2014-06-24_20-22-38_260595134347_rgbf000084-resize_1/002039_2014-06-24_20-22-38_260595134347_rgbf000084-resize_1-target.png,1000,4.408,8,4736,1002,meters,jsons/v1_VE1000_randls_3.json,861332,1030858,49,Woman
138,931391,DepthScenes,duration_manipulation_targetAtFixation,jsons/v1_VE1000_randls_3.json,http://54.235.29.9/FacialAge/BNav_EC2/DepthDuration/v2_depth_duration_MTurk/v2_DepthDuration_HTML.html#152,152,1366,768,1366,768,8-22-2022,9-4-27,139,depth_duration_stimuli/002103_2014-06-25_20-00-40_260595134347_rgbf000049-resize_0/002103_2014-06-25_20-00-40_260595134347_rgbf000049-resize_0-target.png,1000,4.105,2,4217,1022,meters,jsons/v1_VE1000_randls_3.json,861332,1030858,49,Woman
139,931391,DepthScenes,duration_manipulation_targetAtFixation,jsons/v1_VE1000_randls_3.json,http://54.235.29.9/FacialAge/BNav_EC2/DepthDuration/v2_depth_duration_MTurk/v2_DepthDuration_HTML.html#152,152,1366,768,1366,768,8-22-2022,9-4-27,140,depth_duration_stimuli/002748_2014-06-22_19-07-22_094959634447_rgbf000078-resize_1/002748_2014-06-22_19-07-22_094959634447_rgbf000078-resize_1-target.png,1000,4.6705,4,4075,1010,meters,jsons/v1_VE1000_randls_3.json,861332,1030858,49,Woman
140,931391,DepthScenes,duration_manipulation_targetAtFixation,jsons/v1_VE1000_randls_3.json,http://54.235.29.9/FacialAge/BNav_EC2/DepthDuration/v2_depth_duration_MTurk/v2_DepthDuration_HTML.html#152,152,1366,768,1366,768,8-22-2022,9-4-27,141,depth_duration_stimuli/002995_2014-06-15_12-31-26_094959634447_rgbf000150-resize_1/002995_2014-06-15_12-31-26_094959634447_rgbf000150-resize_1-target.png,1000,3.8360000000000003,6,3338,1004,meters,jsons/v1_VE1000_randls_3.json,861332,1030858,49,Woman
141,931391,DepthScenes,duration_manipulation_targetAtFixation,jsons/v1_VE1000_randls_3.json,http://54.235.29.9/FacialAge/BNav_EC2/DepthDuration/v2_depth_duration_MTurk/v2_DepthDuration_HTML.html#152,152,1366,768,1366,768,8-22-2022,9-4-27,142,depth_duration_stimuli/001417_2014-06-19_16-25-36_260595134347_rgbf000115-resize_5/001417_2014-06-19_16-25-36_260595134347_rgbf000115-resize_5-target.png,1000,4.6255,5,3477,1006,meters,jsons/v1_VE1000_randls_3.json,861332,1030858,49,Woman
142,931391,DepthScenes,duration_manipulation_targetAtFixation,jsons/v1_VE1000_randls_3.json,http://54.235.29.9/FacialAge/BNav_EC2/DepthDuration/v2_depth_duration_MTurk/v2_DepthDuration_HTML.html#152,152,1366,768,1366,768,8-22-2022,9-4-27,143,depth_duration_stimuli/003081_2014-06-15_15-19-16_094959634447_rgbf000150-resize_1/003081_2014-06-15_15-19-16_094959634447_rgbf000150-resize_1-target.png,1000,3.9125,3,3973,972,meters,jsons/v1_VE1000_randls_3.json,861332,1030858,49,Woman
143,931391,DepthScenes,duration_manipulation_targetAtFixation,jsons/v1_VE1000_randls_3.json,http://54.235.29.9/FacialAge/BNav_EC2/DepthDuration/v2_depth_duration_MTurk/v2_DepthDuration_HTML.html#152,152,1366,768,1366,768,8-22-2022,9-4-27,144,depth_duration_stimuli/000522_2014-06-08_13-35-06_260595134347_rgbf000244-resize_1/000522_2014-06-08_13-35-06_260595134347_rgbf000244-resize_1-target.png,1000,2.3715,6,4059,1007,meters,jsons/v1_VE1000_randls_3.json,861332,1030858,49,Woman
144,931391,DepthScenes,duration_manipulation_targetAtFixation,jsons/v1_VE1000_randls_3.json,http://54.235.29.9/FacialAge/BNav_EC2/DepthDuration/v2_depth_duration_MTurk/v2_DepthDuration_HTML.html#152,152,1366,768,1366,768,8-22-2022,9-4-27,145,depth_duration_stimuli/002949_2014-06-26_15-57-42_094959634447_rgbf000079-resize_1/002949_2014-06-26_15-57-42_094959634447_rgbf000079-resize_1-target.png,1000,1.8915,2,6715,987,meters,jsons/v1_VE1000_randls_3.json,861332,1030858,49,Woman
145,931391,DepthScenes,duration_manipulation_targetAtFixation,jsons/v1_VE1000_randls_3.json,http://54.235.29.9/FacialAge/BNav_EC2/DepthDuration/v2_depth_duration_MTurk/v2_DepthDuration_HTML.html#152,152,1366,768,1366,768,8-22-2022,9-4-27,146,depth_duration_stimuli/001498_2014-06-19_17-45-14_260595134347_rgbf000129-resize_4/001498_2014-06-19_17-45-14_260595134347_rgbf000129-resize-original.jpg,1000,1.4075,5,3968,1000,meters,jsons/v1_VE1000_randls_3.json,861332,1030858,49,Woman
146,931391,DepthScenes,duration_manipulation_targetAtFixation,jsons/v1_VE1000_randls_3.json,http://54.235.29.9/FacialAge/BNav_EC2/DepthDuration/v2_depth_duration_MTurk/v2_DepthDuration_HTML.html#152,152,1366,768,1366,768,8-22-2022,9-4-27,147,depth_duration_stimuli/002549_2014-06-24_13-41-39_094959634447_rgbf000022-resize_3/002549_2014-06-24_13-41-39_094959634447_rgbf000022-resize_3-target.png,1000,1.476,2,9027,1000,meters,jsons/v1_VE1000_randls_3.json,861332,1030858,49,Woman
147,931391,DepthScenes,duration_manipulation_targetAtFixation,jsons/v1_VE1000_randls_3.json,http://54.235.29.9/FacialAge/BNav_EC2/DepthDuration/v2_depth_duration_MTurk/v2_DepthDuration_HTML.html#152,152,1366,768,1366,768,8-22-2022,9-4-27,148,depth_duration_stimuli/002750_2014-06-22_19-08-03_094959634447_rgbf000094-resize_4/002750_2014-06-22_19-08-03_094959634447_rgbf000094-resize_4-target.png,1000,2.354,7,3963,993,meters,jsons/v1_VE1000_randls_3.json,861332,1030858,49,Woman
148,931391,DepthScenes,duration_manipulation_targetAtFixation,jsons/v1_VE1000_randls_3.json,http://54.235.29.9/FacialAge/BNav_EC2/DepthDuration/v2_depth_duration_MTurk/v2_DepthDuration_HTML.html#152,152,1366,768,1366,768,8-22-2022,9-4-27,149,depth_duration_stimuli/001570_2014-06-20_17-21-09_260595134347_rgbf000135-resize_4/001570_2014-06-20_17-21-09_260595134347_rgbf000135-resize_4-target.png,1000,4.467,5,3647,1008,meters,jsons/v1_VE1000_randls_3.json,861332,1030858,49,Woman
149,931391,DepthScenes,duration_manipulation_targetAtFixation,jsons/v1_VE1000_randls_3.json,http://54.235.29.9/FacialAge/BNav_EC2/DepthDuration/v2_depth_duration_MTurk/v2_DepthDuration_HTML.html#152,152,1366,768,1366,768,8-22-2022,9-4-27,150,depth_duration_stimuli/001392_2014-06-19_16-07-59_260595134347_rgbf000046-resize_1/001392_2014-06-19_16-07-59_260595134347_rgbf000046-resize_1-target.png,1000,4.135,8,3775,997,meters,jsons/v1_VE1000_randls_3.json,861332,1030858,49,Woman
150,931391,DepthScenes,duration_manipulation_targetAtFixation,jsons/v1_VE1000_randls_3.json,http://54.235.29.9/FacialAge/BNav_EC2/DepthDuration/v2_depth_duration_MTurk/v2_DepthDuration_HTML.html#152,152,1366,768,1366,768,8-22-2022,9-4-27,151,depth_duration_stimuli/003070_2014-06-15_14-58-27_094959634447_rgbf000150-resize_3/003070_2014-06-15_14-58-27_094959634447_rgbf000150-resize_3-target.png,1000,2.9415,6,3697,1031,meters,jsons/v1_VE1000_randls_3.json,861332,1030858,49,Woman
151,931391,DepthScenes,duration_manipulation_targetAtFixation,jsons/v1_VE1000_randls_3.json,http://54.235.29.9/FacialAge/BNav_EC2/DepthDuration/v2_depth_duration_MTurk/v2_DepthDuration_HTML.html#152,152,1366,768,1366,768,8-22-2022,9-4-27,152,depth_duration_stimuli/000943_2014-06-09_19-31-07_260595134347_rgbf000128-resize_1/000943_2014-06-09_19-31-07_260595134347_rgbf000128-resize_1-target.png,1000,1.9765,2,3824,990,meters,jsons/v1_VE1000_randls_3.json,861332,1030858,49,Woman
152,931391,DepthScenes,duration_manipulation_targetAtFixation,jsons/v1_VE1000_randls_3.json,http://54.235.29.9/FacialAge/BNav_EC2/DepthDuration/v2_depth_duration_MTurk/v2_DepthDuration_HTML.html#152,152,1366,768,1366,768,8-22-2022,9-4-27,153,depth_duration_stimuli/000682_2014-06-08_23-14-58_260595134347_rgbf000041-resize_5/000682_2014-06-08_23-14-58_260595134347_rgbf000041-resize_5-target.png,1000,2.7239999999999998,3,4057,998,meters,jsons/v1_VE1000_randls_3.json,861332,1030858,49,Woman
153,931391,DepthScenes,duration_manipulation_targetAtFixation,jsons/v1_VE1000_randls_3.json,http://54.235.29.9/FacialAge/BNav_EC2/DepthDuration/v2_depth_duration_MTurk/v2_DepthDuration_HTML.html#152,152,1366,768,1366,768,8-22-2022,9-4-27,154,depth_duration_stimuli/001650_2014-06-20_12-09-00_260595134347_rgbf000087-resize_3/001650_2014-06-20_12-09-00_260595134347_rgbf000087-resize_3-target.png,1000,1.9505,4,5593,988,meters,jsons/v1_VE1000_randls_3.json,861332,1030858,49,Woman
154,931391,DepthScenes,duration_manipulation_targetAtFixation,jsons/v1_VE1000_randls_3.json,http://54.235.29.9/FacialAge/BNav_EC2/DepthDuration/v2_depth_duration_MTurk/v2_DepthDuration_HTML.html#152,152,1366,768,1366,768,8-22-2022,9-4-27,155,depth_duration_stimuli/001029_2014-06-08_13-17-57_260595134347_rgbf000065-resize_1/001029_2014-06-08_13-17-57_260595134347_rgbf000065-resize_1-target.png,1000,3.0835,5,14693,1006,meters,jsons/v1_VE1000_randls_3.json,861332,1030858,49,Woman
155,931391,DepthScenes,duration_manipulation_targetAtFixation,jsons/v1_VE1000_randls_3.json,http://54.235.29.9/FacialAge/BNav_EC2/DepthDuration/v2_depth_duration_MTurk/v2_DepthDuration_HTML.html#152,152,1366,768,1366,768,8-22-2022,9-4-27,156,depth_duration_stimuli/000677_2014-06-08_23-10-32_260595134347_rgbf000158-resize_6/000677_2014-06-08_23-10-32_260595134347_rgbf000158-resize_6-target.png,1000,3.556,3,5211,1004,meters,jsons/v1_VE1000_randls_3.json,861332,1030858,49,Woman
156,931391,DepthScenes,duration_manipulation_targetAtFixation,jsons/v1_VE1000_randls_3.json,http://54.235.29.9/FacialAge/BNav_EC2/DepthDuration/v2_depth_duration_MTurk/v2_DepthDuration_HTML.html#152,152,1366,768,1366,768,8-22-2022,9-4-27,157,depth_duration_stimuli/002509_2014-06-24_13-19-22_094959634447_rgbf000077-resize_0/002509_2014-06-24_13-19-22_094959634447_rgbf000077-resize_0-target.png,1000,1.3065,6,4110,1008,meters,jsons/v1_VE1000_randls_3.json,861332,1030858,49,Woman
157,931391,DepthScenes,duration_manipulation_targetAtFixation,jsons/v1_VE1000_randls_3.json,http://54.235.29.9/FacialAge/BNav_EC2/DepthDuration/v2_depth_duration_MTurk/v2_DepthDuration_HTML.html#152,152,1366,768,1366,768,8-22-2022,9-4-27,158,depth_duration_stimuli/003338_2014-05-20_11-01-23_094959634447_rgbf000051-resize_6/003338_2014-05-20_11-01-23_094959634447_rgbf000051-resize_6-target.png,1000,1.693,4,3966,987,meters,jsons/v1_VE1000_randls_3.json,861332,1030858,49,Woman
158,931391,DepthScenes,duration_manipulation_targetAtFixation,jsons/v1_VE1000_randls_3.json,http://54.235.29.9/FacialAge/BNav_EC2/DepthDuration/v2_depth_duration_MTurk/v2_DepthDuration_HTML.html#152,152,1366,768,1366,768,8-22-2022,9-4-27,159,depth_duration_stimuli/001164_2014-06-17_15-35-46_260595134347_rgbf000085-resize_3/001164_2014-06-17_15-35-46_260595134347_rgbf000085-resize_3-target.png,1000,2.354,3,4076,1000,meters,jsons/v1_VE1000_randls_3.json,861332,1030858,49,Woman
159,931391,DepthScenes,duration_manipulation_targetAtFixation,jsons/v1_VE1000_randls_3.json,http://54.235.29.9/FacialAge/BNav_EC2/DepthDuration/v2_depth_duration_MTurk/v2_DepthDuration_HTML.html#152,152,1366,768,1366,768,8-22-2022,9-4-27,160,depth_duration_stimuli/001136_2014-06-17_15-19-41_260595134347_rgbf000076-resize_3/001136_2014-06-17_15-19-41_260595134347_rgbf000076-resize_3-target.png,1000,1.8655,7,3973,987,meters,jsons/v1_VE1000_randls_3.json,861332,1030858,49,Woman
160,931391,DepthScenes,duration_manipulation_targetAtFixation,jsons/v1_VE1000_randls_3.json,http://54.235.29.9/FacialAge/BNav_EC2/DepthDuration/v2_depth_duration_MTurk/v2_DepthDuration_HTML.html#152,152,1366,768,1366,768,8-22-2022,9-4-27,161,depth_duration_stimuli/000810_2014-06-08_17-20-01_260595134347_rgbf000105-resize_0/000810_2014-06-08_17-20-01_260595134347_rgbf000105-resize_0-target.png,1000,1.4865,8,3746,988,meters,jsons/v1_VE1000_randls_3.json,861332,1030858,49,Woman
161,931391,DepthScenes,duration_manipulation_targetAtFixation,jsons/v1_VE1000_randls_3.json,http://54.235.29.9/FacialAge/BNav_EC2/DepthDuration/v2_depth_duration_MTurk/v2_DepthDuration_HTML.html#152,152,1366,768,1366,768,8-22-2022,9-4-27,162,depth_duration_stimuli/001214_2014-06-17_16-13-55_260595134347_rgbf000111-resize_0/001214_2014-06-17_16-13-55_260595134347_rgbf000111-resize_0-target.png,1000,2.6505,2,3659,1001,meters,jsons/v1_VE1000_randls_3.json,861332,1030858,49,Woman
162,931391,DepthScenes,duration_manipulation_targetAtFixation,jsons/v1_VE1000_randls_3.json,http://54.235.29.9/FacialAge/BNav_EC2/DepthDuration/v2_depth_duration_MTurk/v2_DepthDuration_HTML.html#152,152,1366,768,1366,768,8-22-2022,9-4-27,163,depth_duration_stimuli/001110_2014-06-15_17-25-28_260595134347_rgbf000150-resize_1/001110_2014-06-15_17-25-28_260595134347_rgbf000150-resize_1-target.png,1000,1.7115,3,3735,1000,meters,jsons/v1_VE1000_randls_3.json,861332,1030858,49,Woman
163,931391,DepthScenes,duration_manipulation_targetAtFixation,jsons/v1_VE1000_randls_3.json,http://54.235.29.9/FacialAge/BNav_EC2/DepthDuration/v2_depth_duration_MTurk/v2_DepthDuration_HTML.html#152,152,1366,768,1366,768,8-22-2022,9-4-27,164,depth_duration_stimuli/000927_2014-06-09_16-32-30_260595134347_rgbf000123-resize_3/000927_2014-06-09_16-32-30_260595134347_rgbf000123-resize_3-target.png,1000,2.6785,6,5046,1173,meters,jsons/v1_VE1000_randls_3.json,861332,1030858,49,Woman
