,subjID,experimentName,versionName,sequenceName,url,selected_row,windowWidth,windowHeight,screenWidth,screenHeight,startDate,startTime,trial,stimulus,duration,actual_depth,depth_estimate,trial_RT,log_sceneDuration,unitSelection,seq_filepath,experimentTime,totalTime,age,gender
0,931948,DepthScenes,duration_manipulation_targetAtFixation,jsons/VE125_randls_44.json,http://54.235.29.9/FacialAge/BNav_EC2/DepthDuration/v2_depth_duration_MTurk/v2_DepthDuration_HTML.html#60,60,1354,604,1364,768,8-21-2022,6-38-12,1,depth_duration_stimuli/001110_2014-06-15_17-25-28_260595134347_rgbf000150-resize_1/001110_2014-06-15_17-25-28_260595134347_rgbf000150-resize_1-target.png,125,1.7115,2,3872,162,meters,jsons/VE125_randls_44.json,2354843,2726144,48,Woman
1,931948,DepthScenes,duration_manipulation_targetAtFixation,jsons/VE125_randls_44.json,http://54.235.29.9/FacialAge/BNav_EC2/DepthDuration/v2_depth_duration_MTurk/v2_DepthDuration_HTML.html#60,60,1354,604,1364,768,8-21-2022,6-38-12,2,depth_duration_stimuli/000927_2014-06-09_16-32-30_260595134347_rgbf000123-resize_3/000927_2014-06-09_16-32-30_260595134347_rgbf000123-resize_3-target.png,125,2.6785,5,3319,112,meters,jsons/VE125_randls_44.json,2354843,2726144,48,Woman
2,931948,DepthScenes,duration_manipulation_targetAtFixation,jsons/VE125_randls_44.json,http://54.235.29.9/FacialAge/BNav_EC2/DepthDuration/v2_depth_duration_MTurk/v2_DepthDuration_HTML.html#60,60,1354,604,1364,768,8-21-2022,6-38-12,3,depth_duration_stimuli/000773_2014-06-08_22-24-54_260595134347_rgbf000093-resize_1/000773_2014-06-08_22-24-54_260595134347_rgbf000093-resize_1-target.png,125,4.973,5,4289,120,meters,jsons/VE125_randls_44.json,2354843,2726144,48,Woman
3,931948,DepthScenes,duration_manipulation_targetAtFixation,jsons/VE125_randls_44.json,http://54.235.29.9/FacialAge/BNav_EC2/DepthDuration/v2_depth_duration_MTurk/v2_DepthDuration_HTML.html#60,60,1354,604,1364,768,8-21-2022,6-38-12,4,depth_duration_stimuli/002414_2014-06-28_20-24-58_260595134347_rgbf000067-resize_4/002414_2014-06-28_20-24-58_260595134347_rgbf000067-resize_4-target.png,125,4.363,6,13942,123,meters,jsons/VE125_randls_44.json,2354843,2726144,48,Woman
4,931948,DepthScenes,duration_manipulation_targetAtFixation,jsons/VE125_randls_44.json,http://54.235.29.9/FacialAge/BNav_EC2/DepthDuration/v2_depth_duration_MTurk/v2_DepthDuration_HTML.html#60,60,1354,604,1364,768,8-21-2022,6-38-12,5,depth_duration_stimuli/000009_2014-05-26_14-32-05_260595134347_rgbf000034-resize_3/000009_2014-05-26_14-32-05_260595134347_rgbf000034-resize_3-target.png,125,3.8715,3,2912,104,meters,jsons/VE125_randls_44.json,2354843,2726144,48,Woman
5,931948,DepthScenes,duration_manipulation_targetAtFixation,jsons/VE125_randls_44.json,http://54.235.29.9/FacialAge/BNav_EC2/DepthDuration/v2_depth_duration_MTurk/v2_DepthDuration_HTML.html#60,60,1354,604,1364,768,8-21-2022,6-38-12,6,depth_duration_stimuli/001828_2014-06-26_21-40-03_260595134347_rgbf000024-resize_0/001828_2014-06-26_21-40-03_260595134347_rgbf000024-resize_0-target.png,125,4.8260000000000005,5,5782,100,meters,jsons/VE125_randls_44.json,2354843,2726144,48,Woman
6,931948,DepthScenes,duration_manipulation_targetAtFixation,jsons/VE125_randls_44.json,http://54.235.29.9/FacialAge/BNav_EC2/DepthDuration/v2_depth_duration_MTurk/v2_DepthDuration_HTML.html#60,60,1354,604,1364,768,8-21-2022,6-38-12,7,depth_duration_stimuli/002570_2014-06-24_13-59-54_094959634447_rgbf000059-resize_0/002570_2014-06-24_13-59-54_094959634447_rgbf000059-resize_0-target.png,125,4.037,1,5256,123,meters,jsons/VE125_randls_44.json,2354843,2726144,48,Woman
7,931948,DepthScenes,duration_manipulation_targetAtFixation,jsons/VE125_randls_44.json,http://54.235.29.9/FacialAge/BNav_EC2/DepthDuration/v2_depth_duration_MTurk/v2_DepthDuration_HTML.html#60,60,1354,604,1364,768,8-21-2022,6-38-12,8,depth_duration_stimuli/002467_2014-06-28_20-38-07_260595134347_rgbf000026-resize_2/002467_2014-06-28_20-38-07_260595134347_rgbf000026-resize_2-target.png,125,4.742,2,2890,125,meters,jsons/VE125_randls_44.json,2354843,2726144,48,Woman
8,931948,DepthScenes,duration_manipulation_targetAtFixation,jsons/VE125_randls_44.json,http://54.235.29.9/FacialAge/BNav_EC2/DepthDuration/v2_depth_duration_MTurk/v2_DepthDuration_HTML.html#60,60,1354,604,1364,768,8-21-2022,6-38-12,9,depth_duration_stimuli/002118_2014-06-25_20-32-08_260595134347_rgbf000078-resize_1/002118_2014-06-25_20-32-08_260595134347_rgbf000078-resize_1-target.png,125,2.6460000000000004,2,3315,127,meters,jsons/VE125_randls_44.json,2354843,2726144,48,Woman
9,931948,DepthScenes,duration_manipulation_targetAtFixation,jsons/VE125_randls_44.json,http://54.235.29.9/FacialAge/BNav_EC2/DepthDuration/v2_depth_duration_MTurk/v2_DepthDuration_HTML.html#60,60,1354,604,1364,768,8-21-2022,6-38-12,10,depth_duration_stimuli/001516_2014-06-20_16-25-09_260595134347_rgbf000076-resize_2/001516_2014-06-20_16-25-09_260595134347_rgbf000076-resize_2-target.png,125,1.7445,2,1321563,213,meters,jsons/VE125_randls_44.json,2354843,2726144,48,Woman
10,931948,DepthScenes,duration_manipulation_targetAtFixation,jsons/VE125_randls_44.json,http://54.235.29.9/FacialAge/BNav_EC2/DepthDuration/v2_depth_duration_MTurk/v2_DepthDuration_HTML.html#60,60,1354,604,1364,768,8-21-2022,6-38-12,11,depth_duration_stimuli/000810_2014-06-08_17-20-01_260595134347_rgbf000105-resize_0/000810_2014-06-08_17-20-01_260595134347_rgbf000105-resize_0-target.png,125,1.4865,3,7045,125,meters,jsons/VE125_randls_44.json,2354843,2726144,48,Woman
11,931948,DepthScenes,duration_manipulation_targetAtFixation,jsons/VE125_randls_44.json,http://54.235.29.9/FacialAge/BNav_EC2/DepthDuration/v2_depth_duration_MTurk/v2_DepthDuration_HTML.html#60,60,1354,604,1364,768,8-21-2022,6-38-12,12,depth_duration_stimuli/001214_2014-06-17_16-13-55_260595134347_rgbf000111-resize_0/001214_2014-06-17_16-13-55_260595134347_rgbf000111-resize_0-target.png,125,2.6505,3,5768,119,meters,jsons/VE125_randls_44.json,2354843,2726144,48,Woman
12,931948,DepthScenes,duration_manipulation_targetAtFixation,jsons/VE125_randls_44.json,http://54.235.29.9/FacialAge/BNav_EC2/DepthDuration/v2_depth_duration_MTurk/v2_DepthDuration_HTML.html#60,60,1354,604,1364,768,8-21-2022,6-38-12,13,depth_duration_stimuli/000569_2014-06-09_22-51-47_260595134347_rgbf000141-resize_3/000569_2014-06-09_22-51-47_260595134347_rgbf000141-resize-original.jpg,125,4.512,6,15494,120,meters,jsons/VE125_randls_44.json,2354843,2726144,48,Woman
13,931948,DepthScenes,duration_manipulation_targetAtFixation,jsons/VE125_randls_44.json,http://54.235.29.9/FacialAge/BNav_EC2/DepthDuration/v2_depth_duration_MTurk/v2_DepthDuration_HTML.html#60,60,1354,604,1364,768,8-21-2022,6-38-12,14,depth_duration_stimuli/000692_2014-06-08_13-09-42_260595134347_rgbf000199-resize_2/000692_2014-06-08_13-09-42_260595134347_rgbf000199-resize_2-target.png,125,3.661,2,153378,124,meters,jsons/VE125_randls_44.json,2354843,2726144,48,Woman
14,931948,DepthScenes,duration_manipulation_targetAtFixation,jsons/VE125_randls_44.json,http://54.235.29.9/FacialAge/BNav_EC2/DepthDuration/v2_depth_duration_MTurk/v2_DepthDuration_HTML.html#60,60,1354,604,1364,768,8-21-2022,6-38-12,15,depth_duration_stimuli/001094_2014-06-15_17-36-00_260595134347_rgbf000205-resize_0/001094_2014-06-15_17-36-00_260595134347_rgbf000205-resize_0-target.png,125,4.2175,5,3432,135,meters,jsons/VE125_randls_44.json,2354843,2726144,48,Woman
15,931948,DepthScenes,duration_manipulation_targetAtFixation,jsons/VE125_randls_44.json,http://54.235.29.9/FacialAge/BNav_EC2/DepthDuration/v2_depth_duration_MTurk/v2_DepthDuration_HTML.html#60,60,1354,604,1364,768,8-21-2022,6-38-12,16,depth_duration_stimuli/002445_2014-06-28_20-32-16_260595134347_rgbf000029-resize_4/002445_2014-06-28_20-32-16_260595134347_rgbf000029-resize_4-target.png,125,2.5315,5,4807,126,meters,jsons/VE125_randls_44.json,2354843,2726144,48,Woman
16,931948,DepthScenes,duration_manipulation_targetAtFixation,jsons/VE125_randls_44.json,http://54.235.29.9/FacialAge/BNav_EC2/DepthDuration/v2_depth_duration_MTurk/v2_DepthDuration_HTML.html#60,60,1354,604,1364,768,8-21-2022,6-38-12,17,depth_duration_stimuli/000780_2014-06-08_22-28-29_260595134347_rgbf000126-resize_1/000780_2014-06-08_22-28-29_260595134347_rgbf000126-resize_1-target.png,125,3.3825,2,2727,112,meters,jsons/VE125_randls_44.json,2354843,2726144,48,Woman
17,931948,DepthScenes,duration_manipulation_targetAtFixation,jsons/VE125_randls_44.json,http://54.235.29.9/FacialAge/BNav_EC2/DepthDuration/v2_depth_duration_MTurk/v2_DepthDuration_HTML.html#60,60,1354,604,1364,768,8-21-2022,6-38-12,18,depth_duration_stimuli/000470_2014-06-09_19-42-40_260595134347_rgbf000094-resize_1/000470_2014-06-09_19-42-40_260595134347_rgbf000094-resize_1-target.png,125,1.831,3,2843,52,meters,jsons/VE125_randls_44.json,2354843,2726144,48,Woman
18,931948,DepthScenes,duration_manipulation_targetAtFixation,jsons/VE125_randls_44.json,http://54.235.29.9/FacialAge/BNav_EC2/DepthDuration/v2_depth_duration_MTurk/v2_DepthDuration_HTML.html#60,60,1354,604,1364,768,8-21-2022,6-38-12,19,depth_duration_stimuli/000109_2014-05-14_23-41-52_260595134347_rgbf000035-resize_9/000109_2014-05-14_23-41-52_260595134347_rgbf000035-resize_9-target.png,125,1.3545,2,2838,129,meters,jsons/VE125_randls_44.json,2354843,2726144,48,Woman
19,931948,DepthScenes,duration_manipulation_targetAtFixation,jsons/VE125_randls_44.json,http://54.235.29.9/FacialAge/BNav_EC2/DepthDuration/v2_depth_duration_MTurk/v2_DepthDuration_HTML.html#60,60,1354,604,1364,768,8-21-2022,6-38-12,20,depth_duration_stimuli/002375_2014-06-28_20-13-44_260595134347_rgbf000032-resize_1/002375_2014-06-28_20-13-44_260595134347_rgbf000032-resize_1-target.png,125,4.0175,2,52700,126,meters,jsons/VE125_randls_44.json,2354843,2726144,48,Woman
20,931948,DepthScenes,duration_manipulation_targetAtFixation,jsons/VE125_randls_44.json,http://54.235.29.9/FacialAge/BNav_EC2/DepthDuration/v2_depth_duration_MTurk/v2_DepthDuration_HTML.html#60,60,1354,604,1364,768,8-21-2022,6-38-12,21,depth_duration_stimuli/002657_2014-06-13_15-29-54_094959634447_rgbf000150-resize_1/002657_2014-06-13_15-29-54_094959634447_rgbf000150-resize_1-target.png,125,4.919,2,8565,161,meters,jsons/VE125_randls_44.json,2354843,2726144,48,Woman
21,931948,DepthScenes,duration_manipulation_targetAtFixation,jsons/VE125_randls_44.json,http://54.235.29.9/FacialAge/BNav_EC2/DepthDuration/v2_depth_duration_MTurk/v2_DepthDuration_HTML.html#60,60,1354,604,1364,768,8-21-2022,6-38-12,22,depth_duration_stimuli/002213_2014-06-28_18-37-58_260595134347_rgbf000055-resize_1/002213_2014-06-28_18-37-58_260595134347_rgbf000055-resize_1-target.png,125,3.62,6,92014,127,meters,jsons/VE125_randls_44.json,2354843,2726144,48,Woman
22,931948,DepthScenes,duration_manipulation_targetAtFixation,jsons/VE125_randls_44.json,http://54.235.29.9/FacialAge/BNav_EC2/DepthDuration/v2_depth_duration_MTurk/v2_DepthDuration_HTML.html#60,60,1354,604,1364,768,8-21-2022,6-38-12,23,depth_duration_stimuli/000691_2014-06-08_13-08-50_260595134347_rgbf000132-resize_3/000691_2014-06-08_13-08-50_260595134347_rgbf000132-resize_3-target.png,125,4.1530000000000005,2,3547,134,meters,jsons/VE125_randls_44.json,2354843,2726144,48,Woman
23,931948,DepthScenes,duration_manipulation_targetAtFixation,jsons/VE125_randls_44.json,http://54.235.29.9/FacialAge/BNav_EC2/DepthDuration/v2_depth_duration_MTurk/v2_DepthDuration_HTML.html#60,60,1354,604,1364,768,8-21-2022,6-38-12,24,depth_duration_stimuli/000642_2014-06-08_16-59-25_260595134347_rgbf000098-resize_2/000642_2014-06-08_16-59-25_260595134347_rgbf000098-resize_2-target.png,125,2.8815,3,2801,120,meters,jsons/VE125_randls_44.json,2354843,2726144,48,Woman
24,931948,DepthScenes,duration_manipulation_targetAtFixation,jsons/VE125_randls_44.json,http://54.235.29.9/FacialAge/BNav_EC2/DepthDuration/v2_depth_duration_MTurk/v2_DepthDuration_HTML.html#60,60,1354,604,1364,768,8-21-2022,6-38-12,25,depth_duration_stimuli/002425_2014-06-28_20-27-29_260595134347_rgbf000031-resize_8/002425_2014-06-28_20-27-29_260595134347_rgbf000031-resize_8-target.png,125,3.8960000000000004,1,2667,200,meters,jsons/VE125_randls_44.json,2354843,2726144,48,Woman
25,931948,DepthScenes,duration_manipulation_targetAtFixation,jsons/VE125_randls_44.json,http://54.235.29.9/FacialAge/BNav_EC2/DepthDuration/v2_depth_duration_MTurk/v2_DepthDuration_HTML.html#60,60,1354,604,1364,768,8-21-2022,6-38-12,26,depth_duration_stimuli/001133_2014-06-17_14-49-16_260595134347_rgbf000100-resize_0/001133_2014-06-17_14-49-16_260595134347_rgbf000100-resize_0-target.png,125,4.2115,2,6528,150,meters,jsons/VE125_randls_44.json,2354843,2726144,48,Woman
26,931948,DepthScenes,duration_manipulation_targetAtFixation,jsons/VE125_randls_44.json,http://54.235.29.9/FacialAge/BNav_EC2/DepthDuration/v2_depth_duration_MTurk/v2_DepthDuration_HTML.html#60,60,1354,604,1364,768,8-21-2022,6-38-12,27,depth_duration_stimuli/001132_2014-06-17_14-48-54_260595134347_rgbf000100-resize_2/001132_2014-06-17_14-48-54_260595134347_rgbf000100-resize_2-target.png,125,3.753,2,2984,124,meters,jsons/VE125_randls_44.json,2354843,2726144,48,Woman
27,931948,DepthScenes,duration_manipulation_targetAtFixation,jsons/VE125_randls_44.json,http://54.235.29.9/FacialAge/BNav_EC2/DepthDuration/v2_depth_duration_MTurk/v2_DepthDuration_HTML.html#60,60,1354,604,1364,768,8-21-2022,6-38-12,28,depth_duration_stimuli/001417_2014-06-19_16-25-36_260595134347_rgbf000115-resize_5/001417_2014-06-19_16-25-36_260595134347_rgbf000115-resize_5-target.png,125,4.6255,0,3859,34,meters,jsons/VE125_randls_44.json,2354843,2726144,48,Woman
28,931948,DepthScenes,duration_manipulation_targetAtFixation,jsons/VE125_randls_44.json,http://54.235.29.9/FacialAge/BNav_EC2/DepthDuration/v2_depth_duration_MTurk/v2_DepthDuration_HTML.html#60,60,1354,604,1364,768,8-21-2022,6-38-12,29,depth_duration_stimuli/003081_2014-06-15_15-19-16_094959634447_rgbf000150-resize_1/003081_2014-06-15_15-19-16_094959634447_rgbf000150-resize_1-target.png,125,3.9125,0,2860,124,meters,jsons/VE125_randls_44.json,2354843,2726144,48,Woman
29,931948,DepthScenes,duration_manipulation_targetAtFixation,jsons/VE125_randls_44.json,http://54.235.29.9/FacialAge/BNav_EC2/DepthDuration/v2_depth_duration_MTurk/v2_DepthDuration_HTML.html#60,60,1354,604,1364,768,8-21-2022,6-38-12,30,depth_duration_stimuli/000375_2014-06-08_11-17-29_260595134347_rgbf000133-resize_2/000375_2014-06-08_11-17-29_260595134347_rgbf000133-resize-original.jpg,125,4.718,2,2633,134,meters,jsons/VE125_randls_44.json,2354843,2726144,48,Woman
30,931948,DepthScenes,duration_manipulation_targetAtFixation,jsons/VE125_randls_44.json,http://54.235.29.9/FacialAge/BNav_EC2/DepthDuration/v2_depth_duration_MTurk/v2_DepthDuration_HTML.html#60,60,1354,604,1364,768,8-21-2022,6-38-12,31,depth_duration_stimuli/002279_2014-06-28_18-55-32_260595134347_rgbf000040-resize_5/002279_2014-06-28_18-55-32_260595134347_rgbf000040-resize_5-target.png,125,1.5043333333333,0,2836,125,meters,jsons/VE125_randls_44.json,2354843,2726144,48,Woman
31,931948,DepthScenes,duration_manipulation_targetAtFixation,jsons/VE125_randls_44.json,http://54.235.29.9/FacialAge/BNav_EC2/DepthDuration/v2_depth_duration_MTurk/v2_DepthDuration_HTML.html#60,60,1354,604,1364,768,8-21-2022,6-38-12,32,depth_duration_stimuli/000635_2014-06-08_16-38-42_260595134347_rgbf000106-resize_1/000635_2014-06-08_16-38-42_260595134347_rgbf000106-resize_1-target.png,125,2.074,4,2603,115,meters,jsons/VE125_randls_44.json,2354843,2726144,48,Woman
32,931948,DepthScenes,duration_manipulation_targetAtFixation,jsons/VE125_randls_44.json,http://54.235.29.9/FacialAge/BNav_EC2/DepthDuration/v2_depth_duration_MTurk/v2_DepthDuration_HTML.html#60,60,1354,604,1364,768,8-21-2022,6-38-12,33,depth_duration_stimuli/000929_2014-06-09_16-33-19_260595134347_rgbf000139-resize_0/000929_2014-06-09_16-33-19_260595134347_rgbf000139-resize_0-target.png,125,2.8680000000000003,0,2293,120,meters,jsons/VE125_randls_44.json,2354843,2726144,48,Woman
33,931948,DepthScenes,duration_manipulation_targetAtFixation,jsons/VE125_randls_44.json,http://54.235.29.9/FacialAge/BNav_EC2/DepthDuration/v2_depth_duration_MTurk/v2_DepthDuration_HTML.html#60,60,1354,604,1364,768,8-21-2022,6-38-12,34,depth_duration_stimuli/000457_2014-06-08_16-52-43_260595134347_rgbf000199-resize_1/000457_2014-06-08_16-52-43_260595134347_rgbf000199-resize_1-target.png,125,3.6489999999999996,1,2589,329,meters,jsons/VE125_randls_44.json,2354843,2726144,48,Woman
34,931948,DepthScenes,duration_manipulation_targetAtFixation,jsons/VE125_randls_44.json,http://54.235.29.9/FacialAge/BNav_EC2/DepthDuration/v2_depth_duration_MTurk/v2_DepthDuration_HTML.html#60,60,1354,604,1364,768,8-21-2022,6-38-12,35,depth_duration_stimuli/002039_2014-06-24_20-22-38_260595134347_rgbf000084-resize_1/002039_2014-06-24_20-22-38_260595134347_rgbf000084-resize_1-target.png,125,4.408,0,2246,126,meters,jsons/VE125_randls_44.json,2354843,2726144,48,Woman
35,931948,DepthScenes,duration_manipulation_targetAtFixation,jsons/VE125_randls_44.json,http://54.235.29.9/FacialAge/BNav_EC2/DepthDuration/v2_depth_duration_MTurk/v2_DepthDuration_HTML.html#60,60,1354,604,1364,768,8-21-2022,6-38-12,36,depth_duration_stimuli/002103_2014-06-25_20-00-40_260595134347_rgbf000049-resize_0/002103_2014-06-25_20-00-40_260595134347_rgbf000049-resize_0-target.png,125,4.105,1,3312,112,meters,jsons/VE125_randls_44.json,2354843,2726144,48,Woman
36,931948,DepthScenes,duration_manipulation_targetAtFixation,jsons/VE125_randls_44.json,http://54.235.29.9/FacialAge/BNav_EC2/DepthDuration/v2_depth_duration_MTurk/v2_DepthDuration_HTML.html#60,60,1354,604,1364,768,8-21-2022,6-38-12,37,depth_duration_stimuli/000739_2014-06-08_18-45-58_260595134347_rgbf000068-resize_1/000739_2014-06-08_18-45-58_260595134347_rgbf000068-resize_1-target.png,125,3.534,0,5043,137,meters,jsons/VE125_randls_44.json,2354843,2726144,48,Woman
37,931948,DepthScenes,duration_manipulation_targetAtFixation,jsons/VE125_randls_44.json,http://54.235.29.9/FacialAge/BNav_EC2/DepthDuration/v2_depth_duration_MTurk/v2_DepthDuration_HTML.html#60,60,1354,604,1364,768,8-21-2022,6-38-12,38,depth_duration_stimuli/000734_2014-06-08_17-39-11_260595134347_rgbf000128-resize_2/000734_2014-06-08_17-39-11_260595134347_rgbf000128-resize_2-target.png,125,4.098,1,3781,123,meters,jsons/VE125_randls_44.json,2354843,2726144,48,Woman
38,931948,DepthScenes,duration_manipulation_targetAtFixation,jsons/VE125_randls_44.json,http://54.235.29.9/FacialAge/BNav_EC2/DepthDuration/v2_depth_duration_MTurk/v2_DepthDuration_HTML.html#60,60,1354,604,1364,768,8-21-2022,6-38-12,39,depth_duration_stimuli/001175_2014-06-17_15-45-55_260595134347_rgbf000129-resize_4/001175_2014-06-17_15-45-55_260595134347_rgbf000129-resize_4-target.png,125,4.255,2,6979,137,meters,jsons/VE125_randls_44.json,2354843,2726144,48,Woman
39,931948,DepthScenes,duration_manipulation_targetAtFixation,jsons/VE125_randls_44.json,http://54.235.29.9/FacialAge/BNav_EC2/DepthDuration/v2_depth_duration_MTurk/v2_DepthDuration_HTML.html#60,60,1354,604,1364,768,8-21-2022,6-38-12,40,depth_duration_stimuli/003490_2014-05-21_15-50-11_094959634447_rgbf000101-resize_3/003490_2014-05-21_15-50-11_094959634447_rgbf000101-resize_3-target.png,125,3.6445,0,3196,0,meters,jsons/VE125_randls_44.json,2354843,2726144,48,Woman
40,931948,DepthScenes,duration_manipulation_targetAtFixation,jsons/VE125_randls_44.json,http://54.235.29.9/FacialAge/BNav_EC2/DepthDuration/v2_depth_duration_MTurk/v2_DepthDuration_HTML.html#60,60,1354,604,1364,768,8-21-2022,6-38-12,41,depth_duration_stimuli/002663_2014-06-13_15-50-26_094959634447_rgbf000075-resize_1/002663_2014-06-13_15-50-26_094959634447_rgbf000075-resize_1-target.png,125,4.7495,2,7955,117,meters,jsons/VE125_randls_44.json,2354843,2726144,48,Woman
41,931948,DepthScenes,duration_manipulation_targetAtFixation,jsons/VE125_randls_44.json,http://54.235.29.9/FacialAge/BNav_EC2/DepthDuration/v2_depth_duration_MTurk/v2_DepthDuration_HTML.html#60,60,1354,604,1364,768,8-21-2022,6-38-12,42,depth_duration_stimuli/000409_2014-06-04_19-23-33_260595134347_rgbf000067-resize_0/000409_2014-06-04_19-23-33_260595134347_rgbf000067-resize_0-target.png,125,3.7335,0,2434,123,meters,jsons/VE125_randls_44.json,2354843,2726144,48,Woman
42,931948,DepthScenes,duration_manipulation_targetAtFixation,jsons/VE125_randls_44.json,http://54.235.29.9/FacialAge/BNav_EC2/DepthDuration/v2_depth_duration_MTurk/v2_DepthDuration_HTML.html#60,60,1354,604,1364,768,8-21-2022,6-38-12,43,depth_duration_stimuli/001164_2014-06-17_15-35-46_260595134347_rgbf000085-resize_3/001164_2014-06-17_15-35-46_260595134347_rgbf000085-resize_3-target.png,125,2.354,0,2274,116,meters,jsons/VE125_randls_44.json,2354843,2726144,48,Woman
43,931948,DepthScenes,duration_manipulation_targetAtFixation,jsons/VE125_randls_44.json,http://54.235.29.9/FacialAge/BNav_EC2/DepthDuration/v2_depth_duration_MTurk/v2_DepthDuration_HTML.html#60,60,1354,604,1364,768,8-21-2022,6-38-12,44,depth_duration_stimuli/001136_2014-06-17_15-19-41_260595134347_rgbf000076-resize_3/001136_2014-06-17_15-19-41_260595134347_rgbf000076-resize_3-target.png,125,1.8655,0,2094,123,meters,jsons/VE125_randls_44.json,2354843,2726144,48,Woman
44,931948,DepthScenes,duration_manipulation_targetAtFixation,jsons/VE125_randls_44.json,http://54.235.29.9/FacialAge/BNav_EC2/DepthDuration/v2_depth_duration_MTurk/v2_DepthDuration_HTML.html#60,60,1354,604,1364,768,8-21-2022,6-38-12,45,depth_duration_stimuli/000787_2014-06-08_22-33-53_260595134347_rgbf000175-resize_1/000787_2014-06-08_22-33-53_260595134347_rgbf000175-resize-original.jpg,125,4.784,0,2124,124,meters,jsons/VE125_randls_44.json,2354843,2726144,48,Woman
45,931948,DepthScenes,duration_manipulation_targetAtFixation,jsons/VE125_randls_44.json,http://54.235.29.9/FacialAge/BNav_EC2/DepthDuration/v2_depth_duration_MTurk/v2_DepthDuration_HTML.html#60,60,1354,604,1364,768,8-21-2022,6-38-12,46,depth_duration_stimuli/000878_2014-06-08_22-52-45_260595134347_rgbf000045-resize_2/000878_2014-06-08_22-52-45_260595134347_rgbf000045-resize_2-target.png,125,2.092,0,2193,198,meters,jsons/VE125_randls_44.json,2354843,2726144,48,Woman
46,931948,DepthScenes,duration_manipulation_targetAtFixation,jsons/VE125_randls_44.json,http://54.235.29.9/FacialAge/BNav_EC2/DepthDuration/v2_depth_duration_MTurk/v2_DepthDuration_HTML.html#60,60,1354,604,1364,768,8-21-2022,6-38-12,47,depth_duration_stimuli/002953_2014-06-08_17-32-18_094959634447_rgbf000059-resize_5/002953_2014-06-08_17-32-18_094959634447_rgbf000059-resize_5-target.png,125,1.551,0,4506,124,meters,jsons/VE125_randls_44.json,2354843,2726144,48,Woman
47,931948,DepthScenes,duration_manipulation_targetAtFixation,jsons/VE125_randls_44.json,http://54.235.29.9/FacialAge/BNav_EC2/DepthDuration/v2_depth_duration_MTurk/v2_DepthDuration_HTML.html#60,60,1354,604,1364,768,8-21-2022,6-38-12,48,depth_duration_stimuli/001199_2014-06-17_16-03-48_260595134347_rgbf000077-resize_0/001199_2014-06-17_16-03-48_260595134347_rgbf000077-resize_0-target.png,125,3.4375,2,3741,121,meters,jsons/VE125_randls_44.json,2354843,2726144,48,Woman
48,931948,DepthScenes,duration_manipulation_targetAtFixation,jsons/VE125_randls_44.json,http://54.235.29.9/FacialAge/BNav_EC2/DepthDuration/v2_depth_duration_MTurk/v2_DepthDuration_HTML.html#60,60,1354,604,1364,768,8-21-2022,6-38-12,49,depth_duration_stimuli/000502_2014-06-08_23-02-32_260595134347_rgbf000063-resize_4/000502_2014-06-08_23-02-32_260595134347_rgbf000063-resize_4-target.png,125,2.431,2,3006,124,meters,jsons/VE125_randls_44.json,2354843,2726144,48,Woman
49,931948,DepthScenes,duration_manipulation_targetAtFixation,jsons/VE125_randls_44.json,http://54.235.29.9/FacialAge/BNav_EC2/DepthDuration/v2_depth_duration_MTurk/v2_DepthDuration_HTML.html#60,60,1354,604,1364,768,8-21-2022,6-38-12,50,depth_duration_stimuli/001806_2014-06-26_20-50-20_260595134347_rgbf000091-resize_1/001806_2014-06-26_20-50-20_260595134347_rgbf000091-resize_1-target.png,125,2.7305,0,2897,193,meters,jsons/VE125_randls_44.json,2354843,2726144,48,Woman
50,931948,DepthScenes,duration_manipulation_targetAtFixation,jsons/VE125_randls_44.json,http://54.235.29.9/FacialAge/BNav_EC2/DepthDuration/v2_depth_duration_MTurk/v2_DepthDuration_HTML.html#60,60,1354,604,1364,768,8-21-2022,6-38-12,51,depth_duration_stimuli/001617_2014-06-20_11-35-32_260595134347_rgbf000066-resize_1/001617_2014-06-20_11-35-32_260595134347_rgbf000066-resize_1-target.png,125,3.7910000000000004,2,2015,112,meters,jsons/VE125_randls_44.json,2354843,2726144,48,Woman
51,931948,DepthScenes,duration_manipulation_targetAtFixation,jsons/VE125_randls_44.json,http://54.235.29.9/FacialAge/BNav_EC2/DepthDuration/v2_depth_duration_MTurk/v2_DepthDuration_HTML.html#60,60,1354,604,1364,768,8-21-2022,6-38-12,52,depth_duration_stimuli/003621_2014-05-23_18-06-08_094959634447_rgbf000101-resize_1/003621_2014-05-23_18-06-08_094959634447_rgbf000101-resize_1-target.png,125,3.9835,2,2699,125,meters,jsons/VE125_randls_44.json,2354843,2726144,48,Woman
52,931948,DepthScenes,duration_manipulation_targetAtFixation,jsons/VE125_randls_44.json,http://54.235.29.9/FacialAge/BNav_EC2/DepthDuration/v2_depth_duration_MTurk/v2_DepthDuration_HTML.html#60,60,1354,604,1364,768,8-21-2022,6-38-12,53,depth_duration_stimuli/001584_2014-06-20_11-07-43_260595134347_rgbf000002-resize_1/001584_2014-06-20_11-07-43_260595134347_rgbf000002-resize_1-target.png,125,3.53,0,2173,93,meters,jsons/VE125_randls_44.json,2354843,2726144,48,Woman
53,931948,DepthScenes,duration_manipulation_targetAtFixation,jsons/VE125_randls_44.json,http://54.235.29.9/FacialAge/BNav_EC2/DepthDuration/v2_depth_duration_MTurk/v2_DepthDuration_HTML.html#60,60,1354,604,1364,768,8-21-2022,6-38-12,54,depth_duration_stimuli/001016_2014-06-09_16-16-10_260595134347_rgbf000112-resize_5/001016_2014-06-09_16-16-10_260595134347_rgbf000112-resize_5-target.png,125,1.6565,2,2220,113,meters,jsons/VE125_randls_44.json,2354843,2726144,48,Woman
54,931948,DepthScenes,duration_manipulation_targetAtFixation,jsons/VE125_randls_44.json,http://54.235.29.9/FacialAge/BNav_EC2/DepthDuration/v2_depth_duration_MTurk/v2_DepthDuration_HTML.html#60,60,1354,604,1364,768,8-21-2022,6-38-12,55,depth_duration_stimuli/002340_2014-06-28_20-05-46_260595134347_rgbf000113-resize_0/002340_2014-06-28_20-05-46_260595134347_rgbf000113-resize_0-target.png,125,2.4735,0,2348,121,meters,jsons/VE125_randls_44.json,2354843,2726144,48,Woman
55,931948,DepthScenes,duration_manipulation_targetAtFixation,jsons/VE125_randls_44.json,http://54.235.29.9/FacialAge/BNav_EC2/DepthDuration/v2_depth_duration_MTurk/v2_DepthDuration_HTML.html#60,60,1354,604,1364,768,8-21-2022,6-38-12,56,depth_duration_stimuli/002630_2014-06-24_14-47-50_094959634447_rgbf000055-resize_1/002630_2014-06-24_14-47-50_094959634447_rgbf000055-resize_1-target.png,125,3.0095,1,2879,118,meters,jsons/VE125_randls_44.json,2354843,2726144,48,Woman
56,931948,DepthScenes,duration_manipulation_targetAtFixation,jsons/VE125_randls_44.json,http://54.235.29.9/FacialAge/BNav_EC2/DepthDuration/v2_depth_duration_MTurk/v2_DepthDuration_HTML.html#60,60,1354,604,1364,768,8-21-2022,6-38-12,57,depth_duration_stimuli/002758_2014-06-22_19-11-20_094959634447_rgbf000128-resize_1/002758_2014-06-22_19-11-20_094959634447_rgbf000128-resize_1-target.png,125,2.555,1,2893,123,meters,jsons/VE125_randls_44.json,2354843,2726144,48,Woman
57,931948,DepthScenes,duration_manipulation_targetAtFixation,jsons/VE125_randls_44.json,http://54.235.29.9/FacialAge/BNav_EC2/DepthDuration/v2_depth_duration_MTurk/v2_DepthDuration_HTML.html#60,60,1354,604,1364,768,8-21-2022,6-38-12,58,depth_duration_stimuli/003070_2014-06-15_14-58-27_094959634447_rgbf000150-resize_3/003070_2014-06-15_14-58-27_094959634447_rgbf000150-resize_3-target.png,125,2.9415,2,2569,124,meters,jsons/VE125_randls_44.json,2354843,2726144,48,Woman
58,931948,DepthScenes,duration_manipulation_targetAtFixation,jsons/VE125_randls_44.json,http://54.235.29.9/FacialAge/BNav_EC2/DepthDuration/v2_depth_duration_MTurk/v2_DepthDuration_HTML.html#60,60,1354,604,1364,768,8-21-2022,6-38-12,59,depth_duration_stimuli/000943_2014-06-09_19-31-07_260595134347_rgbf000128-resize_1/000943_2014-06-09_19-31-07_260595134347_rgbf000128-resize_1-target.png,125,1.9765,1,9834,124,meters,jsons/VE125_randls_44.json,2354843,2726144,48,Woman
59,931948,DepthScenes,duration_manipulation_targetAtFixation,jsons/VE125_randls_44.json,http://54.235.29.9/FacialAge/BNav_EC2/DepthDuration/v2_depth_duration_MTurk/v2_DepthDuration_HTML.html#60,60,1354,604,1364,768,8-21-2022,6-38-12,60,depth_duration_stimuli/002725_2014-06-22_11-47-51_094959634447_rgbf000070-resize_1/002725_2014-06-22_11-47-51_094959634447_rgbf000070-resize_1-target.png,125,2.195,13,4214,121,meters,jsons/VE125_randls_44.json,2354843,2726144,48,Woman
60,931948,DepthScenes,duration_manipulation_targetAtFixation,jsons/VE125_randls_44.json,http://54.235.29.9/FacialAge/BNav_EC2/DepthDuration/v2_depth_duration_MTurk/v2_DepthDuration_HTML.html#60,60,1354,604,1364,768,8-21-2022,6-38-12,61,depth_duration_stimuli/002344_2014-06-28_20-06-29_260595134347_rgbf000030-resize_1/002344_2014-06-28_20-06-29_260595134347_rgbf000030-resize_1-target.png,125,1.5795,2,4726,122,meters,jsons/VE125_randls_44.json,2354843,2726144,48,Woman
61,931948,DepthScenes,duration_manipulation_targetAtFixation,jsons/VE125_randls_44.json,http://54.235.29.9/FacialAge/BNav_EC2/DepthDuration/v2_depth_duration_MTurk/v2_DepthDuration_HTML.html#60,60,1354,604,1364,768,8-21-2022,6-38-12,62,depth_duration_stimuli/000522_2014-06-08_13-35-06_260595134347_rgbf000244-resize_1/000522_2014-06-08_13-35-06_260595134347_rgbf000244-resize_1-target.png,125,2.3715,1,2755,125,meters,jsons/VE125_randls_44.json,2354843,2726144,48,Woman
62,931948,DepthScenes,duration_manipulation_targetAtFixation,jsons/VE125_randls_44.json,http://54.235.29.9/FacialAge/BNav_EC2/DepthDuration/v2_depth_duration_MTurk/v2_DepthDuration_HTML.html#60,60,1354,604,1364,768,8-21-2022,6-38-12,63,depth_duration_stimuli/002949_2014-06-26_15-57-42_094959634447_rgbf000079-resize_1/002949_2014-06-26_15-57-42_094959634447_rgbf000079-resize_1-target.png,125,1.8915,2,2266,124,meters,jsons/VE125_randls_44.json,2354843,2726144,48,Woman
63,931948,DepthScenes,duration_manipulation_targetAtFixation,jsons/VE125_randls_44.json,http://54.235.29.9/FacialAge/BNav_EC2/DepthDuration/v2_depth_duration_MTurk/v2_DepthDuration_HTML.html#60,60,1354,604,1364,768,8-21-2022,6-38-12,64,depth_duration_stimuli/002989_2014-06-15_12-25-03_094959634447_rgbf000150-resize_3/002989_2014-06-15_12-25-03_094959634447_rgbf000150-resize_3-target.png,125,4.1975,2,15635,1,meters,jsons/VE125_randls_44.json,2354843,2726144,48,Woman
64,931948,DepthScenes,duration_manipulation_targetAtFixation,jsons/VE125_randls_44.json,http://54.235.29.9/FacialAge/BNav_EC2/DepthDuration/v2_depth_duration_MTurk/v2_DepthDuration_HTML.html#60,60,1354,604,1364,768,8-21-2022,6-38-12,65,depth_duration_stimuli/000866_2014-06-09_20-45-42_260595134347_rgbf000139-resize_1/000866_2014-06-09_20-45-42_260595134347_rgbf000139-resize_1-target.png,125,3.2155,1,4144,125,meters,jsons/VE125_randls_44.json,2354843,2726144,48,Woman
65,931948,DepthScenes,duration_manipulation_targetAtFixation,jsons/VE125_randls_44.json,http://54.235.29.9/FacialAge/BNav_EC2/DepthDuration/v2_depth_duration_MTurk/v2_DepthDuration_HTML.html#60,60,1354,604,1364,768,8-21-2022,6-38-12,66,depth_duration_stimuli/001222_2014-06-17_16-24-06_260595134347_rgbf000073-resize_0/001222_2014-06-17_16-24-06_260595134347_rgbf000073-resize-original.jpg,125,1.4385,2,6916,126,meters,jsons/VE125_randls_44.json,2354843,2726144,48,Woman
66,931948,DepthScenes,duration_manipulation_targetAtFixation,jsons/VE125_randls_44.json,http://54.235.29.9/FacialAge/BNav_EC2/DepthDuration/v2_depth_duration_MTurk/v2_DepthDuration_HTML.html#60,60,1354,604,1364,768,8-21-2022,6-38-12,67,depth_duration_stimuli/000447_2014-06-08_16-15-46_260595134347_rgbf000130-resize_1/000447_2014-06-08_16-15-46_260595134347_rgbf000130-resize_1-target.png,125,4.479,2,43286,128,meters,jsons/VE125_randls_44.json,2354843,2726144,48,Woman
67,931948,DepthScenes,duration_manipulation_targetAtFixation,jsons/VE125_randls_44.json,http://54.235.29.9/FacialAge/BNav_EC2/DepthDuration/v2_depth_duration_MTurk/v2_DepthDuration_HTML.html#60,60,1354,604,1364,768,8-21-2022,6-38-12,68,depth_duration_stimuli/001447_2014-06-19_17-00-32_260595134347_rgbf000082-resize_5/001447_2014-06-19_17-00-32_260595134347_rgbf000082-resize_5-target.png,125,4.13775,1,2371,137,meters,jsons/VE125_randls_44.json,2354843,2726144,48,Woman
68,931948,DepthScenes,duration_manipulation_targetAtFixation,jsons/VE125_randls_44.json,http://54.235.29.9/FacialAge/BNav_EC2/DepthDuration/v2_depth_duration_MTurk/v2_DepthDuration_HTML.html#60,60,1354,604,1364,768,8-21-2022,6-38-12,69,depth_duration_stimuli/000682_2014-06-08_23-14-58_260595134347_rgbf000041-resize_5/000682_2014-06-08_23-14-58_260595134347_rgbf000041-resize_5-target.png,125,2.7239999999999998,2,2421,126,meters,jsons/VE125_randls_44.json,2354843,2726144,48,Woman
69,931948,DepthScenes,duration_manipulation_targetAtFixation,jsons/VE125_randls_44.json,http://54.235.29.9/FacialAge/BNav_EC2/DepthDuration/v2_depth_duration_MTurk/v2_DepthDuration_HTML.html#60,60,1354,604,1364,768,8-21-2022,6-38-12,70,depth_duration_stimuli/001650_2014-06-20_12-09-00_260595134347_rgbf000087-resize_3/001650_2014-06-20_12-09-00_260595134347_rgbf000087-resize_3-target.png,125,1.9505,1,2934,125,meters,jsons/VE125_randls_44.json,2354843,2726144,48,Woman
70,931948,DepthScenes,duration_manipulation_targetAtFixation,jsons/VE125_randls_44.json,http://54.235.29.9/FacialAge/BNav_EC2/DepthDuration/v2_depth_duration_MTurk/v2_DepthDuration_HTML.html#60,60,1354,604,1364,768,8-21-2022,6-38-12,71,depth_duration_stimuli/002549_2014-06-24_13-41-39_094959634447_rgbf000022-resize_3/002549_2014-06-24_13-41-39_094959634447_rgbf000022-resize_3-target.png,125,1.476,1,8179,123,meters,jsons/VE125_randls_44.json,2354843,2726144,48,Woman
71,931948,DepthScenes,duration_manipulation_targetAtFixation,jsons/VE125_randls_44.json,http://54.235.29.9/FacialAge/BNav_EC2/DepthDuration/v2_depth_duration_MTurk/v2_DepthDuration_HTML.html#60,60,1354,604,1364,768,8-21-2022,6-38-12,72,depth_duration_stimuli/002750_2014-06-22_19-08-03_094959634447_rgbf000094-resize_4/002750_2014-06-22_19-08-03_094959634447_rgbf000094-resize_4-target.png,125,2.354,2,2934,122,meters,jsons/VE125_randls_44.json,2354843,2726144,48,Woman
72,931948,DepthScenes,duration_manipulation_targetAtFixation,jsons/VE125_randls_44.json,http://54.235.29.9/FacialAge/BNav_EC2/DepthDuration/v2_depth_duration_MTurk/v2_DepthDuration_HTML.html#60,60,1354,604,1364,768,8-21-2022,6-38-12,73,depth_duration_stimuli/000917_2014-06-09_22-45-29_260595134347_rgbf000149-resize_3/000917_2014-06-09_22-45-29_260595134347_rgbf000149-resize_3-target.png,125,4.1865,1,4634,85,meters,jsons/VE125_randls_44.json,2354843,2726144,48,Woman
73,931948,DepthScenes,duration_manipulation_targetAtFixation,jsons/VE125_randls_44.json,http://54.235.29.9/FacialAge/BNav_EC2/DepthDuration/v2_depth_duration_MTurk/v2_DepthDuration_HTML.html#60,60,1354,604,1364,768,8-21-2022,6-38-12,74,depth_duration_stimuli/002323_2014-06-28_20-01-54_260595134347_rgbf000051-resize_4/002323_2014-06-28_20-01-54_260595134347_rgbf000051-resize_4-target.png,125,3.7310000000000003,2,5962,120,meters,jsons/VE125_randls_44.json,2354843,2726144,48,Woman
74,931948,DepthScenes,duration_manipulation_targetAtFixation,jsons/VE125_randls_44.json,http://54.235.29.9/FacialAge/BNav_EC2/DepthDuration/v2_depth_duration_MTurk/v2_DepthDuration_HTML.html#60,60,1354,604,1364,768,8-21-2022,6-38-12,75,depth_duration_stimuli/001158_2014-06-17_15-32-16_260595134347_rgbf000138-resize_2/001158_2014-06-17_15-32-16_260595134347_rgbf000138-resize_2-target.png,125,4.5315,2,3528,125,meters,jsons/VE125_randls_44.json,2354843,2726144,48,Woman
75,931948,DepthScenes,duration_manipulation_targetAtFixation,jsons/VE125_randls_44.json,http://54.235.29.9/FacialAge/BNav_EC2/DepthDuration/v2_depth_duration_MTurk/v2_DepthDuration_HTML.html#60,60,1354,604,1364,768,8-21-2022,6-38-12,76,depth_duration_stimuli/000556_2014-06-09_22-42-56_260595134347_rgbf000214-resize_1/000556_2014-06-09_22-42-56_260595134347_rgbf000214-resize_1-target.png,125,4.8415,2,6042,115,meters,jsons/VE125_randls_44.json,2354843,2726144,48,Woman
76,931948,DepthScenes,duration_manipulation_targetAtFixation,jsons/VE125_randls_44.json,http://54.235.29.9/FacialAge/BNav_EC2/DepthDuration/v2_depth_duration_MTurk/v2_DepthDuration_HTML.html#60,60,1354,604,1364,768,8-21-2022,6-38-12,77,depth_duration_stimuli/003534_2014-05-22_15-06-10_094959634447_rgbf000102-resize_4/003534_2014-05-22_15-06-10_094959634447_rgbf000102-resize_4-target.png,125,1.426,6,5638,123,meters,jsons/VE125_randls_44.json,2354843,2726144,48,Woman
77,931948,DepthScenes,duration_manipulation_targetAtFixation,jsons/VE125_randls_44.json,http://54.235.29.9/FacialAge/BNav_EC2/DepthDuration/v2_depth_duration_MTurk/v2_DepthDuration_HTML.html#60,60,1354,604,1364,768,8-21-2022,6-38-12,78,depth_duration_stimuli/002637_2014-06-24_14-51-13_094959634447_rgbf000066-resize_4/002637_2014-06-24_14-51-13_094959634447_rgbf000066-resize_4-target.png,125,1.9955,2,2520,121,meters,jsons/VE125_randls_44.json,2354843,2726144,48,Woman
78,931948,DepthScenes,duration_manipulation_targetAtFixation,jsons/VE125_randls_44.json,http://54.235.29.9/FacialAge/BNav_EC2/DepthDuration/v2_depth_duration_MTurk/v2_DepthDuration_HTML.html#60,60,1354,604,1364,768,8-21-2022,6-38-12,79,depth_duration_stimuli/000736_2014-06-08_18-24-15_260595134347_rgbf000206-resize_3/000736_2014-06-08_18-24-15_260595134347_rgbf000206-resize_3-target.png,125,3.515,3,2502,120,meters,jsons/VE125_randls_44.json,2354843,2726144,48,Woman
79,931948,DepthScenes,duration_manipulation_targetAtFixation,jsons/VE125_randls_44.json,http://54.235.29.9/FacialAge/BNav_EC2/DepthDuration/v2_depth_duration_MTurk/v2_DepthDuration_HTML.html#60,60,1354,604,1364,768,8-21-2022,6-38-12,80,depth_duration_stimuli/000137_2014-05-20_17-04-49_260595134347_rgbf000120-resize_1/000137_2014-05-20_17-04-49_260595134347_rgbf000120-resize_1-target.png,125,3.786,4,2952,150,meters,jsons/VE125_randls_44.json,2354843,2726144,48,Woman
80,931948,DepthScenes,duration_manipulation_targetAtFixation,jsons/VE125_randls_44.json,http://54.235.29.9/FacialAge/BNav_EC2/DepthDuration/v2_depth_duration_MTurk/v2_DepthDuration_HTML.html#60,60,1354,604,1364,768,8-21-2022,6-38-12,81,depth_duration_stimuli/002784_2014-06-22_19-26-30_094959634447_rgbf000083-resize_3/002784_2014-06-22_19-26-30_094959634447_rgbf000083-resize_3-target.png,125,1.8046666666667,32,2800,125,meters,jsons/VE125_randls_44.json,2354843,2726144,48,Woman
81,931948,DepthScenes,duration_manipulation_targetAtFixation,jsons/VE125_randls_44.json,http://54.235.29.9/FacialAge/BNav_EC2/DepthDuration/v2_depth_duration_MTurk/v2_DepthDuration_HTML.html#60,60,1354,604,1364,768,8-21-2022,6-38-12,82,depth_duration_stimuli/001100_2014-06-15_17-46-26_260595134347_rgbf000225-resize_2/001100_2014-06-15_17-46-26_260595134347_rgbf000225-resize_2-target.png,125,2.24,2,16520,113,meters,jsons/VE125_randls_44.json,2354843,2726144,48,Woman
82,931948,DepthScenes,duration_manipulation_targetAtFixation,jsons/VE125_randls_44.json,http://54.235.29.9/FacialAge/BNav_EC2/DepthDuration/v2_depth_duration_MTurk/v2_DepthDuration_HTML.html#60,60,1354,604,1364,768,8-21-2022,6-38-12,83,depth_duration_stimuli/002988_2014-06-15_12-24-20_094959634447_rgbf000150-resize_1/002988_2014-06-15_12-24-20_094959634447_rgbf000150-resize_1-target.png,125,4.7669999999999995,2,4688,124,meters,jsons/VE125_randls_44.json,2354843,2726144,48,Woman
83,931948,DepthScenes,duration_manipulation_targetAtFixation,jsons/VE125_randls_44.json,http://54.235.29.9/FacialAge/BNav_EC2/DepthDuration/v2_depth_duration_MTurk/v2_DepthDuration_HTML.html#60,60,1354,604,1364,768,8-21-2022,6-38-12,84,depth_duration_stimuli/001052_2014-06-08_18-24-54_260595134347_rgbf000130-resize_1/001052_2014-06-08_18-24-54_260595134347_rgbf000130-resize_1-target.png,125,4.1045,2,2551,124,meters,jsons/VE125_randls_44.json,2354843,2726144,48,Woman
84,931948,DepthScenes,duration_manipulation_targetAtFixation,jsons/VE125_randls_44.json,http://54.235.29.9/FacialAge/BNav_EC2/DepthDuration/v2_depth_duration_MTurk/v2_DepthDuration_HTML.html#60,60,1354,604,1364,768,8-21-2022,6-38-12,85,depth_duration_stimuli/002509_2014-06-24_13-19-22_094959634447_rgbf000077-resize_0/002509_2014-06-24_13-19-22_094959634447_rgbf000077-resize_0-target.png,125,1.3065,5,2536,121,meters,jsons/VE125_randls_44.json,2354843,2726144,48,Woman
85,931948,DepthScenes,duration_manipulation_targetAtFixation,jsons/VE125_randls_44.json,http://54.235.29.9/FacialAge/BNav_EC2/DepthDuration/v2_depth_duration_MTurk/v2_DepthDuration_HTML.html#60,60,1354,604,1364,768,8-21-2022,6-38-12,86,depth_duration_stimuli/003338_2014-05-20_11-01-23_094959634447_rgbf000051-resize_6/003338_2014-05-20_11-01-23_094959634447_rgbf000051-resize_6-target.png,125,1.693,5,2304,122,meters,jsons/VE125_randls_44.json,2354843,2726144,48,Woman
86,931948,DepthScenes,duration_manipulation_targetAtFixation,jsons/VE125_randls_44.json,http://54.235.29.9/FacialAge/BNav_EC2/DepthDuration/v2_depth_duration_MTurk/v2_DepthDuration_HTML.html#60,60,1354,604,1364,768,8-21-2022,6-38-12,87,depth_duration_stimuli/001150_2014-06-17_15-27-34_260595134347_rgbf000108-resize_2/001150_2014-06-17_15-27-34_260595134347_rgbf000108-resize_2-target.png,125,4.0325,0,1886,127,meters,jsons/VE125_randls_44.json,2354843,2726144,48,Woman
87,931948,DepthScenes,duration_manipulation_targetAtFixation,jsons/VE125_randls_44.json,http://54.235.29.9/FacialAge/BNav_EC2/DepthDuration/v2_depth_duration_MTurk/v2_DepthDuration_HTML.html#60,60,1354,604,1364,768,8-21-2022,6-38-12,88,depth_duration_stimuli/000665_2014-06-09_20-42-35_260595134347_rgbf000110-resize_1/000665_2014-06-09_20-42-35_260595134347_rgbf000110-resize_1-target.png,125,3.057,4,2492,126,meters,jsons/VE125_randls_44.json,2354843,2726144,48,Woman
88,931948,DepthScenes,duration_manipulation_targetAtFixation,jsons/VE125_randls_44.json,http://54.235.29.9/FacialAge/BNav_EC2/DepthDuration/v2_depth_duration_MTurk/v2_DepthDuration_HTML.html#60,60,1354,604,1364,768,8-21-2022,6-38-12,89,depth_duration_stimuli/002043_2014-06-24_20-29-38_260595134347_rgbf000039-resize_4/002043_2014-06-24_20-29-38_260595134347_rgbf000039-resize_4-target.png,125,2.8435,5,2698,124,meters,jsons/VE125_randls_44.json,2354843,2726144,48,Woman
89,931948,DepthScenes,duration_manipulation_targetAtFixation,jsons/VE125_randls_44.json,http://54.235.29.9/FacialAge/BNav_EC2/DepthDuration/v2_depth_duration_MTurk/v2_DepthDuration_HTML.html#60,60,1354,604,1364,768,8-21-2022,6-38-12,90,depth_duration_stimuli/003048_2014-06-15_13-49-43_094959634447_rgbf000150-resize_1/003048_2014-06-15_13-49-43_094959634447_rgbf000150-resize_1-target.png,125,4.0035,5,2164,124,meters,jsons/VE125_randls_44.json,2354843,2726144,48,Woman
90,931948,DepthScenes,duration_manipulation_targetAtFixation,jsons/VE125_randls_44.json,http://54.235.29.9/FacialAge/BNav_EC2/DepthDuration/v2_depth_duration_MTurk/v2_DepthDuration_HTML.html#60,60,1354,604,1364,768,8-21-2022,6-38-12,91,depth_duration_stimuli/001167_2014-06-17_15-38-07_260595134347_rgbf000108-resize_0/001167_2014-06-17_15-38-07_260595134347_rgbf000108-resize_0-target.png,125,1.8505,5,2015,120,meters,jsons/VE125_randls_44.json,2354843,2726144,48,Woman
91,931948,DepthScenes,duration_manipulation_targetAtFixation,jsons/VE125_randls_44.json,http://54.235.29.9/FacialAge/BNav_EC2/DepthDuration/v2_depth_duration_MTurk/v2_DepthDuration_HTML.html#60,60,1354,604,1364,768,8-21-2022,6-38-12,92,depth_duration_stimuli/003587_2014-05-23_16-48-02_094959634447_rgbf002384-resize_2/003587_2014-05-23_16-48-02_094959634447_rgbf002384-resize_2-target.png,125,1.357,5,1957,142,meters,jsons/VE125_randls_44.json,2354843,2726144,48,Woman
92,931948,DepthScenes,duration_manipulation_targetAtFixation,jsons/VE125_randls_44.json,http://54.235.29.9/FacialAge/BNav_EC2/DepthDuration/v2_depth_duration_MTurk/v2_DepthDuration_HTML.html#60,60,1354,604,1364,768,8-21-2022,6-38-12,93,depth_duration_stimuli/001808_2014-06-26_20-50-58_260595134347_rgbf000029-resize_1/001808_2014-06-26_20-50-58_260595134347_rgbf000029-resize_1-target.png,125,4.249,6,1896,128,meters,jsons/VE125_randls_44.json,2354843,2726144,48,Woman
93,931948,DepthScenes,duration_manipulation_targetAtFixation,jsons/VE125_randls_44.json,http://54.235.29.9/FacialAge/BNav_EC2/DepthDuration/v2_depth_duration_MTurk/v2_DepthDuration_HTML.html#60,60,1354,604,1364,768,8-21-2022,6-38-12,94,depth_duration_stimuli/001815_2014-06-26_20-52-55_260595134347_rgbf000020-resize_0/001815_2014-06-26_20-52-55_260595134347_rgbf000020-resize_0-target.png,125,3.3865,4,2423,129,meters,jsons/VE125_randls_44.json,2354843,2726144,48,Woman
94,931948,DepthScenes,duration_manipulation_targetAtFixation,jsons/VE125_randls_44.json,http://54.235.29.9/FacialAge/BNav_EC2/DepthDuration/v2_depth_duration_MTurk/v2_DepthDuration_HTML.html#60,60,1354,604,1364,768,8-21-2022,6-38-12,95,depth_duration_stimuli/000469_2014-06-09_19-42-10_260595134347_rgbf000081-resize_1/000469_2014-06-09_19-42-10_260595134347_rgbf000081-resize_1-target.png,125,1.652,5,2934,124,meters,jsons/VE125_randls_44.json,2354843,2726144,48,Woman
95,931948,DepthScenes,duration_manipulation_targetAtFixation,jsons/VE125_randls_44.json,http://54.235.29.9/FacialAge/BNav_EC2/DepthDuration/v2_depth_duration_MTurk/v2_DepthDuration_HTML.html#60,60,1354,604,1364,768,8-21-2022,6-38-12,96,depth_duration_stimuli/000483_2014-06-09_20-41-45_260595134347_rgbf000116-resize_4/000483_2014-06-09_20-41-45_260595134347_rgbf000116-resize_4-target.png,125,1.337,8,2672,138,meters,jsons/VE125_randls_44.json,2354843,2726144,48,Woman
96,931948,DepthScenes,duration_manipulation_targetAtFixation,jsons/VE125_randls_44.json,http://54.235.29.9/FacialAge/BNav_EC2/DepthDuration/v2_depth_duration_MTurk/v2_DepthDuration_HTML.html#60,60,1354,604,1364,768,8-21-2022,6-38-12,97,depth_duration_stimuli/001092_2014-06-15_17-34-58_260595134347_rgbf000171-resize_3/001092_2014-06-15_17-34-58_260595134347_rgbf000171-resize_3-target.png,125,2.6935,8,3694,115,meters,jsons/VE125_randls_44.json,2354843,2726144,48,Woman
97,931948,DepthScenes,duration_manipulation_targetAtFixation,jsons/VE125_randls_44.json,http://54.235.29.9/FacialAge/BNav_EC2/DepthDuration/v2_depth_duration_MTurk/v2_DepthDuration_HTML.html#60,60,1354,604,1364,768,8-21-2022,6-38-12,98,depth_duration_stimuli/002545_2014-06-24_13-38-53_094959634447_rgbf000080-resize_4/002545_2014-06-24_13-38-53_094959634447_rgbf000080-resize_4-target.png,125,1.9205,5,7734,112,meters,jsons/VE125_randls_44.json,2354843,2726144,48,Woman
98,931948,DepthScenes,duration_manipulation_targetAtFixation,jsons/VE125_randls_44.json,http://54.235.29.9/FacialAge/BNav_EC2/DepthDuration/v2_depth_duration_MTurk/v2_DepthDuration_HTML.html#60,60,1354,604,1364,768,8-21-2022,6-38-12,99,depth_duration_stimuli/001540_2014-06-20_17-01-05_260595134347_rgbf000086-resize_2/001540_2014-06-20_17-01-05_260595134347_rgbf000086-resize-original.jpg,125,1.459,5,3100,115,meters,jsons/VE125_randls_44.json,2354843,2726144,48,Woman
99,931948,DepthScenes,duration_manipulation_targetAtFixation,jsons/VE125_randls_44.json,http://54.235.29.9/FacialAge/BNav_EC2/DepthDuration/v2_depth_duration_MTurk/v2_DepthDuration_HTML.html#60,60,1354,604,1364,768,8-21-2022,6-38-12,100,depth_duration_stimuli/001056_2014-06-08_18-46-44_260595134347_rgbf000068-resize_0/001056_2014-06-08_18-46-44_260595134347_rgbf000068-resize_0-target.png,125,2.6625,4,2532,124,meters,jsons/VE125_randls_44.json,2354843,2726144,48,Woman
100,931948,DepthScenes,duration_manipulation_targetAtFixation,jsons/VE125_randls_44.json,http://54.235.29.9/FacialAge/BNav_EC2/DepthDuration/v2_depth_duration_MTurk/v2_DepthDuration_HTML.html#60,60,1354,604,1364,768,8-21-2022,6-38-12,101,depth_duration_stimuli/002199_2014-06-28_18-33-56_260595134347_rgbf000074-resize_0/002199_2014-06-28_18-33-56_260595134347_rgbf000074-resize_0-target.png,125,1.996,6,2639,124,meters,jsons/VE125_randls_44.json,2354843,2726144,48,Woman
101,931948,DepthScenes,duration_manipulation_targetAtFixation,jsons/VE125_randls_44.json,http://54.235.29.9/FacialAge/BNav_EC2/DepthDuration/v2_depth_duration_MTurk/v2_DepthDuration_HTML.html#60,60,1354,604,1364,768,8-21-2022,6-38-12,102,depth_duration_stimuli/002905_2014-06-03_18-04-43_094959634447_rgbf000151-resize_2/002905_2014-06-03_18-04-43_094959634447_rgbf000151-resize_2-target.png,125,2.0295,5,2175,122,meters,jsons/VE125_randls_44.json,2354843,2726144,48,Woman
102,931948,DepthScenes,duration_manipulation_targetAtFixation,jsons/VE125_randls_44.json,http://54.235.29.9/FacialAge/BNav_EC2/DepthDuration/v2_depth_duration_MTurk/v2_DepthDuration_HTML.html#60,60,1354,604,1364,768,8-21-2022,6-38-12,103,depth_duration_stimuli/003423_2014-05-21_10-23-26_094959634447_rgbf002665-resize_2/003423_2014-05-21_10-23-26_094959634447_rgbf002665-resize_2-target.png,125,3.2575,5,2242,123,meters,jsons/VE125_randls_44.json,2354843,2726144,48,Woman
103,931948,DepthScenes,duration_manipulation_targetAtFixation,jsons/VE125_randls_44.json,http://54.235.29.9/FacialAge/BNav_EC2/DepthDuration/v2_depth_duration_MTurk/v2_DepthDuration_HTML.html#60,60,1354,604,1364,768,8-21-2022,6-38-12,104,depth_duration_stimuli/001066_2014-06-08_22-03-20_260595134347_rgbf000066-resize_4/001066_2014-06-08_22-03-20_260595134347_rgbf000066-resize_4-target.png,125,4.2330000000000005,5,1834,123,meters,jsons/VE125_randls_44.json,2354843,2726144,48,Woman
104,931948,DepthScenes,duration_manipulation_targetAtFixation,jsons/VE125_randls_44.json,http://54.235.29.9/FacialAge/BNav_EC2/DepthDuration/v2_depth_duration_MTurk/v2_DepthDuration_HTML.html#60,60,1354,604,1364,768,8-21-2022,6-38-12,105,depth_duration_stimuli/000742_2014-06-08_18-48-09_260595134347_rgbf000164-resize_4/000742_2014-06-08_18-48-09_260595134347_rgbf000164-resize_4-target.png,125,4.632,5,2726,130,meters,jsons/VE125_randls_44.json,2354843,2726144,48,Woman
105,931948,DepthScenes,duration_manipulation_targetAtFixation,jsons/VE125_randls_44.json,http://54.235.29.9/FacialAge/BNav_EC2/DepthDuration/v2_depth_duration_MTurk/v2_DepthDuration_HTML.html#60,60,1354,604,1364,768,8-21-2022,6-38-12,106,depth_duration_stimuli/001810_2014-06-26_20-51-35_260595134347_rgbf000040-resize_3/001810_2014-06-26_20-51-35_260595134347_rgbf000040-resize_3-target.png,125,2.2525,2,77235,127,meters,jsons/VE125_randls_44.json,2354843,2726144,48,Woman
106,931948,DepthScenes,duration_manipulation_targetAtFixation,jsons/VE125_randls_44.json,http://54.235.29.9/FacialAge/BNav_EC2/DepthDuration/v2_depth_duration_MTurk/v2_DepthDuration_HTML.html#60,60,1354,604,1364,768,8-21-2022,6-38-12,107,depth_duration_stimuli/003010_2014-06-15_12-54-35_094959634447_rgbf000112-resize_0/003010_2014-06-15_12-54-35_094959634447_rgbf000112-resize_0-target.png,125,3.1185,5,2412,112,meters,jsons/VE125_randls_44.json,2354843,2726144,48,Woman
107,931948,DepthScenes,duration_manipulation_targetAtFixation,jsons/VE125_randls_44.json,http://54.235.29.9/FacialAge/BNav_EC2/DepthDuration/v2_depth_duration_MTurk/v2_DepthDuration_HTML.html#60,60,1354,604,1364,768,8-21-2022,6-38-12,108,depth_duration_stimuli/002272_2014-06-28_18-53-56_260595134347_rgbf000067-resize_2/002272_2014-06-28_18-53-56_260595134347_rgbf000067-resize_2-target.png,125,1.138,5,2401,123,meters,jsons/VE125_randls_44.json,2354843,2726144,48,Woman
108,931948,DepthScenes,duration_manipulation_targetAtFixation,jsons/VE125_randls_44.json,http://54.235.29.9/FacialAge/BNav_EC2/DepthDuration/v2_depth_duration_MTurk/v2_DepthDuration_HTML.html#60,60,1354,604,1364,768,8-21-2022,6-38-12,109,depth_duration_stimuli/001571_2014-06-20_17-21-32_260595134347_rgbf000089-resize_1/001571_2014-06-20_17-21-32_260595134347_rgbf000089-resize_1-target.png,125,1.86,7,2373,123,meters,jsons/VE125_randls_44.json,2354843,2726144,48,Woman
109,931948,DepthScenes,duration_manipulation_targetAtFixation,jsons/VE125_randls_44.json,http://54.235.29.9/FacialAge/BNav_EC2/DepthDuration/v2_depth_duration_MTurk/v2_DepthDuration_HTML.html#60,60,1354,604,1364,768,8-21-2022,6-38-12,110,depth_duration_stimuli/002788_2014-06-22_19-36-03_094959634447_rgbf000088-resize_2/002788_2014-06-22_19-36-03_094959634447_rgbf000088-resize_2-target.png,125,1.6465,8,2484,123,meters,jsons/VE125_randls_44.json,2354843,2726144,48,Woman
110,931948,DepthScenes,duration_manipulation_targetAtFixation,jsons/VE125_randls_44.json,http://54.235.29.9/FacialAge/BNav_EC2/DepthDuration/v2_depth_duration_MTurk/v2_DepthDuration_HTML.html#60,60,1354,604,1364,768,8-21-2022,6-38-12,111,depth_duration_stimuli/000749_2014-06-08_21-55-06_260595134347_rgbf000070-resize_2/000749_2014-06-08_21-55-06_260595134347_rgbf000070-resize_2-target.png,125,2.331,6,2537,113,meters,jsons/VE125_randls_44.json,2354843,2726144,48,Woman
111,931948,DepthScenes,duration_manipulation_targetAtFixation,jsons/VE125_randls_44.json,http://54.235.29.9/FacialAge/BNav_EC2/DepthDuration/v2_depth_duration_MTurk/v2_DepthDuration_HTML.html#60,60,1354,604,1364,768,8-21-2022,6-38-12,112,depth_duration_stimuli/001244_2014-06-17_16-47-45_260595134347_rgbf000030-resize_4/001244_2014-06-17_16-47-45_260595134347_rgbf000030-resize_4-target.png,125,2.0425,5,2066,123,meters,jsons/VE125_randls_44.json,2354843,2726144,48,Woman
112,931948,DepthScenes,duration_manipulation_targetAtFixation,jsons/VE125_randls_44.json,http://54.235.29.9/FacialAge/BNav_EC2/DepthDuration/v2_depth_duration_MTurk/v2_DepthDuration_HTML.html#60,60,1354,604,1364,768,8-21-2022,6-38-12,113,depth_duration_stimuli/003495_2014-05-21_16-01-51_094959634447_rgbf000100-resize_3/003495_2014-05-21_16-01-51_094959634447_rgbf000100-resize_3-target.png,125,1.6255,5,2271,144,meters,jsons/VE125_randls_44.json,2354843,2726144,48,Woman
113,931948,DepthScenes,duration_manipulation_targetAtFixation,jsons/VE125_randls_44.json,http://54.235.29.9/FacialAge/BNav_EC2/DepthDuration/v2_depth_duration_MTurk/v2_DepthDuration_HTML.html#60,60,1354,604,1364,768,8-21-2022,6-38-12,114,depth_duration_stimuli/000906_2014-06-08_13-35-43_260595134347_rgbf000155-resize_1/000906_2014-06-08_13-35-43_260595134347_rgbf000155-resize_1-target.png,125,2.8489999999999998,5,2228,123,meters,jsons/VE125_randls_44.json,2354843,2726144,48,Woman
114,931948,DepthScenes,duration_manipulation_targetAtFixation,jsons/VE125_randls_44.json,http://54.235.29.9/FacialAge/BNav_EC2/DepthDuration/v2_depth_duration_MTurk/v2_DepthDuration_HTML.html#60,60,1354,604,1364,768,8-21-2022,6-38-12,115,depth_duration_stimuli/002805_2014-06-22_19-54-03_094959634447_rgbf000079-resize_1/002805_2014-06-22_19-54-03_094959634447_rgbf000079-resize_1-target.png,125,3.1439999999999997,5,2317,144,meters,jsons/VE125_randls_44.json,2354843,2726144,48,Woman
115,931948,DepthScenes,duration_manipulation_targetAtFixation,jsons/VE125_randls_44.json,http://54.235.29.9/FacialAge/BNav_EC2/DepthDuration/v2_depth_duration_MTurk/v2_DepthDuration_HTML.html#60,60,1354,604,1364,768,8-21-2022,6-38-12,116,depth_duration_stimuli/001170_2014-06-17_15-43-44_260595134347_rgbf000096-resize_6/001170_2014-06-17_15-43-44_260595134347_rgbf000096-resize-original.jpg,125,1.1909999999999998,5,1966,125,meters,jsons/VE125_randls_44.json,2354843,2726144,48,Woman
116,931948,DepthScenes,duration_manipulation_targetAtFixation,jsons/VE125_randls_44.json,http://54.235.29.9/FacialAge/BNav_EC2/DepthDuration/v2_depth_duration_MTurk/v2_DepthDuration_HTML.html#60,60,1354,604,1364,768,8-21-2022,6-38-12,117,depth_duration_stimuli/000414_2014-06-04_19-49-13_260595134347_rgbf000044-resize_0/000414_2014-06-04_19-49-13_260595134347_rgbf000044-resize_0-target.png,125,4.329,5,2328,123,meters,jsons/VE125_randls_44.json,2354843,2726144,48,Woman
117,931948,DepthScenes,duration_manipulation_targetAtFixation,jsons/VE125_randls_44.json,http://54.235.29.9/FacialAge/BNav_EC2/DepthDuration/v2_depth_duration_MTurk/v2_DepthDuration_HTML.html#60,60,1354,604,1364,768,8-21-2022,6-38-12,118,depth_duration_stimuli/003129_2014-05-12_10-48-10_094959634447_rgbf000100-resize_0/003129_2014-05-12_10-48-10_094959634447_rgbf000100-resize_0-target.png,125,4.9305,5,2373,123,meters,jsons/VE125_randls_44.json,2354843,2726144,48,Woman
118,931948,DepthScenes,duration_manipulation_targetAtFixation,jsons/VE125_randls_44.json,http://54.235.29.9/FacialAge/BNav_EC2/DepthDuration/v2_depth_duration_MTurk/v2_DepthDuration_HTML.html#60,60,1354,604,1364,768,8-21-2022,6-38-12,119,depth_duration_stimuli/002763_2014-06-22_19-13-10_094959634447_rgbf000075-resize_4/002763_2014-06-22_19-13-10_094959634447_rgbf000075-resize_4-target.png,125,1.68375,4,1842,126,meters,jsons/VE125_randls_44.json,2354843,2726144,48,Woman
119,931948,DepthScenes,duration_manipulation_targetAtFixation,jsons/VE125_randls_44.json,http://54.235.29.9/FacialAge/BNav_EC2/DepthDuration/v2_depth_duration_MTurk/v2_DepthDuration_HTML.html#60,60,1354,604,1364,768,8-21-2022,6-38-12,120,depth_duration_stimuli/002209_2014-06-28_18-36-10_260595134347_rgbf000051-resize_1/002209_2014-06-28_18-36-10_260595134347_rgbf000051-resize_1-target.png,125,2.057,8,2077,123,meters,jsons/VE125_randls_44.json,2354843,2726144,48,Woman
120,931948,DepthScenes,duration_manipulation_targetAtFixation,jsons/VE125_randls_44.json,http://54.235.29.9/FacialAge/BNav_EC2/DepthDuration/v2_depth_duration_MTurk/v2_DepthDuration_HTML.html#60,60,1354,604,1364,768,8-21-2022,6-38-12,121,depth_duration_stimuli/000436_2014-06-09_22-25-11_260595134347_rgbf000137-resize_1/000436_2014-06-09_22-25-11_260595134347_rgbf000137-resize_1-target.png,125,4.0705,9,2455,99,meters,jsons/VE125_randls_44.json,2354843,2726144,48,Woman
121,931948,DepthScenes,duration_manipulation_targetAtFixation,jsons/VE125_randls_44.json,http://54.235.29.9/FacialAge/BNav_EC2/DepthDuration/v2_depth_duration_MTurk/v2_DepthDuration_HTML.html#60,60,1354,604,1364,768,8-21-2022,6-38-12,122,depth_duration_stimuli/002444_2014-06-28_20-32-08_260595134347_rgbf000027-resize_0/002444_2014-06-28_20-32-08_260595134347_rgbf000027-resize_0-target.png,125,4.388999999999999,8,2227,126,meters,jsons/VE125_randls_44.json,2354843,2726144,48,Woman
122,931948,DepthScenes,duration_manipulation_targetAtFixation,jsons/VE125_randls_44.json,http://54.235.29.9/FacialAge/BNav_EC2/DepthDuration/v2_depth_duration_MTurk/v2_DepthDuration_HTML.html#60,60,1354,604,1364,768,8-21-2022,6-38-12,123,depth_duration_stimuli/001029_2014-06-08_13-17-57_260595134347_rgbf000065-resize_1/001029_2014-06-08_13-17-57_260595134347_rgbf000065-resize_1-target.png,125,3.0835,7,2399,121,meters,jsons/VE125_randls_44.json,2354843,2726144,48,Woman
123,931948,DepthScenes,duration_manipulation_targetAtFixation,jsons/VE125_randls_44.json,http://54.235.29.9/FacialAge/BNav_EC2/DepthDuration/v2_depth_duration_MTurk/v2_DepthDuration_HTML.html#60,60,1354,604,1364,768,8-21-2022,6-38-12,124,depth_duration_stimuli/000677_2014-06-08_23-10-32_260595134347_rgbf000158-resize_6/000677_2014-06-08_23-10-32_260595134347_rgbf000158-resize_6-target.png,125,3.556,8,2465,110,meters,jsons/VE125_randls_44.json,2354843,2726144,48,Woman
124,931948,DepthScenes,duration_manipulation_targetAtFixation,jsons/VE125_randls_44.json,http://54.235.29.9/FacialAge/BNav_EC2/DepthDuration/v2_depth_duration_MTurk/v2_DepthDuration_HTML.html#60,60,1354,604,1364,768,8-21-2022,6-38-12,125,depth_duration_stimuli/001059_2014-06-08_21-53-27_260595134347_rgbf000061-resize_4/001059_2014-06-08_21-53-27_260595134347_rgbf000061-resize_4-target.png,125,2.4185,7,2020,122,meters,jsons/VE125_randls_44.json,2354843,2726144,48,Woman
125,931948,DepthScenes,duration_manipulation_targetAtFixation,jsons/VE125_randls_44.json,http://54.235.29.9/FacialAge/BNav_EC2/DepthDuration/v2_depth_duration_MTurk/v2_DepthDuration_HTML.html#60,60,1354,604,1364,768,8-21-2022,6-38-12,126,depth_duration_stimuli/001032_2014-06-08_13-23-17_260595134347_rgbf000021-resize_3/001032_2014-06-08_13-23-17_260595134347_rgbf000021-resize_3-target.png,125,3.2725,7,2238,139,meters,jsons/VE125_randls_44.json,2354843,2726144,48,Woman
126,931948,DepthScenes,duration_manipulation_targetAtFixation,jsons/VE125_randls_44.json,http://54.235.29.9/FacialAge/BNav_EC2/DepthDuration/v2_depth_duration_MTurk/v2_DepthDuration_HTML.html#60,60,1354,604,1364,768,8-21-2022,6-38-12,127,depth_duration_stimuli/002964_2014-06-08_17-46-11_094959634447_rgbf000091-resize_4/002964_2014-06-08_17-46-11_094959634447_rgbf000091-resize_4-target.png,125,1.6909999999999998,7,1994,124,meters,jsons/VE125_randls_44.json,2354843,2726144,48,Woman
127,931948,DepthScenes,duration_manipulation_targetAtFixation,jsons/VE125_randls_44.json,http://54.235.29.9/FacialAge/BNav_EC2/DepthDuration/v2_depth_duration_MTurk/v2_DepthDuration_HTML.html#60,60,1354,604,1364,768,8-21-2022,6-38-12,128,depth_duration_stimuli/002136_2014-06-25_21-18-03_260595134347_rgbf000109-resize_3/002136_2014-06-25_21-18-03_260595134347_rgbf000109-resize_3-target.png,125,1.9569999999999999,7,1900,144,meters,jsons/VE125_randls_44.json,2354843,2726144,48,Woman
128,931948,DepthScenes,duration_manipulation_targetAtFixation,jsons/VE125_randls_44.json,http://54.235.29.9/FacialAge/BNav_EC2/DepthDuration/v2_depth_duration_MTurk/v2_DepthDuration_HTML.html#60,60,1354,604,1364,768,8-21-2022,6-38-12,129,depth_duration_stimuli/001011_2014-06-08_23-18-54_260595134347_rgbf000044-resize_4/001011_2014-06-08_23-18-54_260595134347_rgbf000044-resize_4-target.png,125,2.4730000000000003,5,2079,52,meters,jsons/VE125_randls_44.json,2354843,2726144,48,Woman
129,931948,DepthScenes,duration_manipulation_targetAtFixation,jsons/VE125_randls_44.json,http://54.235.29.9/FacialAge/BNav_EC2/DepthDuration/v2_depth_duration_MTurk/v2_DepthDuration_HTML.html#60,60,1354,604,1364,768,8-21-2022,6-38-12,130,depth_duration_stimuli/002875_2014-06-01_15-19-00_094959634447_rgbf000151-resize_1/002875_2014-06-01_15-19-00_094959634447_rgbf000151-resize_1-target.png,125,1.9675,5,2269,122,meters,jsons/VE125_randls_44.json,2354843,2726144,48,Woman
130,931948,DepthScenes,duration_manipulation_targetAtFixation,jsons/VE125_randls_44.json,http://54.235.29.9/FacialAge/BNav_EC2/DepthDuration/v2_depth_duration_MTurk/v2_DepthDuration_HTML.html#60,60,1354,604,1364,768,8-21-2022,6-38-12,131,depth_duration_stimuli/001055_2014-06-08_18-45-35_260595134347_rgbf000111-resize_4/001055_2014-06-08_18-45-35_260595134347_rgbf000111-resize_4-target.png,125,2.4290000000000003,5,2139,124,meters,jsons/VE125_randls_44.json,2354843,2726144,48,Woman
131,931948,DepthScenes,duration_manipulation_targetAtFixation,jsons/VE125_randls_44.json,http://54.235.29.9/FacialAge/BNav_EC2/DepthDuration/v2_depth_duration_MTurk/v2_DepthDuration_HTML.html#60,60,1354,604,1364,768,8-21-2022,6-38-12,132,depth_duration_stimuli/000549_2014-06-08_22-10-24_260595134347_rgbf000247-resize_3/000549_2014-06-08_22-10-24_260595134347_rgbf000247-resize_3-target.png,125,1.841,8,1985,137,meters,jsons/VE125_randls_44.json,2354843,2726144,48,Woman
132,931948,DepthScenes,duration_manipulation_targetAtFixation,jsons/VE125_randls_44.json,http://54.235.29.9/FacialAge/BNav_EC2/DepthDuration/v2_depth_duration_MTurk/v2_DepthDuration_HTML.html#60,60,1354,604,1364,768,8-21-2022,6-38-12,133,depth_duration_stimuli/001449_2014-06-19_17-01-27_260595134347_rgbf000116-resize_2/001449_2014-06-19_17-01-27_260595134347_rgbf000116-resize_2-target.png,125,3.452,8,1884,126,meters,jsons/VE125_randls_44.json,2354843,2726144,48,Woman
133,931948,DepthScenes,duration_manipulation_targetAtFixation,jsons/VE125_randls_44.json,http://54.235.29.9/FacialAge/BNav_EC2/DepthDuration/v2_depth_duration_MTurk/v2_DepthDuration_HTML.html#60,60,1354,604,1364,768,8-21-2022,6-38-12,134,depth_duration_stimuli/001450_2014-06-19_17-02-03_260595134347_rgbf000203-resize_4/001450_2014-06-19_17-02-03_260595134347_rgbf000203-resize_4-target.png,125,4.0106666666667,8,1725,124,meters,jsons/VE125_randls_44.json,2354843,2726144,48,Woman
134,931948,DepthScenes,duration_manipulation_targetAtFixation,jsons/VE125_randls_44.json,http://54.235.29.9/FacialAge/BNav_EC2/DepthDuration/v2_depth_duration_MTurk/v2_DepthDuration_HTML.html#60,60,1354,604,1364,768,8-21-2022,6-38-12,135,depth_duration_stimuli/002072_2014-06-24_21-48-06_260595134347_rgbf000115-resize_0/002072_2014-06-24_21-48-06_260595134347_rgbf000115-resize-original.jpg,125,4.702,8,1979,125,meters,jsons/VE125_randls_44.json,2354843,2726144,48,Woman
135,931948,DepthScenes,duration_manipulation_targetAtFixation,jsons/VE125_randls_44.json,http://54.235.29.9/FacialAge/BNav_EC2/DepthDuration/v2_depth_duration_MTurk/v2_DepthDuration_HTML.html#60,60,1354,604,1364,768,8-21-2022,6-38-12,136,depth_duration_stimuli/000493_2014-06-09_21-01-18_260595134347_rgbf000196-resize_3/000493_2014-06-09_21-01-18_260595134347_rgbf000196-resize_3-target.png,125,3.44,8,2252,126,meters,jsons/VE125_randls_44.json,2354843,2726144,48,Woman
136,931948,DepthScenes,duration_manipulation_targetAtFixation,jsons/VE125_randls_44.json,http://54.235.29.9/FacialAge/BNav_EC2/DepthDuration/v2_depth_duration_MTurk/v2_DepthDuration_HTML.html#60,60,1354,604,1364,768,8-21-2022,6-38-12,137,depth_duration_stimuli/000191_2014-05-12_17-07-38_260595134347_rgbf000199-resize_0/000191_2014-05-12_17-07-38_260595134347_rgbf000199-resize_0-target.png,125,3.7995,8,1849,125,meters,jsons/VE125_randls_44.json,2354843,2726144,48,Woman
137,931948,DepthScenes,duration_manipulation_targetAtFixation,jsons/VE125_randls_44.json,http://54.235.29.9/FacialAge/BNav_EC2/DepthDuration/v2_depth_duration_MTurk/v2_DepthDuration_HTML.html#60,60,1354,604,1364,768,8-21-2022,6-38-12,138,depth_duration_stimuli/002057_2014-06-24_21-00-13_260595134347_rgbf000120-resize_1/002057_2014-06-24_21-00-13_260595134347_rgbf000120-resize_1-target.png,125,2.967,8,2462,125,meters,jsons/VE125_randls_44.json,2354843,2726144,48,Woman
138,931948,DepthScenes,duration_manipulation_targetAtFixation,jsons/VE125_randls_44.json,http://54.235.29.9/FacialAge/BNav_EC2/DepthDuration/v2_depth_duration_MTurk/v2_DepthDuration_HTML.html#60,60,1354,604,1364,768,8-21-2022,6-38-12,139,depth_duration_stimuli/000709_2014-06-08_13-51-55_260595134347_rgbf000068-resize_3/000709_2014-06-08_13-51-55_260595134347_rgbf000068-resize_3-target.png,125,1.8030000000000002,5,2255,174,meters,jsons/VE125_randls_44.json,2354843,2726144,48,Woman
139,931948,DepthScenes,duration_manipulation_targetAtFixation,jsons/VE125_randls_44.json,http://54.235.29.9/FacialAge/BNav_EC2/DepthDuration/v2_depth_duration_MTurk/v2_DepthDuration_HTML.html#60,60,1354,604,1364,768,8-21-2022,6-38-12,140,depth_duration_stimuli/000788_2014-06-08_22-34-36_260595134347_rgbf000131-resize_1/000788_2014-06-08_22-34-36_260595134347_rgbf000131-resize_1-target.png,125,3.359,8,2412,139,meters,jsons/VE125_randls_44.json,2354843,2726144,48,Woman
140,931948,DepthScenes,duration_manipulation_targetAtFixation,jsons/VE125_randls_44.json,http://54.235.29.9/FacialAge/BNav_EC2/DepthDuration/v2_depth_duration_MTurk/v2_DepthDuration_HTML.html#60,60,1354,604,1364,768,8-21-2022,6-38-12,141,depth_duration_stimuli/001235_2014-06-17_16-37-36_260595134347_rgbf000084-resize_4/001235_2014-06-17_16-37-36_260595134347_rgbf000084-resize_4-target.png,125,3.6605,8,1802,49,meters,jsons/VE125_randls_44.json,2354843,2726144,48,Woman
141,931948,DepthScenes,duration_manipulation_targetAtFixation,jsons/VE125_randls_44.json,http://54.235.29.9/FacialAge/BNav_EC2/DepthDuration/v2_depth_duration_MTurk/v2_DepthDuration_HTML.html#60,60,1354,604,1364,768,8-21-2022,6-38-12,142,depth_duration_stimuli/000758_2014-06-08_22-05-08_260595134347_rgbf000085-resize_0/000758_2014-06-08_22-05-08_260595134347_rgbf000085-resize_0-target.png,125,3.3810000000000002,8,1738,153,meters,jsons/VE125_randls_44.json,2354843,2726144,48,Woman
142,931948,DepthScenes,duration_manipulation_targetAtFixation,jsons/VE125_randls_44.json,http://54.235.29.9/FacialAge/BNav_EC2/DepthDuration/v2_depth_duration_MTurk/v2_DepthDuration_HTML.html#60,60,1354,604,1364,768,8-21-2022,6-38-12,143,depth_duration_stimuli/000854_2014-06-09_19-43-13_260595134347_rgbf000066-resize_0/000854_2014-06-09_19-43-13_260595134347_rgbf000066-resize_0-target.png,125,3.068,8,2247,124,meters,jsons/VE125_randls_44.json,2354843,2726144,48,Woman
143,931948,DepthScenes,duration_manipulation_targetAtFixation,jsons/VE125_randls_44.json,http://54.235.29.9/FacialAge/BNav_EC2/DepthDuration/v2_depth_duration_MTurk/v2_DepthDuration_HTML.html#60,60,1354,604,1364,768,8-21-2022,6-38-12,144,depth_duration_stimuli/003492_2014-05-21_15-50-55_094959634447_rgbf000828-resize_1/003492_2014-05-21_15-50-55_094959634447_rgbf000828-resize_1-target.png,125,4.06875,4,3048,124,meters,jsons/VE125_randls_44.json,2354843,2726144,48,Woman
144,931948,DepthScenes,duration_manipulation_targetAtFixation,jsons/VE125_randls_44.json,http://54.235.29.9/FacialAge/BNav_EC2/DepthDuration/v2_depth_duration_MTurk/v2_DepthDuration_HTML.html#60,60,1354,604,1364,768,8-21-2022,6-38-12,145,depth_duration_stimuli/002568_2014-06-24_13-59-21_094959634447_rgbf000062-resize_4/002568_2014-06-24_13-59-21_094959634447_rgbf000062-resize_4-target.png,125,3.015,7,2262,115,meters,jsons/VE125_randls_44.json,2354843,2726144,48,Woman
145,931948,DepthScenes,duration_manipulation_targetAtFixation,jsons/VE125_randls_44.json,http://54.235.29.9/FacialAge/BNav_EC2/DepthDuration/v2_depth_duration_MTurk/v2_DepthDuration_HTML.html#60,60,1354,604,1364,768,8-21-2022,6-38-12,146,depth_duration_stimuli/001498_2014-06-19_17-45-14_260595134347_rgbf000129-resize_4/001498_2014-06-19_17-45-14_260595134347_rgbf000129-resize-original.jpg,125,1.4075,7,3320,123,meters,jsons/VE125_randls_44.json,2354843,2726144,48,Woman
146,931948,DepthScenes,duration_manipulation_targetAtFixation,jsons/VE125_randls_44.json,http://54.235.29.9/FacialAge/BNav_EC2/DepthDuration/v2_depth_duration_MTurk/v2_DepthDuration_HTML.html#60,60,1354,604,1364,768,8-21-2022,6-38-12,147,depth_duration_stimuli/002748_2014-06-22_19-07-22_094959634447_rgbf000078-resize_1/002748_2014-06-22_19-07-22_094959634447_rgbf000078-resize_1-target.png,125,4.6705,7,1890,125,meters,jsons/VE125_randls_44.json,2354843,2726144,48,Woman
147,931948,DepthScenes,duration_manipulation_targetAtFixation,jsons/VE125_randls_44.json,http://54.235.29.9/FacialAge/BNav_EC2/DepthDuration/v2_depth_duration_MTurk/v2_DepthDuration_HTML.html#60,60,1354,604,1364,768,8-21-2022,6-38-12,148,depth_duration_stimuli/002995_2014-06-15_12-31-26_094959634447_rgbf000150-resize_1/002995_2014-06-15_12-31-26_094959634447_rgbf000150-resize_1-target.png,125,3.8360000000000003,7,1723,123,meters,jsons/VE125_randls_44.json,2354843,2726144,48,Woman
148,931948,DepthScenes,duration_manipulation_targetAtFixation,jsons/VE125_randls_44.json,http://54.235.29.9/FacialAge/BNav_EC2/DepthDuration/v2_depth_duration_MTurk/v2_DepthDuration_HTML.html#60,60,1354,604,1364,768,8-21-2022,6-38-12,149,depth_duration_stimuli/003292_2014-05-14_21-53-49_094959634447_rgbf000100-resize_2/003292_2014-05-14_21-53-49_094959634447_rgbf000100-resize_2-target.png,125,3.4815,7,1681,125,meters,jsons/VE125_randls_44.json,2354843,2726144,48,Woman
149,931948,DepthScenes,duration_manipulation_targetAtFixation,jsons/VE125_randls_44.json,http://54.235.29.9/FacialAge/BNav_EC2/DepthDuration/v2_depth_duration_MTurk/v2_DepthDuration_HTML.html#60,60,1354,604,1364,768,8-21-2022,6-38-12,150,depth_duration_stimuli/002639_2014-06-24_14-51-37_094959634447_rgbf000074-resize_4/002639_2014-06-24_14-51-37_094959634447_rgbf000074-resize_4-target.png,125,4.0375,7,1674,124,meters,jsons/VE125_randls_44.json,2354843,2726144,48,Woman
150,931948,DepthScenes,duration_manipulation_targetAtFixation,jsons/VE125_randls_44.json,http://54.235.29.9/FacialAge/BNav_EC2/DepthDuration/v2_depth_duration_MTurk/v2_DepthDuration_HTML.html#60,60,1354,604,1364,768,8-21-2022,6-38-12,151,depth_duration_stimuli/001555_2014-06-20_17-12-10_260595134347_rgbf000065-resize_4/001555_2014-06-20_17-12-10_260595134347_rgbf000065-resize_4-target.png,125,1.633,7,1815,129,meters,jsons/VE125_randls_44.json,2354843,2726144,48,Woman
151,931948,DepthScenes,duration_manipulation_targetAtFixation,jsons/VE125_randls_44.json,http://54.235.29.9/FacialAge/BNav_EC2/DepthDuration/v2_depth_duration_MTurk/v2_DepthDuration_HTML.html#60,60,1354,604,1364,768,8-21-2022,6-38-12,152,depth_duration_stimuli/000103_2014-05-14_22-01-17_260595134347_rgbf000152-resize_5/000103_2014-05-14_22-01-17_260595134347_rgbf000152-resize_5-target.png,125,1.993,7,3355,123,meters,jsons/VE125_randls_44.json,2354843,2726144,48,Woman
152,931948,DepthScenes,duration_manipulation_targetAtFixation,jsons/VE125_randls_44.json,http://54.235.29.9/FacialAge/BNav_EC2/DepthDuration/v2_depth_duration_MTurk/v2_DepthDuration_HTML.html#60,60,1354,604,1364,768,8-21-2022,6-38-12,153,depth_duration_stimuli/002600_2014-06-24_14-27-04_094959634447_rgbf000074-resize_2/002600_2014-06-24_14-27-04_094959634447_rgbf000074-resize_2-target.png,125,2.7575,8,1759,102,meters,jsons/VE125_randls_44.json,2354843,2726144,48,Woman
153,931948,DepthScenes,duration_manipulation_targetAtFixation,jsons/VE125_randls_44.json,http://54.235.29.9/FacialAge/BNav_EC2/DepthDuration/v2_depth_duration_MTurk/v2_DepthDuration_HTML.html#60,60,1354,604,1364,768,8-21-2022,6-38-12,154,depth_duration_stimuli/003228_2014-05-14_13-42-35_094959634447_rgbf000101-resize_1/003228_2014-05-14_13-42-35_094959634447_rgbf000101-resize_1-target.png,125,1.9680000000000002,5,2091,156,meters,jsons/VE125_randls_44.json,2354843,2726144,48,Woman
154,931948,DepthScenes,duration_manipulation_targetAtFixation,jsons/VE125_randls_44.json,http://54.235.29.9/FacialAge/BNav_EC2/DepthDuration/v2_depth_duration_MTurk/v2_DepthDuration_HTML.html#60,60,1354,604,1364,768,8-21-2022,6-38-12,155,depth_duration_stimuli/000486_2014-06-09_20-47-20_260595134347_rgbf000143-resize_2/000486_2014-06-09_20-47-20_260595134347_rgbf000143-resize_2-target.png,125,4.8325,7,1954,124,meters,jsons/VE125_randls_44.json,2354843,2726144,48,Woman
155,931948,DepthScenes,duration_manipulation_targetAtFixation,jsons/VE125_randls_44.json,http://54.235.29.9/FacialAge/BNav_EC2/DepthDuration/v2_depth_duration_MTurk/v2_DepthDuration_HTML.html#60,60,1354,604,1364,768,8-21-2022,6-38-12,156,depth_duration_stimuli/003083_2014-06-15_15-21-03_094959634447_rgbf000063-resize_1/003083_2014-06-15_15-21-03_094959634447_rgbf000063-resize_1-target.png,125,4.1405,7,2064,163,meters,jsons/VE125_randls_44.json,2354843,2726144,48,Woman
156,931948,DepthScenes,duration_manipulation_targetAtFixation,jsons/VE125_randls_44.json,http://54.235.29.9/FacialAge/BNav_EC2/DepthDuration/v2_depth_duration_MTurk/v2_DepthDuration_HTML.html#60,60,1354,604,1364,768,8-21-2022,6-38-12,157,depth_duration_stimuli/000506_2014-06-08_23-21-00_260595134347_rgbf000070-resize_7/000506_2014-06-08_23-21-00_260595134347_rgbf000070-resize_7-target.png,125,4.0585,7,2552,252,meters,jsons/VE125_randls_44.json,2354843,2726144,48,Woman
157,931948,DepthScenes,duration_manipulation_targetAtFixation,jsons/VE125_randls_44.json,http://54.235.29.9/FacialAge/BNav_EC2/DepthDuration/v2_depth_duration_MTurk/v2_DepthDuration_HTML.html#60,60,1354,604,1364,768,8-21-2022,6-38-12,158,depth_duration_stimuli/003079_2014-06-15_15-18-20_094959634447_rgbf000152-resize_8/003079_2014-06-15_15-18-20_094959634447_rgbf000152-resize_8-target.png,125,2.8775,8,1833,123,meters,jsons/VE125_randls_44.json,2354843,2726144,48,Woman
158,931948,DepthScenes,duration_manipulation_targetAtFixation,jsons/VE125_randls_44.json,http://54.235.29.9/FacialAge/BNav_EC2/DepthDuration/v2_depth_duration_MTurk/v2_DepthDuration_HTML.html#60,60,1354,604,1364,768,8-21-2022,6-38-12,159,depth_duration_stimuli/000368_2014-06-09_15-53-01_260595134347_rgbf000155-resize_2/000368_2014-06-09_15-53-01_260595134347_rgbf000155-resize_2-target.png,125,2.4859999999999998,8,2392,127,meters,jsons/VE125_randls_44.json,2354843,2726144,48,Woman
159,931948,DepthScenes,duration_manipulation_targetAtFixation,jsons/VE125_randls_44.json,http://54.235.29.9/FacialAge/BNav_EC2/DepthDuration/v2_depth_duration_MTurk/v2_DepthDuration_HTML.html#60,60,1354,604,1364,768,8-21-2022,6-38-12,160,depth_duration_stimuli/002678_2014-06-13_16-15-32_094959634447_rgbf000151-resize_6/002678_2014-06-13_16-15-32_094959634447_rgbf000151-resize_6-target.png,125,2.1830000000000003,5,2633,124,meters,jsons/VE125_randls_44.json,2354843,2726144,48,Woman
160,931948,DepthScenes,duration_manipulation_targetAtFixation,jsons/VE125_randls_44.json,http://54.235.29.9/FacialAge/BNav_EC2/DepthDuration/v2_depth_duration_MTurk/v2_DepthDuration_HTML.html#60,60,1354,604,1364,768,8-21-2022,6-38-12,161,depth_duration_stimuli/002153_2014-06-25_21-27-18_260595134347_rgbf000038-resize_5/002153_2014-06-25_21-27-18_260595134347_rgbf000038-resize_5-target.png,125,2.505,54,2070,114,meters,jsons/VE125_randls_44.json,2354843,2726144,48,Woman
161,931948,DepthScenes,duration_manipulation_targetAtFixation,jsons/VE125_randls_44.json,http://54.235.29.9/FacialAge/BNav_EC2/DepthDuration/v2_depth_duration_MTurk/v2_DepthDuration_HTML.html#60,60,1354,604,1364,768,8-21-2022,6-38-12,162,depth_duration_stimuli/002660_2014-06-13_15-44-18_094959634447_rgbf001878-resize_2/002660_2014-06-13_15-44-18_094959634447_rgbf001878-resize_2-target.png,125,3.576,9,2814,125,meters,jsons/VE125_randls_44.json,2354843,2726144,48,Woman
162,931948,DepthScenes,duration_manipulation_targetAtFixation,jsons/VE125_randls_44.json,http://54.235.29.9/FacialAge/BNav_EC2/DepthDuration/v2_depth_duration_MTurk/v2_DepthDuration_HTML.html#60,60,1354,604,1364,768,8-21-2022,6-38-12,163,depth_duration_stimuli/001570_2014-06-20_17-21-09_260595134347_rgbf000135-resize_4/001570_2014-06-20_17-21-09_260595134347_rgbf000135-resize_4-target.png,125,4.467,4,2461,125,meters,jsons/VE125_randls_44.json,2354843,2726144,48,Woman
163,931948,DepthScenes,duration_manipulation_targetAtFixation,jsons/VE125_randls_44.json,http://54.235.29.9/FacialAge/BNav_EC2/DepthDuration/v2_depth_duration_MTurk/v2_DepthDuration_HTML.html#60,60,1354,604,1364,768,8-21-2022,6-38-12,164,depth_duration_stimuli/001392_2014-06-19_16-07-59_260595134347_rgbf000046-resize_1/001392_2014-06-19_16-07-59_260595134347_rgbf000046-resize_1-target.png,125,4.135,54,3589,74,meters,jsons/VE125_randls_44.json,2354843,2726144,48,Woman
