,subjID,experimentName,versionName,sequenceName,url,selected_row,windowWidth,windowHeight,screenWidth,screenHeight,startDate,startTime,trial,stimulus,duration,actual_depth,depth_estimate,trial_RT,log_sceneDuration,unitSelection,seq_filepath,experimentTime,totalTime,age,gender
0,933555,DepthScenes,duration_manipulation_targetAtFixation,jsons/VE125_randls_7_rotated.json,http://54.235.29.9/FacialAge/BNav_EC2/DepthDuration/v2_depth_duration_MTurk/v2_DepthDuration_HTML.html#446,446,1536,722,1536,864,9-4-2022,10-14-46,1,depth_duration_stimuli/000502_2014-06-08_23-02-32_260595134347_rgbf000063-resize_4/000502_2014-06-08_23-02-32_260595134347_rgbf000063-resize_4-target.png,125,2.431,0.01,7013,126,meters,jsons/VE125_randls_7_rotated.json,1233301,1827530,58,Woman
1,933555,DepthScenes,duration_manipulation_targetAtFixation,jsons/VE125_randls_7_rotated.json,http://54.235.29.9/FacialAge/BNav_EC2/DepthDuration/v2_depth_duration_MTurk/v2_DepthDuration_HTML.html#446,446,1536,722,1536,864,9-4-2022,10-14-46,2,depth_duration_stimuli/001199_2014-06-17_16-03-48_260595134347_rgbf000077-resize_0/001199_2014-06-17_16-03-48_260595134347_rgbf000077-resize_0-target.png,125,3.4375,0.0,3380,120,meters,jsons/VE125_randls_7_rotated.json,1233301,1827530,58,Woman
2,933555,DepthScenes,duration_manipulation_targetAtFixation,jsons/VE125_randls_7_rotated.json,http://54.235.29.9/FacialAge/BNav_EC2/DepthDuration/v2_depth_duration_MTurk/v2_DepthDuration_HTML.html#446,446,1536,722,1536,864,9-4-2022,10-14-46,3,depth_duration_stimuli/000943_2014-06-09_19-31-07_260595134347_rgbf000128-resize_1/000943_2014-06-09_19-31-07_260595134347_rgbf000128-resize_1-target.png,125,1.9765,0.01,6378,127,meters,jsons/VE125_randls_7_rotated.json,1233301,1827530,58,Woman
3,933555,DepthScenes,duration_manipulation_targetAtFixation,jsons/VE125_randls_7_rotated.json,http://54.235.29.9/FacialAge/BNav_EC2/DepthDuration/v2_depth_duration_MTurk/v2_DepthDuration_HTML.html#446,446,1536,722,1536,864,9-4-2022,10-14-46,4,depth_duration_stimuli/003070_2014-06-15_14-58-27_094959634447_rgbf000150-resize_3/003070_2014-06-15_14-58-27_094959634447_rgbf000150-resize_3-target.png,125,2.9415,0.01,5138,129,meters,jsons/VE125_randls_7_rotated.json,1233301,1827530,58,Woman
4,933555,DepthScenes,duration_manipulation_targetAtFixation,jsons/VE125_randls_7_rotated.json,http://54.235.29.9/FacialAge/BNav_EC2/DepthDuration/v2_depth_duration_MTurk/v2_DepthDuration_HTML.html#446,446,1536,722,1536,864,9-4-2022,10-14-46,5,depth_duration_stimuli/002639_2014-06-24_14-51-37_094959634447_rgbf000074-resize_4/002639_2014-06-24_14-51-37_094959634447_rgbf000074-resize_4-target.png,125,4.0375,0.02,6945,123,meters,jsons/VE125_randls_7_rotated.json,1233301,1827530,58,Woman
5,933555,DepthScenes,duration_manipulation_targetAtFixation,jsons/VE125_randls_7_rotated.json,http://54.235.29.9/FacialAge/BNav_EC2/DepthDuration/v2_depth_duration_MTurk/v2_DepthDuration_HTML.html#446,446,1536,722,1536,864,9-4-2022,10-14-46,6,depth_duration_stimuli/003292_2014-05-14_21-53-49_094959634447_rgbf000100-resize_2/003292_2014-05-14_21-53-49_094959634447_rgbf000100-resize_2-target.png,125,3.4815,0.03,6332,112,meters,jsons/VE125_randls_7_rotated.json,1233301,1827530,58,Woman
6,933555,DepthScenes,duration_manipulation_targetAtFixation,jsons/VE125_randls_7_rotated.json,http://54.235.29.9/FacialAge/BNav_EC2/DepthDuration/v2_depth_duration_MTurk/v2_DepthDuration_HTML.html#446,446,1536,722,1536,864,9-4-2022,10-14-46,7,depth_duration_stimuli/000191_2014-05-12_17-07-38_260595134347_rgbf000199-resize_0/000191_2014-05-12_17-07-38_260595134347_rgbf000199-resize_0-target.png,125,3.7995,0.05,8378,138,meters,jsons/VE125_randls_7_rotated.json,1233301,1827530,58,Woman
7,933555,DepthScenes,duration_manipulation_targetAtFixation,jsons/VE125_randls_7_rotated.json,http://54.235.29.9/FacialAge/BNav_EC2/DepthDuration/v2_depth_duration_MTurk/v2_DepthDuration_HTML.html#446,446,1536,722,1536,864,9-4-2022,10-14-46,8,depth_duration_stimuli/000493_2014-06-09_21-01-18_260595134347_rgbf000196-resize_3/000493_2014-06-09_21-01-18_260595134347_rgbf000196-resize_3-target.png,125,3.44,0.01,4483,125,meters,jsons/VE125_randls_7_rotated.json,1233301,1827530,58,Woman
8,933555,DepthScenes,duration_manipulation_targetAtFixation,jsons/VE125_randls_7_rotated.json,http://54.235.29.9/FacialAge/BNav_EC2/DepthDuration/v2_depth_duration_MTurk/v2_DepthDuration_HTML.html#446,446,1536,722,1536,864,9-4-2022,10-14-46,9,depth_duration_stimuli/000483_2014-06-09_20-41-45_260595134347_rgbf000116-resize_4/000483_2014-06-09_20-41-45_260595134347_rgbf000116-resize_4-target.png,125,1.337,0.01,6703,132,meters,jsons/VE125_randls_7_rotated.json,1233301,1827530,58,Woman
9,933555,DepthScenes,duration_manipulation_targetAtFixation,jsons/VE125_randls_7_rotated.json,http://54.235.29.9/FacialAge/BNav_EC2/DepthDuration/v2_depth_duration_MTurk/v2_DepthDuration_HTML.html#446,446,1536,722,1536,864,9-4-2022,10-14-46,10,depth_duration_stimuli/000469_2014-06-09_19-42-10_260595134347_rgbf000081-resize_1/000469_2014-06-09_19-42-10_260595134347_rgbf000081-resize_1-target.png,125,1.652,0.0,3687,119,meters,jsons/VE125_randls_7_rotated.json,1233301,1827530,58,Woman
10,933555,DepthScenes,duration_manipulation_targetAtFixation,jsons/VE125_randls_7_rotated.json,http://54.235.29.9/FacialAge/BNav_EC2/DepthDuration/v2_depth_duration_MTurk/v2_DepthDuration_HTML.html#446,446,1536,722,1536,864,9-4-2022,10-14-46,11,depth_duration_stimuli/003423_2014-05-21_10-23-26_094959634447_rgbf002665-resize_2/003423_2014-05-21_10-23-26_094959634447_rgbf002665-resize_2-target.png,125,3.2575,0.1,8769,126,meters,jsons/VE125_randls_7_rotated.json,1233301,1827530,58,Woman
11,933555,DepthScenes,duration_manipulation_targetAtFixation,jsons/VE125_randls_7_rotated.json,http://54.235.29.9/FacialAge/BNav_EC2/DepthDuration/v2_depth_duration_MTurk/v2_DepthDuration_HTML.html#446,446,1536,722,1536,864,9-4-2022,10-14-46,12,depth_duration_stimuli/002905_2014-06-03_18-04-43_094959634447_rgbf000151-resize_2/002905_2014-06-03_18-04-43_094959634447_rgbf000151-resize_2-target.png,125,2.0295,0.01,4631,122,meters,jsons/VE125_randls_7_rotated.json,1233301,1827530,58,Woman
12,933555,DepthScenes,duration_manipulation_targetAtFixation,jsons/VE125_randls_7_rotated.json,http://54.235.29.9/FacialAge/BNav_EC2/DepthDuration/v2_depth_duration_MTurk/v2_DepthDuration_HTML.html#446,446,1536,722,1536,864,9-4-2022,10-14-46,13,depth_duration_stimuli/003081_2014-06-15_15-19-16_094959634447_rgbf000150-resize_1/003081_2014-06-15_15-19-16_094959634447_rgbf000150-resize_1-target.png,125,3.9125,0.04,6716,109,meters,jsons/VE125_randls_7_rotated.json,1233301,1827530,58,Woman
13,933555,DepthScenes,duration_manipulation_targetAtFixation,jsons/VE125_randls_7_rotated.json,http://54.235.29.9/FacialAge/BNav_EC2/DepthDuration/v2_depth_duration_MTurk/v2_DepthDuration_HTML.html#446,446,1536,722,1536,864,9-4-2022,10-14-46,14,depth_duration_stimuli/001417_2014-06-19_16-25-36_260595134347_rgbf000115-resize_5/001417_2014-06-19_16-25-36_260595134347_rgbf000115-resize_5-target.png,125,4.6255,0.03,5209,136,meters,jsons/VE125_randls_7_rotated.json,1233301,1827530,58,Woman
14,933555,DepthScenes,duration_manipulation_targetAtFixation,jsons/VE125_randls_7_rotated.json,http://54.235.29.9/FacialAge/BNav_EC2/DepthDuration/v2_depth_duration_MTurk/v2_DepthDuration_HTML.html#446,446,1536,722,1536,864,9-4-2022,10-14-46,15,depth_duration_stimuli/002657_2014-06-13_15-29-54_094959634447_rgbf000150-resize_1/002657_2014-06-13_15-29-54_094959634447_rgbf000150-resize_1-target.png,125,4.919,0.01,6275,124,meters,jsons/VE125_randls_7_rotated.json,1233301,1827530,58,Woman
15,933555,DepthScenes,duration_manipulation_targetAtFixation,jsons/VE125_randls_7_rotated.json,http://54.235.29.9/FacialAge/BNav_EC2/DepthDuration/v2_depth_duration_MTurk/v2_DepthDuration_HTML.html#446,446,1536,722,1536,864,9-4-2022,10-14-46,16,depth_duration_stimuli/002375_2014-06-28_20-13-44_260595134347_rgbf000032-resize_1/002375_2014-06-28_20-13-44_260595134347_rgbf000032-resize_1-target.png,125,4.0175,0.05,4342,121,meters,jsons/VE125_randls_7_rotated.json,1233301,1827530,58,Woman
16,933555,DepthScenes,duration_manipulation_targetAtFixation,jsons/VE125_randls_7_rotated.json,http://54.235.29.9/FacialAge/BNav_EC2/DepthDuration/v2_depth_duration_MTurk/v2_DepthDuration_HTML.html#446,446,1536,722,1536,864,9-4-2022,10-14-46,17,depth_duration_stimuli/002323_2014-06-28_20-01-54_260595134347_rgbf000051-resize_4/002323_2014-06-28_20-01-54_260595134347_rgbf000051-resize_4-target.png,125,3.7310000000000003,0.1,6907,131,meters,jsons/VE125_randls_7_rotated.json,1233301,1827530,58,Woman
17,933555,DepthScenes,duration_manipulation_targetAtFixation,jsons/VE125_randls_7_rotated.json,http://54.235.29.9/FacialAge/BNav_EC2/DepthDuration/v2_depth_duration_MTurk/v2_DepthDuration_HTML.html#446,446,1536,722,1536,864,9-4-2022,10-14-46,18,depth_duration_stimuli/000917_2014-06-09_22-45-29_260595134347_rgbf000149-resize_3/000917_2014-06-09_22-45-29_260595134347_rgbf000149-resize_3-target.png,125,4.1865,0.1,5573,120,meters,jsons/VE125_randls_7_rotated.json,1233301,1827530,58,Woman
18,933555,DepthScenes,duration_manipulation_targetAtFixation,jsons/VE125_randls_7_rotated.json,http://54.235.29.9/FacialAge/BNav_EC2/DepthDuration/v2_depth_duration_MTurk/v2_DepthDuration_HTML.html#446,446,1536,722,1536,864,9-4-2022,10-14-46,19,depth_duration_stimuli/001498_2014-06-19_17-45-14_260595134347_rgbf000129-resize_4/001498_2014-06-19_17-45-14_260595134347_rgbf000129-resize-original.jpg,125,1.4075,0.0,6046,121,meters,jsons/VE125_randls_7_rotated.json,1233301,1827530,58,Woman
19,933555,DepthScenes,duration_manipulation_targetAtFixation,jsons/VE125_randls_7_rotated.json,http://54.235.29.9/FacialAge/BNav_EC2/DepthDuration/v2_depth_duration_MTurk/v2_DepthDuration_HTML.html#446,446,1536,722,1536,864,9-4-2022,10-14-46,20,depth_duration_stimuli/003338_2014-05-20_11-01-23_094959634447_rgbf000051-resize_6/003338_2014-05-20_11-01-23_094959634447_rgbf000051-resize_6-target.png,125,1.693,0.02,7719,121,meters,jsons/VE125_randls_7_rotated.json,1233301,1827530,58,Woman
20,933555,DepthScenes,duration_manipulation_targetAtFixation,jsons/VE125_randls_7_rotated.json,http://54.235.29.9/FacialAge/BNav_EC2/DepthDuration/v2_depth_duration_MTurk/v2_DepthDuration_HTML.html#446,446,1536,722,1536,864,9-4-2022,10-14-46,21,depth_duration_stimuli/002509_2014-06-24_13-19-22_094959634447_rgbf000077-resize_0/002509_2014-06-24_13-19-22_094959634447_rgbf000077-resize_0-target.png,125,1.3065,0.05,4844,131,meters,jsons/VE125_randls_7_rotated.json,1233301,1827530,58,Woman
21,933555,DepthScenes,duration_manipulation_targetAtFixation,jsons/VE125_randls_7_rotated.json,http://54.235.29.9/FacialAge/BNav_EC2/DepthDuration/v2_depth_duration_MTurk/v2_DepthDuration_HTML.html#446,446,1536,722,1536,864,9-4-2022,10-14-46,22,depth_duration_stimuli/000103_2014-05-14_22-01-17_260595134347_rgbf000152-resize_5/000103_2014-05-14_22-01-17_260595134347_rgbf000152-resize_5-target.png,125,1.993,0.1,7202,128,meters,jsons/VE125_randls_7_rotated.json,1233301,1827530,58,Woman
22,933555,DepthScenes,duration_manipulation_targetAtFixation,jsons/VE125_randls_7_rotated.json,http://54.235.29.9/FacialAge/BNav_EC2/DepthDuration/v2_depth_duration_MTurk/v2_DepthDuration_HTML.html#446,446,1536,722,1536,864,9-4-2022,10-14-46,23,depth_duration_stimuli/001555_2014-06-20_17-12-10_260595134347_rgbf000065-resize_4/001555_2014-06-20_17-12-10_260595134347_rgbf000065-resize_4-target.png,125,1.633,0.01,6211,122,meters,jsons/VE125_randls_7_rotated.json,1233301,1827530,58,Woman
23,933555,DepthScenes,duration_manipulation_targetAtFixation,jsons/VE125_randls_7_rotated.json,http://54.235.29.9/FacialAge/BNav_EC2/DepthDuration/v2_depth_duration_MTurk/v2_DepthDuration_HTML.html#446,446,1536,722,1536,864,9-4-2022,10-14-46,24,depth_duration_stimuli/003079_2014-06-15_15-18-20_094959634447_rgbf000152-resize_8/003079_2014-06-15_15-18-20_094959634447_rgbf000152-resize_8-target.png,125,2.8775,0.1,7868,121,meters,jsons/VE125_randls_7_rotated.json,1233301,1827530,58,Woman
24,933555,DepthScenes,duration_manipulation_targetAtFixation,jsons/VE125_randls_7_rotated.json,http://54.235.29.9/FacialAge/BNav_EC2/DepthDuration/v2_depth_duration_MTurk/v2_DepthDuration_HTML.html#446,446,1536,722,1536,864,9-4-2022,10-14-46,25,depth_duration_stimuli/000506_2014-06-08_23-21-00_260595134347_rgbf000070-resize_7/000506_2014-06-08_23-21-00_260595134347_rgbf000070-resize_7-target.png,125,4.0585,0.05,4633,124,meters,jsons/VE125_randls_7_rotated.json,1233301,1827530,58,Woman
25,933555,DepthScenes,duration_manipulation_targetAtFixation,jsons/VE125_randls_7_rotated.json,http://54.235.29.9/FacialAge/BNav_EC2/DepthDuration/v2_depth_duration_MTurk/v2_DepthDuration_HTML.html#446,446,1536,722,1536,864,9-4-2022,10-14-46,26,depth_duration_stimuli/002414_2014-06-28_20-24-58_260595134347_rgbf000067-resize_4/002414_2014-06-28_20-24-58_260595134347_rgbf000067-resize_4-target.png,125,4.363,0.06,7815,111,meters,jsons/VE125_randls_7_rotated.json,1233301,1827530,58,Woman
26,933555,DepthScenes,duration_manipulation_targetAtFixation,jsons/VE125_randls_7_rotated.json,http://54.235.29.9/FacialAge/BNav_EC2/DepthDuration/v2_depth_duration_MTurk/v2_DepthDuration_HTML.html#446,446,1536,722,1536,864,9-4-2022,10-14-46,27,depth_duration_stimuli/000773_2014-06-08_22-24-54_260595134347_rgbf000093-resize_1/000773_2014-06-08_22-24-54_260595134347_rgbf000093-resize_1-target.png,125,4.973,0.03,5349,127,meters,jsons/VE125_randls_7_rotated.json,1233301,1827530,58,Woman
27,933555,DepthScenes,duration_manipulation_targetAtFixation,jsons/VE125_randls_7_rotated.json,http://54.235.29.9/FacialAge/BNav_EC2/DepthDuration/v2_depth_duration_MTurk/v2_DepthDuration_HTML.html#446,446,1536,722,1536,864,9-4-2022,10-14-46,28,depth_duration_stimuli/000665_2014-06-09_20-42-35_260595134347_rgbf000110-resize_1/000665_2014-06-09_20-42-35_260595134347_rgbf000110-resize_1-target.png,125,3.057,0.05,6860,125,meters,jsons/VE125_randls_7_rotated.json,1233301,1827530,58,Woman
28,933555,DepthScenes,duration_manipulation_targetAtFixation,jsons/VE125_randls_7_rotated.json,http://54.235.29.9/FacialAge/BNav_EC2/DepthDuration/v2_depth_duration_MTurk/v2_DepthDuration_HTML.html#446,446,1536,722,1536,864,9-4-2022,10-14-46,29,depth_duration_stimuli/001150_2014-06-17_15-27-34_260595134347_rgbf000108-resize_2/001150_2014-06-17_15-27-34_260595134347_rgbf000108-resize_2-target.png,125,4.0325,0.08,5665,124,meters,jsons/VE125_randls_7_rotated.json,1233301,1827530,58,Woman
29,933555,DepthScenes,duration_manipulation_targetAtFixation,jsons/VE125_randls_7_rotated.json,http://54.235.29.9/FacialAge/BNav_EC2/DepthDuration/v2_depth_duration_MTurk/v2_DepthDuration_HTML.html#446,446,1536,722,1536,864,9-4-2022,10-14-46,30,depth_duration_stimuli/002072_2014-06-24_21-48-06_260595134347_rgbf000115-resize_0/002072_2014-06-24_21-48-06_260595134347_rgbf000115-resize-original.jpg,125,4.702,0.0,4433,115,meters,jsons/VE125_randls_7_rotated.json,1233301,1827530,58,Woman
30,933555,DepthScenes,duration_manipulation_targetAtFixation,jsons/VE125_randls_7_rotated.json,http://54.235.29.9/FacialAge/BNav_EC2/DepthDuration/v2_depth_duration_MTurk/v2_DepthDuration_HTML.html#446,446,1536,722,1536,864,9-4-2022,10-14-46,31,depth_duration_stimuli/000742_2014-06-08_18-48-09_260595134347_rgbf000164-resize_4/000742_2014-06-08_18-48-09_260595134347_rgbf000164-resize_4-target.png,125,4.632,0.1,5990,126,meters,jsons/VE125_randls_7_rotated.json,1233301,1827530,58,Woman
31,933555,DepthScenes,duration_manipulation_targetAtFixation,jsons/VE125_randls_7_rotated.json,http://54.235.29.9/FacialAge/BNav_EC2/DepthDuration/v2_depth_duration_MTurk/v2_DepthDuration_HTML.html#446,446,1536,722,1536,864,9-4-2022,10-14-46,32,depth_duration_stimuli/001066_2014-06-08_22-03-20_260595134347_rgbf000066-resize_4/001066_2014-06-08_22-03-20_260595134347_rgbf000066-resize_4-target.png,125,4.2330000000000005,0.2,7019,124,meters,jsons/VE125_randls_7_rotated.json,1233301,1827530,58,Woman
32,933555,DepthScenes,duration_manipulation_targetAtFixation,jsons/VE125_randls_7_rotated.json,http://54.235.29.9/FacialAge/BNav_EC2/DepthDuration/v2_depth_duration_MTurk/v2_DepthDuration_HTML.html#446,446,1536,722,1536,864,9-4-2022,10-14-46,33,depth_duration_stimuli/000409_2014-06-04_19-23-33_260595134347_rgbf000067-resize_0/000409_2014-06-04_19-23-33_260595134347_rgbf000067-resize_0-target.png,125,3.7335,0.01,6842,136,meters,jsons/VE125_randls_7_rotated.json,1233301,1827530,58,Woman
33,933555,DepthScenes,duration_manipulation_targetAtFixation,jsons/VE125_randls_7_rotated.json,http://54.235.29.9/FacialAge/BNav_EC2/DepthDuration/v2_depth_duration_MTurk/v2_DepthDuration_HTML.html#446,446,1536,722,1536,864,9-4-2022,10-14-46,34,depth_duration_stimuli/002663_2014-06-13_15-50-26_094959634447_rgbf000075-resize_1/002663_2014-06-13_15-50-26_094959634447_rgbf000075-resize_1-target.png,125,4.7495,0.06,4414,125,meters,jsons/VE125_randls_7_rotated.json,1233301,1827530,58,Woman
34,933555,DepthScenes,duration_manipulation_targetAtFixation,jsons/VE125_randls_7_rotated.json,http://54.235.29.9/FacialAge/BNav_EC2/DepthDuration/v2_depth_duration_MTurk/v2_DepthDuration_HTML.html#446,446,1536,722,1536,864,9-4-2022,10-14-46,35,depth_duration_stimuli/001392_2014-06-19_16-07-59_260595134347_rgbf000046-resize_1/001392_2014-06-19_16-07-59_260595134347_rgbf000046-resize_1-target.png,125,4.135,0.08,8012,125,meters,jsons/VE125_randls_7_rotated.json,1233301,1827530,58,Woman
35,933555,DepthScenes,duration_manipulation_targetAtFixation,jsons/VE125_randls_7_rotated.json,http://54.235.29.9/FacialAge/BNav_EC2/DepthDuration/v2_depth_duration_MTurk/v2_DepthDuration_HTML.html#446,446,1536,722,1536,864,9-4-2022,10-14-46,36,depth_duration_stimuli/001570_2014-06-20_17-21-09_260595134347_rgbf000135-resize_4/001570_2014-06-20_17-21-09_260595134347_rgbf000135-resize_4-target.png,125,4.467,0.08,5043,121,meters,jsons/VE125_randls_7_rotated.json,1233301,1827530,58,Woman
36,933555,DepthScenes,duration_manipulation_targetAtFixation,jsons/VE125_randls_7_rotated.json,http://54.235.29.9/FacialAge/BNav_EC2/DepthDuration/v2_depth_duration_MTurk/v2_DepthDuration_HTML.html#446,446,1536,722,1536,864,9-4-2022,10-14-46,37,depth_duration_stimuli/000927_2014-06-09_16-32-30_260595134347_rgbf000123-resize_3/000927_2014-06-09_16-32-30_260595134347_rgbf000123-resize_3-target.png,125,2.6785,0.1,5648,132,meters,jsons/VE125_randls_7_rotated.json,1233301,1827530,58,Woman
37,933555,DepthScenes,duration_manipulation_targetAtFixation,jsons/VE125_randls_7_rotated.json,http://54.235.29.9/FacialAge/BNav_EC2/DepthDuration/v2_depth_duration_MTurk/v2_DepthDuration_HTML.html#446,446,1536,722,1536,864,9-4-2022,10-14-46,38,depth_duration_stimuli/001110_2014-06-15_17-25-28_260595134347_rgbf000150-resize_1/001110_2014-06-15_17-25-28_260595134347_rgbf000150-resize_1-target.png,125,1.7115,0.01,4496,126,meters,jsons/VE125_randls_7_rotated.json,1233301,1827530,58,Woman
38,933555,DepthScenes,duration_manipulation_targetAtFixation,jsons/VE125_randls_7_rotated.json,http://54.235.29.9/FacialAge/BNav_EC2/DepthDuration/v2_depth_duration_MTurk/v2_DepthDuration_HTML.html#446,446,1536,722,1536,864,9-4-2022,10-14-46,39,depth_duration_stimuli/001136_2014-06-17_15-19-41_260595134347_rgbf000076-resize_3/001136_2014-06-17_15-19-41_260595134347_rgbf000076-resize_3-target.png,125,1.8655,0.04,8975,130,meters,jsons/VE125_randls_7_rotated.json,1233301,1827530,58,Woman
39,933555,DepthScenes,duration_manipulation_targetAtFixation,jsons/VE125_randls_7_rotated.json,http://54.235.29.9/FacialAge/BNav_EC2/DepthDuration/v2_depth_duration_MTurk/v2_DepthDuration_HTML.html#446,446,1536,722,1536,864,9-4-2022,10-14-46,40,depth_duration_stimuli/001164_2014-06-17_15-35-46_260595134347_rgbf000085-resize_3/001164_2014-06-17_15-35-46_260595134347_rgbf000085-resize_3-target.png,125,2.354,0.05,4176,122,meters,jsons/VE125_randls_7_rotated.json,1233301,1827530,58,Woman
40,933555,DepthScenes,duration_manipulation_targetAtFixation,jsons/VE125_randls_7_rotated.json,http://54.235.29.9/FacialAge/BNav_EC2/DepthDuration/v2_depth_duration_MTurk/v2_DepthDuration_HTML.html#446,446,1536,722,1536,864,9-4-2022,10-14-46,41,depth_duration_stimuli/000709_2014-06-08_13-51-55_260595134347_rgbf000068-resize_3/000709_2014-06-08_13-51-55_260595134347_rgbf000068-resize_3-target.png,125,1.8030000000000002,0.06,7901,131,meters,jsons/VE125_randls_7_rotated.json,1233301,1827530,58,Woman
41,933555,DepthScenes,duration_manipulation_targetAtFixation,jsons/VE125_randls_7_rotated.json,http://54.235.29.9/FacialAge/BNav_EC2/DepthDuration/v2_depth_duration_MTurk/v2_DepthDuration_HTML.html#446,446,1536,722,1536,864,9-4-2022,10-14-46,42,depth_duration_stimuli/002057_2014-06-24_21-00-13_260595134347_rgbf000120-resize_1/002057_2014-06-24_21-00-13_260595134347_rgbf000120-resize_1-target.png,125,2.967,0.03,4661,113,meters,jsons/VE125_randls_7_rotated.json,1233301,1827530,58,Woman
42,933555,DepthScenes,duration_manipulation_targetAtFixation,jsons/VE125_randls_7_rotated.json,http://54.235.29.9/FacialAge/BNav_EC2/DepthDuration/v2_depth_duration_MTurk/v2_DepthDuration_HTML.html#446,446,1536,722,1536,864,9-4-2022,10-14-46,43,depth_duration_stimuli/001650_2014-06-20_12-09-00_260595134347_rgbf000087-resize_3/001650_2014-06-20_12-09-00_260595134347_rgbf000087-resize_3-target.png,125,1.9505,0.05,9682,140,meters,jsons/VE125_randls_7_rotated.json,1233301,1827530,58,Woman
43,933555,DepthScenes,duration_manipulation_targetAtFixation,jsons/VE125_randls_7_rotated.json,http://54.235.29.9/FacialAge/BNav_EC2/DepthDuration/v2_depth_duration_MTurk/v2_DepthDuration_HTML.html#446,446,1536,722,1536,864,9-4-2022,10-14-46,44,depth_duration_stimuli/000682_2014-06-08_23-14-58_260595134347_rgbf000041-resize_5/000682_2014-06-08_23-14-58_260595134347_rgbf000041-resize_5-target.png,125,2.7239999999999998,0.0,3971,124,meters,jsons/VE125_randls_7_rotated.json,1233301,1827530,58,Woman
44,933555,DepthScenes,duration_manipulation_targetAtFixation,jsons/VE125_randls_7_rotated.json,http://54.235.29.9/FacialAge/BNav_EC2/DepthDuration/v2_depth_duration_MTurk/v2_DepthDuration_HTML.html#446,446,1536,722,1536,864,9-4-2022,10-14-46,45,depth_duration_stimuli/002344_2014-06-28_20-06-29_260595134347_rgbf000030-resize_1/002344_2014-06-28_20-06-29_260595134347_rgbf000030-resize_1-target.png,125,1.5795,0.02,8198,125,meters,jsons/VE125_randls_7_rotated.json,1233301,1827530,58,Woman
45,933555,DepthScenes,duration_manipulation_targetAtFixation,jsons/VE125_randls_7_rotated.json,http://54.235.29.9/FacialAge/BNav_EC2/DepthDuration/v2_depth_duration_MTurk/v2_DepthDuration_HTML.html#446,446,1536,722,1536,864,9-4-2022,10-14-46,46,depth_duration_stimuli/002725_2014-06-22_11-47-51_094959634447_rgbf000070-resize_1/002725_2014-06-22_11-47-51_094959634447_rgbf000070-resize_1-target.png,125,2.195,0.05,5554,127,meters,jsons/VE125_randls_7_rotated.json,1233301,1827530,58,Woman
46,933555,DepthScenes,duration_manipulation_targetAtFixation,jsons/VE125_randls_7_rotated.json,http://54.235.29.9/FacialAge/BNav_EC2/DepthDuration/v2_depth_duration_MTurk/v2_DepthDuration_HTML.html#446,446,1536,722,1536,864,9-4-2022,10-14-46,47,depth_duration_stimuli/000549_2014-06-08_22-10-24_260595134347_rgbf000247-resize_3/000549_2014-06-08_22-10-24_260595134347_rgbf000247-resize_3-target.png,125,1.841,0.03,8464,124,meters,jsons/VE125_randls_7_rotated.json,1233301,1827530,58,Woman
47,933555,DepthScenes,duration_manipulation_targetAtFixation,jsons/VE125_randls_7_rotated.json,http://54.235.29.9/FacialAge/BNav_EC2/DepthDuration/v2_depth_duration_MTurk/v2_DepthDuration_HTML.html#446,446,1536,722,1536,864,9-4-2022,10-14-46,48,depth_duration_stimuli/001055_2014-06-08_18-45-35_260595134347_rgbf000111-resize_4/001055_2014-06-08_18-45-35_260595134347_rgbf000111-resize_4-target.png,125,2.4290000000000003,0.06,4161,132,meters,jsons/VE125_randls_7_rotated.json,1233301,1827530,58,Woman
48,933555,DepthScenes,duration_manipulation_targetAtFixation,jsons/VE125_randls_7_rotated.json,http://54.235.29.9/FacialAge/BNav_EC2/DepthDuration/v2_depth_duration_MTurk/v2_DepthDuration_HTML.html#446,446,1536,722,1536,864,9-4-2022,10-14-46,49,depth_duration_stimuli/001170_2014-06-17_15-43-44_260595134347_rgbf000096-resize_6/001170_2014-06-17_15-43-44_260595134347_rgbf000096-resize-original.jpg,125,1.1909999999999998,0.0,7741,135,meters,jsons/VE125_randls_7_rotated.json,1233301,1827530,58,Woman
49,933555,DepthScenes,duration_manipulation_targetAtFixation,jsons/VE125_randls_7_rotated.json,http://54.235.29.9/FacialAge/BNav_EC2/DepthDuration/v2_depth_duration_MTurk/v2_DepthDuration_HTML.html#446,446,1536,722,1536,864,9-4-2022,10-14-46,50,depth_duration_stimuli/001450_2014-06-19_17-02-03_260595134347_rgbf000203-resize_4/001450_2014-06-19_17-02-03_260595134347_rgbf000203-resize_4-target.png,125,4.0106666666667,0.05,7743,126,meters,jsons/VE125_randls_7_rotated.json,1233301,1827530,58,Woman
50,933555,DepthScenes,duration_manipulation_targetAtFixation,jsons/VE125_randls_7_rotated.json,http://54.235.29.9/FacialAge/BNav_EC2/DepthDuration/v2_depth_duration_MTurk/v2_DepthDuration_HTML.html#446,446,1536,722,1536,864,9-4-2022,10-14-46,51,depth_duration_stimuli/001449_2014-06-19_17-01-27_260595134347_rgbf000116-resize_2/001449_2014-06-19_17-01-27_260595134347_rgbf000116-resize_2-target.png,125,3.452,0.01,5508,128,meters,jsons/VE125_randls_7_rotated.json,1233301,1827530,58,Woman
51,933555,DepthScenes,duration_manipulation_targetAtFixation,jsons/VE125_randls_7_rotated.json,http://54.235.29.9/FacialAge/BNav_EC2/DepthDuration/v2_depth_duration_MTurk/v2_DepthDuration_HTML.html#446,446,1536,722,1536,864,9-4-2022,10-14-46,52,depth_duration_stimuli/002875_2014-06-01_15-19-00_094959634447_rgbf000151-resize_1/002875_2014-06-01_15-19-00_094959634447_rgbf000151-resize_1-target.png,125,1.9675,0.1,9526,119,meters,jsons/VE125_randls_7_rotated.json,1233301,1827530,58,Woman
52,933555,DepthScenes,duration_manipulation_targetAtFixation,jsons/VE125_randls_7_rotated.json,http://54.235.29.9/FacialAge/BNav_EC2/DepthDuration/v2_depth_duration_MTurk/v2_DepthDuration_HTML.html#446,446,1536,722,1536,864,9-4-2022,10-14-46,53,depth_duration_stimuli/001011_2014-06-08_23-18-54_260595134347_rgbf000044-resize_4/001011_2014-06-08_23-18-54_260595134347_rgbf000044-resize_4-target.png,125,2.4730000000000003,0.06,4738,137,meters,jsons/VE125_randls_7_rotated.json,1233301,1827530,58,Woman
53,933555,DepthScenes,duration_manipulation_targetAtFixation,jsons/VE125_randls_7_rotated.json,http://54.235.29.9/FacialAge/BNav_EC2/DepthDuration/v2_depth_duration_MTurk/v2_DepthDuration_HTML.html#446,446,1536,722,1536,864,9-4-2022,10-14-46,54,depth_duration_stimuli/002103_2014-06-25_20-00-40_260595134347_rgbf000049-resize_0/002103_2014-06-25_20-00-40_260595134347_rgbf000049-resize_0-target.png,125,4.105,0.08,5842,128,meters,jsons/VE125_randls_7_rotated.json,1233301,1827530,58,Woman
54,933555,DepthScenes,duration_manipulation_targetAtFixation,jsons/VE125_randls_7_rotated.json,http://54.235.29.9/FacialAge/BNav_EC2/DepthDuration/v2_depth_duration_MTurk/v2_DepthDuration_HTML.html#446,446,1536,722,1536,864,9-4-2022,10-14-46,55,depth_duration_stimuli/002039_2014-06-24_20-22-38_260595134347_rgbf000084-resize_1/002039_2014-06-24_20-22-38_260595134347_rgbf000084-resize_1-target.png,125,4.408,0.2,4709,133,meters,jsons/VE125_randls_7_rotated.json,1233301,1827530,58,Woman
55,933555,DepthScenes,duration_manipulation_targetAtFixation,jsons/VE125_randls_7_rotated.json,http://54.235.29.9/FacialAge/BNav_EC2/DepthDuration/v2_depth_duration_MTurk/v2_DepthDuration_HTML.html#446,446,1536,722,1536,864,9-4-2022,10-14-46,56,depth_duration_stimuli/001235_2014-06-17_16-37-36_260595134347_rgbf000084-resize_4/001235_2014-06-17_16-37-36_260595134347_rgbf000084-resize_4-target.png,125,3.6605,0.1,5524,116,meters,jsons/VE125_randls_7_rotated.json,1233301,1827530,58,Woman
56,933555,DepthScenes,duration_manipulation_targetAtFixation,jsons/VE125_randls_7_rotated.json,http://54.235.29.9/FacialAge/BNav_EC2/DepthDuration/v2_depth_duration_MTurk/v2_DepthDuration_HTML.html#446,446,1536,722,1536,864,9-4-2022,10-14-46,57,depth_duration_stimuli/000788_2014-06-08_22-34-36_260595134347_rgbf000131-resize_1/000788_2014-06-08_22-34-36_260595134347_rgbf000131-resize_1-target.png,125,3.359,0.05,5662,126,meters,jsons/VE125_randls_7_rotated.json,1233301,1827530,58,Woman
57,933555,DepthScenes,duration_manipulation_targetAtFixation,jsons/VE125_randls_7_rotated.json,http://54.235.29.9/FacialAge/BNav_EC2/DepthDuration/v2_depth_duration_MTurk/v2_DepthDuration_HTML.html#446,446,1536,722,1536,864,9-4-2022,10-14-46,58,depth_duration_stimuli/003587_2014-05-23_16-48-02_094959634447_rgbf002384-resize_2/003587_2014-05-23_16-48-02_094959634447_rgbf002384-resize_2-target.png,125,1.357,0.01,12259,126,meters,jsons/VE125_randls_7_rotated.json,1233301,1827530,58,Woman
58,933555,DepthScenes,duration_manipulation_targetAtFixation,jsons/VE125_randls_7_rotated.json,http://54.235.29.9/FacialAge/BNav_EC2/DepthDuration/v2_depth_duration_MTurk/v2_DepthDuration_HTML.html#446,446,1536,722,1536,864,9-4-2022,10-14-46,59,depth_duration_stimuli/001167_2014-06-17_15-38-07_260595134347_rgbf000108-resize_0/001167_2014-06-17_15-38-07_260595134347_rgbf000108-resize_0-target.png,125,1.8505,0.01,4390,125,meters,jsons/VE125_randls_7_rotated.json,1233301,1827530,58,Woman
59,933555,DepthScenes,duration_manipulation_targetAtFixation,jsons/VE125_randls_7_rotated.json,http://54.235.29.9/FacialAge/BNav_EC2/DepthDuration/v2_depth_duration_MTurk/v2_DepthDuration_HTML.html#446,446,1536,722,1536,864,9-4-2022,10-14-46,60,depth_duration_stimuli/000749_2014-06-08_21-55-06_260595134347_rgbf000070-resize_2/000749_2014-06-08_21-55-06_260595134347_rgbf000070-resize_2-target.png,125,2.331,0.04,5350,125,meters,jsons/VE125_randls_7_rotated.json,1233301,1827530,58,Woman
60,933555,DepthScenes,duration_manipulation_targetAtFixation,jsons/VE125_randls_7_rotated.json,http://54.235.29.9/FacialAge/BNav_EC2/DepthDuration/v2_depth_duration_MTurk/v2_DepthDuration_HTML.html#446,446,1536,722,1536,864,9-4-2022,10-14-46,61,depth_duration_stimuli/002788_2014-06-22_19-36-03_094959634447_rgbf000088-resize_2/002788_2014-06-22_19-36-03_094959634447_rgbf000088-resize_2-target.png,125,1.6465,0.05,3925,134,meters,jsons/VE125_randls_7_rotated.json,1233301,1827530,58,Woman
61,933555,DepthScenes,duration_manipulation_targetAtFixation,jsons/VE125_randls_7_rotated.json,http://54.235.29.9/FacialAge/BNav_EC2/DepthDuration/v2_depth_duration_MTurk/v2_DepthDuration_HTML.html#446,446,1536,722,1536,864,9-4-2022,10-14-46,62,depth_duration_stimuli/001584_2014-06-20_11-07-43_260595134347_rgbf000002-resize_1/001584_2014-06-20_11-07-43_260595134347_rgbf000002-resize_1-target.png,125,3.53,0.1,4749,123,meters,jsons/VE125_randls_7_rotated.json,1233301,1827530,58,Woman
62,933555,DepthScenes,duration_manipulation_targetAtFixation,jsons/VE125_randls_7_rotated.json,http://54.235.29.9/FacialAge/BNav_EC2/DepthDuration/v2_depth_duration_MTurk/v2_DepthDuration_HTML.html#446,446,1536,722,1536,864,9-4-2022,10-14-46,63,depth_duration_stimuli/003621_2014-05-23_18-06-08_094959634447_rgbf000101-resize_1/003621_2014-05-23_18-06-08_094959634447_rgbf000101-resize_1-target.png,125,3.9835,0.0,3390,125,meters,jsons/VE125_randls_7_rotated.json,1233301,1827530,58,Woman
63,933555,DepthScenes,duration_manipulation_targetAtFixation,jsons/VE125_randls_7_rotated.json,http://54.235.29.9/FacialAge/BNav_EC2/DepthDuration/v2_depth_duration_MTurk/v2_DepthDuration_HTML.html#446,446,1536,722,1536,864,9-4-2022,10-14-46,64,depth_duration_stimuli/002136_2014-06-25_21-18-03_260595134347_rgbf000109-resize_3/002136_2014-06-25_21-18-03_260595134347_rgbf000109-resize_3-target.png,125,1.9569999999999999,0.08,6066,121,meters,jsons/VE125_randls_7_rotated.json,1233301,1827530,58,Woman
64,933555,DepthScenes,duration_manipulation_targetAtFixation,jsons/VE125_randls_7_rotated.json,http://54.235.29.9/FacialAge/BNav_EC2/DepthDuration/v2_depth_duration_MTurk/v2_DepthDuration_HTML.html#446,446,1536,722,1536,864,9-4-2022,10-14-46,65,depth_duration_stimuli/002964_2014-06-08_17-46-11_094959634447_rgbf000091-resize_4/002964_2014-06-08_17-46-11_094959634447_rgbf000091-resize_4-target.png,125,1.6909999999999998,0.05,5925,124,meters,jsons/VE125_randls_7_rotated.json,1233301,1827530,58,Woman
65,933555,DepthScenes,duration_manipulation_targetAtFixation,jsons/VE125_randls_7_rotated.json,http://54.235.29.9/FacialAge/BNav_EC2/DepthDuration/v2_depth_duration_MTurk/v2_DepthDuration_HTML.html#446,446,1536,722,1536,864,9-4-2022,10-14-46,66,depth_duration_stimuli/001540_2014-06-20_17-01-05_260595134347_rgbf000086-resize_2/001540_2014-06-20_17-01-05_260595134347_rgbf000086-resize-original.jpg,125,1.459,0.0,3643,122,meters,jsons/VE125_randls_7_rotated.json,1233301,1827530,58,Woman
66,933555,DepthScenes,duration_manipulation_targetAtFixation,jsons/VE125_randls_7_rotated.json,http://54.235.29.9/FacialAge/BNav_EC2/DepthDuration/v2_depth_duration_MTurk/v2_DepthDuration_HTML.html#446,446,1536,722,1536,864,9-4-2022,10-14-46,67,depth_duration_stimuli/002340_2014-06-28_20-05-46_260595134347_rgbf000113-resize_0/002340_2014-06-28_20-05-46_260595134347_rgbf000113-resize_0-target.png,125,2.4735,0.08,5514,123,meters,jsons/VE125_randls_7_rotated.json,1233301,1827530,58,Woman
67,933555,DepthScenes,duration_manipulation_targetAtFixation,jsons/VE125_randls_7_rotated.json,http://54.235.29.9/FacialAge/BNav_EC2/DepthDuration/v2_depth_duration_MTurk/v2_DepthDuration_HTML.html#446,446,1536,722,1536,864,9-4-2022,10-14-46,68,depth_duration_stimuli/001016_2014-06-09_16-16-10_260595134347_rgbf000112-resize_5/001016_2014-06-09_16-16-10_260595134347_rgbf000112-resize_5-target.png,125,1.6565,0.0,3639,126,meters,jsons/VE125_randls_7_rotated.json,1233301,1827530,58,Woman
68,933555,DepthScenes,duration_manipulation_targetAtFixation,jsons/VE125_randls_7_rotated.json,http://54.235.29.9/FacialAge/BNav_EC2/DepthDuration/v2_depth_duration_MTurk/v2_DepthDuration_HTML.html#446,446,1536,722,1536,864,9-4-2022,10-14-46,69,depth_duration_stimuli/003129_2014-05-12_10-48-10_094959634447_rgbf000100-resize_0/003129_2014-05-12_10-48-10_094959634447_rgbf000100-resize_0-target.png,125,4.9305,0.1,5853,130,meters,jsons/VE125_randls_7_rotated.json,1233301,1827530,58,Woman
69,933555,DepthScenes,duration_manipulation_targetAtFixation,jsons/VE125_randls_7_rotated.json,http://54.235.29.9/FacialAge/BNav_EC2/DepthDuration/v2_depth_duration_MTurk/v2_DepthDuration_HTML.html#446,446,1536,722,1536,864,9-4-2022,10-14-46,70,depth_duration_stimuli/000414_2014-06-04_19-49-13_260595134347_rgbf000044-resize_0/000414_2014-06-04_19-49-13_260595134347_rgbf000044-resize_0-target.png,125,4.329,0.05,4754,124,meters,jsons/VE125_randls_7_rotated.json,1233301,1827530,58,Woman
70,933555,DepthScenes,duration_manipulation_targetAtFixation,jsons/VE125_randls_7_rotated.json,http://54.235.29.9/FacialAge/BNav_EC2/DepthDuration/v2_depth_duration_MTurk/v2_DepthDuration_HTML.html#446,446,1536,722,1536,864,9-4-2022,10-14-46,71,depth_duration_stimuli/001132_2014-06-17_14-48-54_260595134347_rgbf000100-resize_2/001132_2014-06-17_14-48-54_260595134347_rgbf000100-resize_2-target.png,125,3.753,0.08,3749,118,meters,jsons/VE125_randls_7_rotated.json,1233301,1827530,58,Woman
71,933555,DepthScenes,duration_manipulation_targetAtFixation,jsons/VE125_randls_7_rotated.json,http://54.235.29.9/FacialAge/BNav_EC2/DepthDuration/v2_depth_duration_MTurk/v2_DepthDuration_HTML.html#446,446,1536,722,1536,864,9-4-2022,10-14-46,72,depth_duration_stimuli/001133_2014-06-17_14-49-16_260595134347_rgbf000100-resize_0/001133_2014-06-17_14-49-16_260595134347_rgbf000100-resize_0-target.png,125,4.2115,0.02,4441,124,meters,jsons/VE125_randls_7_rotated.json,1233301,1827530,58,Woman
72,933555,DepthScenes,duration_manipulation_targetAtFixation,jsons/VE125_randls_7_rotated.json,http://54.235.29.9/FacialAge/BNav_EC2/DepthDuration/v2_depth_duration_MTurk/v2_DepthDuration_HTML.html#446,446,1536,722,1536,864,9-4-2022,10-14-46,73,depth_duration_stimuli/001214_2014-06-17_16-13-55_260595134347_rgbf000111-resize_0/001214_2014-06-17_16-13-55_260595134347_rgbf000111-resize_0-target.png,125,2.6505,0.04,7287,114,meters,jsons/VE125_randls_7_rotated.json,1233301,1827530,58,Woman
73,933555,DepthScenes,duration_manipulation_targetAtFixation,jsons/VE125_randls_7_rotated.json,http://54.235.29.9/FacialAge/BNav_EC2/DepthDuration/v2_depth_duration_MTurk/v2_DepthDuration_HTML.html#446,446,1536,722,1536,864,9-4-2022,10-14-46,74,depth_duration_stimuli/000810_2014-06-08_17-20-01_260595134347_rgbf000105-resize_0/000810_2014-06-08_17-20-01_260595134347_rgbf000105-resize_0-target.png,125,1.4865,0.06,4821,124,meters,jsons/VE125_randls_7_rotated.json,1233301,1827530,58,Woman
74,933555,DepthScenes,duration_manipulation_targetAtFixation,jsons/VE125_randls_7_rotated.json,http://54.235.29.9/FacialAge/BNav_EC2/DepthDuration/v2_depth_duration_MTurk/v2_DepthDuration_HTML.html#446,446,1536,722,1536,864,9-4-2022,10-14-46,75,depth_duration_stimuli/002758_2014-06-22_19-11-20_094959634447_rgbf000128-resize_1/002758_2014-06-22_19-11-20_094959634447_rgbf000128-resize_1-target.png,125,2.555,0.02,314081,124,meters,jsons/VE125_randls_7_rotated.json,1233301,1827530,58,Woman
75,933555,DepthScenes,duration_manipulation_targetAtFixation,jsons/VE125_randls_7_rotated.json,http://54.235.29.9/FacialAge/BNav_EC2/DepthDuration/v2_depth_duration_MTurk/v2_DepthDuration_HTML.html#446,446,1536,722,1536,864,9-4-2022,10-14-46,76,depth_duration_stimuli/002630_2014-06-24_14-47-50_094959634447_rgbf000055-resize_1/002630_2014-06-24_14-47-50_094959634447_rgbf000055-resize_1-target.png,125,3.0095,0.2,4009,123,meters,jsons/VE125_randls_7_rotated.json,1233301,1827530,58,Woman
76,933555,DepthScenes,duration_manipulation_targetAtFixation,jsons/VE125_randls_7_rotated.json,http://54.235.29.9/FacialAge/BNav_EC2/DepthDuration/v2_depth_duration_MTurk/v2_DepthDuration_HTML.html#446,446,1536,722,1536,864,9-4-2022,10-14-46,77,depth_duration_stimuli/000457_2014-06-08_16-52-43_260595134347_rgbf000199-resize_1/000457_2014-06-08_16-52-43_260595134347_rgbf000199-resize_1-target.png,125,3.6489999999999996,0.03,4347,126,meters,jsons/VE125_randls_7_rotated.json,1233301,1827530,58,Woman
77,933555,DepthScenes,duration_manipulation_targetAtFixation,jsons/VE125_randls_7_rotated.json,http://54.235.29.9/FacialAge/BNav_EC2/DepthDuration/v2_depth_duration_MTurk/v2_DepthDuration_HTML.html#446,446,1536,722,1536,864,9-4-2022,10-14-46,78,depth_duration_stimuli/000929_2014-06-09_16-33-19_260595134347_rgbf000139-resize_0/000929_2014-06-09_16-33-19_260595134347_rgbf000139-resize_0-target.png,125,2.8680000000000003,0.04,4296,125,meters,jsons/VE125_randls_7_rotated.json,1233301,1827530,58,Woman
78,933555,DepthScenes,duration_manipulation_targetAtFixation,jsons/VE125_randls_7_rotated.json,http://54.235.29.9/FacialAge/BNav_EC2/DepthDuration/v2_depth_duration_MTurk/v2_DepthDuration_HTML.html#446,446,1536,722,1536,864,9-4-2022,10-14-46,79,depth_duration_stimuli/002568_2014-06-24_13-59-21_094959634447_rgbf000062-resize_4/002568_2014-06-24_13-59-21_094959634447_rgbf000062-resize_4-target.png,125,3.015,0.02,3744,118,meters,jsons/VE125_randls_7_rotated.json,1233301,1827530,58,Woman
79,933555,DepthScenes,duration_manipulation_targetAtFixation,jsons/VE125_randls_7_rotated.json,http://54.235.29.9/FacialAge/BNav_EC2/DepthDuration/v2_depth_duration_MTurk/v2_DepthDuration_HTML.html#446,446,1536,722,1536,864,9-4-2022,10-14-46,80,depth_duration_stimuli/003492_2014-05-21_15-50-55_094959634447_rgbf000828-resize_1/003492_2014-05-21_15-50-55_094959634447_rgbf000828-resize_1-target.png,125,4.06875,0.05,3994,126,meters,jsons/VE125_randls_7_rotated.json,1233301,1827530,58,Woman
80,933555,DepthScenes,duration_manipulation_targetAtFixation,jsons/VE125_randls_7_rotated.json,http://54.235.29.9/FacialAge/BNav_EC2/DepthDuration/v2_depth_duration_MTurk/v2_DepthDuration_HTML.html#446,446,1536,722,1536,864,9-4-2022,10-14-46,81,depth_duration_stimuli/002660_2014-06-13_15-44-18_094959634447_rgbf001878-resize_2/002660_2014-06-13_15-44-18_094959634447_rgbf001878-resize_2-target.png,125,3.576,0.05,3493,127,meters,jsons/VE125_randls_7_rotated.json,1233301,1827530,58,Woman
81,933555,DepthScenes,duration_manipulation_targetAtFixation,jsons/VE125_randls_7_rotated.json,http://54.235.29.9/FacialAge/BNav_EC2/DepthDuration/v2_depth_duration_MTurk/v2_DepthDuration_HTML.html#446,446,1536,722,1536,864,9-4-2022,10-14-46,82,depth_duration_stimuli/002153_2014-06-25_21-27-18_260595134347_rgbf000038-resize_5/002153_2014-06-25_21-27-18_260595134347_rgbf000038-resize_5-target.png,125,2.505,0.08,4458,127,meters,jsons/VE125_randls_7_rotated.json,1233301,1827530,58,Woman
82,933555,DepthScenes,duration_manipulation_targetAtFixation,jsons/VE125_randls_7_rotated.json,http://54.235.29.9/FacialAge/BNav_EC2/DepthDuration/v2_depth_duration_MTurk/v2_DepthDuration_HTML.html#446,446,1536,722,1536,864,9-4-2022,10-14-46,83,depth_duration_stimuli/002750_2014-06-22_19-08-03_094959634447_rgbf000094-resize_4/002750_2014-06-22_19-08-03_094959634447_rgbf000094-resize_4-target.png,125,2.354,0.2,5961,125,meters,jsons/VE125_randls_7_rotated.json,1233301,1827530,58,Woman
83,933555,DepthScenes,duration_manipulation_targetAtFixation,jsons/VE125_randls_7_rotated.json,http://54.235.29.9/FacialAge/BNav_EC2/DepthDuration/v2_depth_duration_MTurk/v2_DepthDuration_HTML.html#446,446,1536,722,1536,864,9-4-2022,10-14-46,84,depth_duration_stimuli/002549_2014-06-24_13-41-39_094959634447_rgbf000022-resize_3/002549_2014-06-24_13-41-39_094959634447_rgbf000022-resize_3-target.png,125,1.476,0.1,4169,127,meters,jsons/VE125_randls_7_rotated.json,1233301,1827530,58,Woman
84,933555,DepthScenes,duration_manipulation_targetAtFixation,jsons/VE125_randls_7_rotated.json,http://54.235.29.9/FacialAge/BNav_EC2/DepthDuration/v2_depth_duration_MTurk/v2_DepthDuration_HTML.html#446,446,1536,722,1536,864,9-4-2022,10-14-46,85,depth_duration_stimuli/002209_2014-06-28_18-36-10_260595134347_rgbf000051-resize_1/002209_2014-06-28_18-36-10_260595134347_rgbf000051-resize_1-target.png,125,2.057,0.05,5683,138,meters,jsons/VE125_randls_7_rotated.json,1233301,1827530,58,Woman
85,933555,DepthScenes,duration_manipulation_targetAtFixation,jsons/VE125_randls_7_rotated.json,http://54.235.29.9/FacialAge/BNav_EC2/DepthDuration/v2_depth_duration_MTurk/v2_DepthDuration_HTML.html#446,446,1536,722,1536,864,9-4-2022,10-14-46,86,depth_duration_stimuli/002763_2014-06-22_19-13-10_094959634447_rgbf000075-resize_4/002763_2014-06-22_19-13-10_094959634447_rgbf000075-resize_4-target.png,125,1.68375,0.08,3958,117,meters,jsons/VE125_randls_7_rotated.json,1233301,1827530,58,Woman
86,933555,DepthScenes,duration_manipulation_targetAtFixation,jsons/VE125_randls_7_rotated.json,http://54.235.29.9/FacialAge/BNav_EC2/DepthDuration/v2_depth_duration_MTurk/v2_DepthDuration_HTML.html#446,446,1536,722,1536,864,9-4-2022,10-14-46,87,depth_duration_stimuli/003083_2014-06-15_15-21-03_094959634447_rgbf000063-resize_1/003083_2014-06-15_15-21-03_094959634447_rgbf000063-resize_1-target.png,125,4.1405,0.07,4194,108,meters,jsons/VE125_randls_7_rotated.json,1233301,1827530,58,Woman
87,933555,DepthScenes,duration_manipulation_targetAtFixation,jsons/VE125_randls_7_rotated.json,http://54.235.29.9/FacialAge/BNav_EC2/DepthDuration/v2_depth_duration_MTurk/v2_DepthDuration_HTML.html#446,446,1536,722,1536,864,9-4-2022,10-14-46,88,depth_duration_stimuli/000486_2014-06-09_20-47-20_260595134347_rgbf000143-resize_2/000486_2014-06-09_20-47-20_260595134347_rgbf000143-resize_2-target.png,125,4.8325,0.2,3716,125,meters,jsons/VE125_randls_7_rotated.json,1233301,1827530,58,Woman
88,933555,DepthScenes,duration_manipulation_targetAtFixation,jsons/VE125_randls_7_rotated.json,http://54.235.29.9/FacialAge/BNav_EC2/DepthDuration/v2_depth_duration_MTurk/v2_DepthDuration_HTML.html#446,446,1536,722,1536,864,9-4-2022,10-14-46,89,depth_duration_stimuli/000137_2014-05-20_17-04-49_260595134347_rgbf000120-resize_1/000137_2014-05-20_17-04-49_260595134347_rgbf000120-resize_1-target.png,125,3.786,0.08,4006,118,meters,jsons/VE125_randls_7_rotated.json,1233301,1827530,58,Woman
89,933555,DepthScenes,duration_manipulation_targetAtFixation,jsons/VE125_randls_7_rotated.json,http://54.235.29.9/FacialAge/BNav_EC2/DepthDuration/v2_depth_duration_MTurk/v2_DepthDuration_HTML.html#446,446,1536,722,1536,864,9-4-2022,10-14-46,90,depth_duration_stimuli/000736_2014-06-08_18-24-15_260595134347_rgbf000206-resize_3/000736_2014-06-08_18-24-15_260595134347_rgbf000206-resize_3-target.png,125,3.515,0.03,3543,124,meters,jsons/VE125_randls_7_rotated.json,1233301,1827530,58,Woman
90,933555,DepthScenes,duration_manipulation_targetAtFixation,jsons/VE125_randls_7_rotated.json,http://54.235.29.9/FacialAge/BNav_EC2/DepthDuration/v2_depth_duration_MTurk/v2_DepthDuration_HTML.html#446,446,1536,722,1536,864,9-4-2022,10-14-46,91,depth_duration_stimuli/000635_2014-06-08_16-38-42_260595134347_rgbf000106-resize_1/000635_2014-06-08_16-38-42_260595134347_rgbf000106-resize_1-target.png,125,2.074,0.06,5407,112,meters,jsons/VE125_randls_7_rotated.json,1233301,1827530,58,Woman
91,933555,DepthScenes,duration_manipulation_targetAtFixation,jsons/VE125_randls_7_rotated.json,http://54.235.29.9/FacialAge/BNav_EC2/DepthDuration/v2_depth_duration_MTurk/v2_DepthDuration_HTML.html#446,446,1536,722,1536,864,9-4-2022,10-14-46,92,depth_duration_stimuli/002279_2014-06-28_18-55-32_260595134347_rgbf000040-resize_5/002279_2014-06-28_18-55-32_260595134347_rgbf000040-resize_5-target.png,125,1.5043333333333,0.04,3833,121,meters,jsons/VE125_randls_7_rotated.json,1233301,1827530,58,Woman
92,933555,DepthScenes,duration_manipulation_targetAtFixation,jsons/VE125_randls_7_rotated.json,http://54.235.29.9/FacialAge/BNav_EC2/DepthDuration/v2_depth_duration_MTurk/v2_DepthDuration_HTML.html#446,446,1536,722,1536,864,9-4-2022,10-14-46,93,depth_duration_stimuli/000866_2014-06-09_20-45-42_260595134347_rgbf000139-resize_1/000866_2014-06-09_20-45-42_260595134347_rgbf000139-resize_1-target.png,125,3.2155,0.1,3683,114,meters,jsons/VE125_randls_7_rotated.json,1233301,1827530,58,Woman
93,933555,DepthScenes,duration_manipulation_targetAtFixation,jsons/VE125_randls_7_rotated.json,http://54.235.29.9/FacialAge/BNav_EC2/DepthDuration/v2_depth_duration_MTurk/v2_DepthDuration_HTML.html#446,446,1536,722,1536,864,9-4-2022,10-14-46,94,depth_duration_stimuli/002989_2014-06-15_12-25-03_094959634447_rgbf000150-resize_3/002989_2014-06-15_12-25-03_094959634447_rgbf000150-resize_3-target.png,125,4.1975,0.2,6528,123,meters,jsons/VE125_randls_7_rotated.json,1233301,1827530,58,Woman
94,933555,DepthScenes,duration_manipulation_targetAtFixation,jsons/VE125_randls_7_rotated.json,http://54.235.29.9/FacialAge/BNav_EC2/DepthDuration/v2_depth_duration_MTurk/v2_DepthDuration_HTML.html#446,446,1536,722,1536,864,9-4-2022,10-14-46,95,depth_duration_stimuli/002805_2014-06-22_19-54-03_094959634447_rgbf000079-resize_1/002805_2014-06-22_19-54-03_094959634447_rgbf000079-resize_1-target.png,125,3.1439999999999997,0.08,3843,129,meters,jsons/VE125_randls_7_rotated.json,1233301,1827530,58,Woman
95,933555,DepthScenes,duration_manipulation_targetAtFixation,jsons/VE125_randls_7_rotated.json,http://54.235.29.9/FacialAge/BNav_EC2/DepthDuration/v2_depth_duration_MTurk/v2_DepthDuration_HTML.html#446,446,1536,722,1536,864,9-4-2022,10-14-46,96,depth_duration_stimuli/000906_2014-06-08_13-35-43_260595134347_rgbf000155-resize_1/000906_2014-06-08_13-35-43_260595134347_rgbf000155-resize_1-target.png,125,2.8489999999999998,0.15,4211,124,meters,jsons/VE125_randls_7_rotated.json,1233301,1827530,58,Woman
96,933555,DepthScenes,duration_manipulation_targetAtFixation,jsons/VE125_randls_7_rotated.json,http://54.235.29.9/FacialAge/BNav_EC2/DepthDuration/v2_depth_duration_MTurk/v2_DepthDuration_HTML.html#446,446,1536,722,1536,864,9-4-2022,10-14-46,97,depth_duration_stimuli/001052_2014-06-08_18-24-54_260595134347_rgbf000130-resize_1/001052_2014-06-08_18-24-54_260595134347_rgbf000130-resize_1-target.png,125,4.1045,0.09,5089,131,meters,jsons/VE125_randls_7_rotated.json,1233301,1827530,58,Woman
97,933555,DepthScenes,duration_manipulation_targetAtFixation,jsons/VE125_randls_7_rotated.json,http://54.235.29.9/FacialAge/BNav_EC2/DepthDuration/v2_depth_duration_MTurk/v2_DepthDuration_HTML.html#446,446,1536,722,1536,864,9-4-2022,10-14-46,98,depth_duration_stimuli/002988_2014-06-15_12-24-20_094959634447_rgbf000150-resize_1/002988_2014-06-15_12-24-20_094959634447_rgbf000150-resize_1-target.png,125,4.7669999999999995,0.12,4161,124,meters,jsons/VE125_randls_7_rotated.json,1233301,1827530,58,Woman
98,933555,DepthScenes,duration_manipulation_targetAtFixation,jsons/VE125_randls_7_rotated.json,http://54.235.29.9/FacialAge/BNav_EC2/DepthDuration/v2_depth_duration_MTurk/v2_DepthDuration_HTML.html#446,446,1536,722,1536,864,9-4-2022,10-14-46,99,depth_duration_stimuli/001222_2014-06-17_16-24-06_260595134347_rgbf000073-resize_0/001222_2014-06-17_16-24-06_260595134347_rgbf000073-resize-original.jpg,125,1.4385,0.0,4833,123,meters,jsons/VE125_randls_7_rotated.json,1233301,1827530,58,Woman
99,933555,DepthScenes,duration_manipulation_targetAtFixation,jsons/VE125_randls_7_rotated.json,http://54.235.29.9/FacialAge/BNav_EC2/DepthDuration/v2_depth_duration_MTurk/v2_DepthDuration_HTML.html#446,446,1536,722,1536,864,9-4-2022,10-14-46,100,depth_duration_stimuli/003228_2014-05-14_13-42-35_094959634447_rgbf000101-resize_1/003228_2014-05-14_13-42-35_094959634447_rgbf000101-resize_1-target.png,125,1.9680000000000002,0.02,4352,121,meters,jsons/VE125_randls_7_rotated.json,1233301,1827530,58,Woman
100,933555,DepthScenes,duration_manipulation_targetAtFixation,jsons/VE125_randls_7_rotated.json,http://54.235.29.9/FacialAge/BNav_EC2/DepthDuration/v2_depth_duration_MTurk/v2_DepthDuration_HTML.html#446,446,1536,722,1536,864,9-4-2022,10-14-46,101,depth_duration_stimuli/002600_2014-06-24_14-27-04_094959634447_rgbf000074-resize_2/002600_2014-06-24_14-27-04_094959634447_rgbf000074-resize_2-target.png,125,2.7575,0.05,4042,127,meters,jsons/VE125_randls_7_rotated.json,1233301,1827530,58,Woman
101,933555,DepthScenes,duration_manipulation_targetAtFixation,jsons/VE125_randls_7_rotated.json,http://54.235.29.9/FacialAge/BNav_EC2/DepthDuration/v2_depth_duration_MTurk/v2_DepthDuration_HTML.html#446,446,1536,722,1536,864,9-4-2022,10-14-46,102,depth_duration_stimuli/002953_2014-06-08_17-32-18_094959634447_rgbf000059-resize_5/002953_2014-06-08_17-32-18_094959634447_rgbf000059-resize_5-target.png,125,1.551,0.06,7035,131,meters,jsons/VE125_randls_7_rotated.json,1233301,1827530,58,Woman
102,933555,DepthScenes,duration_manipulation_targetAtFixation,jsons/VE125_randls_7_rotated.json,http://54.235.29.9/FacialAge/BNav_EC2/DepthDuration/v2_depth_duration_MTurk/v2_DepthDuration_HTML.html#446,446,1536,722,1536,864,9-4-2022,10-14-46,103,depth_duration_stimuli/000878_2014-06-08_22-52-45_260595134347_rgbf000045-resize_2/000878_2014-06-08_22-52-45_260595134347_rgbf000045-resize_2-target.png,125,2.092,0.09,3812,131,meters,jsons/VE125_randls_7_rotated.json,1233301,1827530,58,Woman
103,933555,DepthScenes,duration_manipulation_targetAtFixation,jsons/VE125_randls_7_rotated.json,http://54.235.29.9/FacialAge/BNav_EC2/DepthDuration/v2_depth_duration_MTurk/v2_DepthDuration_HTML.html#446,446,1536,722,1536,864,9-4-2022,10-14-46,104,depth_duration_stimuli/000109_2014-05-14_23-41-52_260595134347_rgbf000035-resize_9/000109_2014-05-14_23-41-52_260595134347_rgbf000035-resize_9-target.png,125,1.3545,0.08,4305,111,meters,jsons/VE125_randls_7_rotated.json,1233301,1827530,58,Woman
104,933555,DepthScenes,duration_manipulation_targetAtFixation,jsons/VE125_randls_7_rotated.json,http://54.235.29.9/FacialAge/BNav_EC2/DepthDuration/v2_depth_duration_MTurk/v2_DepthDuration_HTML.html#446,446,1536,722,1536,864,9-4-2022,10-14-46,105,depth_duration_stimuli/000470_2014-06-09_19-42-40_260595134347_rgbf000094-resize_1/000470_2014-06-09_19-42-40_260595134347_rgbf000094-resize_1-target.png,125,1.831,0.01,3898,112,meters,jsons/VE125_randls_7_rotated.json,1233301,1827530,58,Woman
105,933555,DepthScenes,duration_manipulation_targetAtFixation,jsons/VE125_randls_7_rotated.json,http://54.235.29.9/FacialAge/BNav_EC2/DepthDuration/v2_depth_duration_MTurk/v2_DepthDuration_HTML.html#446,446,1536,722,1536,864,9-4-2022,10-14-46,106,depth_duration_stimuli/000556_2014-06-09_22-42-56_260595134347_rgbf000214-resize_1/000556_2014-06-09_22-42-56_260595134347_rgbf000214-resize_1-target.png,125,4.8415,0.01,5400,128,meters,jsons/VE125_randls_7_rotated.json,1233301,1827530,58,Woman
106,933555,DepthScenes,duration_manipulation_targetAtFixation,jsons/VE125_randls_7_rotated.json,http://54.235.29.9/FacialAge/BNav_EC2/DepthDuration/v2_depth_duration_MTurk/v2_DepthDuration_HTML.html#446,446,1536,722,1536,864,9-4-2022,10-14-46,107,depth_duration_stimuli/001158_2014-06-17_15-32-16_260595134347_rgbf000138-resize_2/001158_2014-06-17_15-32-16_260595134347_rgbf000138-resize_2-target.png,125,4.5315,0.02,4560,124,meters,jsons/VE125_randls_7_rotated.json,1233301,1827530,58,Woman
107,933555,DepthScenes,duration_manipulation_targetAtFixation,jsons/VE125_randls_7_rotated.json,http://54.235.29.9/FacialAge/BNav_EC2/DepthDuration/v2_depth_duration_MTurk/v2_DepthDuration_HTML.html#446,446,1536,722,1536,864,9-4-2022,10-14-46,108,depth_duration_stimuli/003490_2014-05-21_15-50-11_094959634447_rgbf000101-resize_3/003490_2014-05-21_15-50-11_094959634447_rgbf000101-resize_3-target.png,125,3.6445,0.03,6465,123,meters,jsons/VE125_randls_7_rotated.json,1233301,1827530,58,Woman
108,933555,DepthScenes,duration_manipulation_targetAtFixation,jsons/VE125_randls_7_rotated.json,http://54.235.29.9/FacialAge/BNav_EC2/DepthDuration/v2_depth_duration_MTurk/v2_DepthDuration_HTML.html#446,446,1536,722,1536,864,9-4-2022,10-14-46,109,depth_duration_stimuli/001175_2014-06-17_15-45-55_260595134347_rgbf000129-resize_4/001175_2014-06-17_15-45-55_260595134347_rgbf000129-resize_4-target.png,125,4.255,0.1,5932,135,meters,jsons/VE125_randls_7_rotated.json,1233301,1827530,58,Woman
109,933555,DepthScenes,duration_manipulation_targetAtFixation,jsons/VE125_randls_7_rotated.json,http://54.235.29.9/FacialAge/BNav_EC2/DepthDuration/v2_depth_duration_MTurk/v2_DepthDuration_HTML.html#446,446,1536,722,1536,864,9-4-2022,10-14-46,110,depth_duration_stimuli/002545_2014-06-24_13-38-53_094959634447_rgbf000080-resize_4/002545_2014-06-24_13-38-53_094959634447_rgbf000080-resize_4-target.png,125,1.9205,0.05,4370,136,meters,jsons/VE125_randls_7_rotated.json,1233301,1827530,58,Woman
110,933555,DepthScenes,duration_manipulation_targetAtFixation,jsons/VE125_randls_7_rotated.json,http://54.235.29.9/FacialAge/BNav_EC2/DepthDuration/v2_depth_duration_MTurk/v2_DepthDuration_HTML.html#446,446,1536,722,1536,864,9-4-2022,10-14-46,111,depth_duration_stimuli/001092_2014-06-15_17-34-58_260595134347_rgbf000171-resize_3/001092_2014-06-15_17-34-58_260595134347_rgbf000171-resize_3-target.png,125,2.6935,0.05,4427,128,meters,jsons/VE125_randls_7_rotated.json,1233301,1827530,58,Woman
111,933555,DepthScenes,duration_manipulation_targetAtFixation,jsons/VE125_randls_7_rotated.json,http://54.235.29.9/FacialAge/BNav_EC2/DepthDuration/v2_depth_duration_MTurk/v2_DepthDuration_HTML.html#446,446,1536,722,1536,864,9-4-2022,10-14-46,112,depth_duration_stimuli/000691_2014-06-08_13-08-50_260595134347_rgbf000132-resize_3/000691_2014-06-08_13-08-50_260595134347_rgbf000132-resize_3-target.png,125,4.1530000000000005,0.02,4938,110,meters,jsons/VE125_randls_7_rotated.json,1233301,1827530,58,Woman
112,933555,DepthScenes,duration_manipulation_targetAtFixation,jsons/VE125_randls_7_rotated.json,http://54.235.29.9/FacialAge/BNav_EC2/DepthDuration/v2_depth_duration_MTurk/v2_DepthDuration_HTML.html#446,446,1536,722,1536,864,9-4-2022,10-14-46,113,depth_duration_stimuli/002213_2014-06-28_18-37-58_260595134347_rgbf000055-resize_1/002213_2014-06-28_18-37-58_260595134347_rgbf000055-resize_1-target.png,125,3.62,0.08,3971,130,meters,jsons/VE125_randls_7_rotated.json,1233301,1827530,58,Woman
113,933555,DepthScenes,duration_manipulation_targetAtFixation,jsons/VE125_randls_7_rotated.json,http://54.235.29.9/FacialAge/BNav_EC2/DepthDuration/v2_depth_duration_MTurk/v2_DepthDuration_HTML.html#446,446,1536,722,1536,864,9-4-2022,10-14-46,114,depth_duration_stimuli/001447_2014-06-19_17-00-32_260595134347_rgbf000082-resize_5/001447_2014-06-19_17-00-32_260595134347_rgbf000082-resize_5-target.png,125,4.13775,0.05,5203,125,meters,jsons/VE125_randls_7_rotated.json,1233301,1827530,58,Woman
114,933555,DepthScenes,duration_manipulation_targetAtFixation,jsons/VE125_randls_7_rotated.json,http://54.235.29.9/FacialAge/BNav_EC2/DepthDuration/v2_depth_duration_MTurk/v2_DepthDuration_HTML.html#446,446,1536,722,1536,864,9-4-2022,10-14-46,115,depth_duration_stimuli/000447_2014-06-08_16-15-46_260595134347_rgbf000130-resize_1/000447_2014-06-08_16-15-46_260595134347_rgbf000130-resize_1-target.png,125,4.479,0.1,4190,128,meters,jsons/VE125_randls_7_rotated.json,1233301,1827530,58,Woman
115,933555,DepthScenes,duration_manipulation_targetAtFixation,jsons/VE125_randls_7_rotated.json,http://54.235.29.9/FacialAge/BNav_EC2/DepthDuration/v2_depth_duration_MTurk/v2_DepthDuration_HTML.html#446,446,1536,722,1536,864,9-4-2022,10-14-46,116,depth_duration_stimuli/000677_2014-06-08_23-10-32_260595134347_rgbf000158-resize_6/000677_2014-06-08_23-10-32_260595134347_rgbf000158-resize_6-target.png,125,3.556,0.05,5099,126,meters,jsons/VE125_randls_7_rotated.json,1233301,1827530,58,Woman
116,933555,DepthScenes,duration_manipulation_targetAtFixation,jsons/VE125_randls_7_rotated.json,http://54.235.29.9/FacialAge/BNav_EC2/DepthDuration/v2_depth_duration_MTurk/v2_DepthDuration_HTML.html#446,446,1536,722,1536,864,9-4-2022,10-14-46,117,depth_duration_stimuli/001029_2014-06-08_13-17-57_260595134347_rgbf000065-resize_1/001029_2014-06-08_13-17-57_260595134347_rgbf000065-resize_1-target.png,125,3.0835,0.08,4207,112,meters,jsons/VE125_randls_7_rotated.json,1233301,1827530,58,Woman
117,933555,DepthScenes,duration_manipulation_targetAtFixation,jsons/VE125_randls_7_rotated.json,http://54.235.29.9/FacialAge/BNav_EC2/DepthDuration/v2_depth_duration_MTurk/v2_DepthDuration_HTML.html#446,446,1536,722,1536,864,9-4-2022,10-14-46,118,depth_duration_stimuli/002444_2014-06-28_20-32-08_260595134347_rgbf000027-resize_0/002444_2014-06-28_20-32-08_260595134347_rgbf000027-resize_0-target.png,125,4.388999999999999,0.06,4356,126,meters,jsons/VE125_randls_7_rotated.json,1233301,1827530,58,Woman
118,933555,DepthScenes,duration_manipulation_targetAtFixation,jsons/VE125_randls_7_rotated.json,http://54.235.29.9/FacialAge/BNav_EC2/DepthDuration/v2_depth_duration_MTurk/v2_DepthDuration_HTML.html#446,446,1536,722,1536,864,9-4-2022,10-14-46,119,depth_duration_stimuli/000436_2014-06-09_22-25-11_260595134347_rgbf000137-resize_1/000436_2014-06-09_22-25-11_260595134347_rgbf000137-resize_1-target.png,125,4.0705,0.08,4042,129,meters,jsons/VE125_randls_7_rotated.json,1233301,1827530,58,Woman
119,933555,DepthScenes,duration_manipulation_targetAtFixation,jsons/VE125_randls_7_rotated.json,http://54.235.29.9/FacialAge/BNav_EC2/DepthDuration/v2_depth_duration_MTurk/v2_DepthDuration_HTML.html#446,446,1536,722,1536,864,9-4-2022,10-14-46,120,depth_duration_stimuli/000787_2014-06-08_22-33-53_260595134347_rgbf000175-resize_1/000787_2014-06-08_22-33-53_260595134347_rgbf000175-resize-original.jpg,125,4.784,0.0,3779,125,meters,jsons/VE125_randls_7_rotated.json,1233301,1827530,58,Woman
120,933555,DepthScenes,duration_manipulation_targetAtFixation,jsons/VE125_randls_7_rotated.json,http://54.235.29.9/FacialAge/BNav_EC2/DepthDuration/v2_depth_duration_MTurk/v2_DepthDuration_HTML.html#446,446,1536,722,1536,864,9-4-2022,10-14-46,121,depth_duration_stimuli/003495_2014-05-21_16-01-51_094959634447_rgbf000100-resize_3/003495_2014-05-21_16-01-51_094959634447_rgbf000100-resize_3-target.png,125,1.6255,0.01,4038,125,meters,jsons/VE125_randls_7_rotated.json,1233301,1827530,58,Woman
121,933555,DepthScenes,duration_manipulation_targetAtFixation,jsons/VE125_randls_7_rotated.json,http://54.235.29.9/FacialAge/BNav_EC2/DepthDuration/v2_depth_duration_MTurk/v2_DepthDuration_HTML.html#446,446,1536,722,1536,864,9-4-2022,10-14-46,122,depth_duration_stimuli/001244_2014-06-17_16-47-45_260595134347_rgbf000030-resize_4/001244_2014-06-17_16-47-45_260595134347_rgbf000030-resize_4-target.png,125,2.0425,0.02,3595,130,meters,jsons/VE125_randls_7_rotated.json,1233301,1827530,58,Woman
122,933555,DepthScenes,duration_manipulation_targetAtFixation,jsons/VE125_randls_7_rotated.json,http://54.235.29.9/FacialAge/BNav_EC2/DepthDuration/v2_depth_duration_MTurk/v2_DepthDuration_HTML.html#446,446,1536,722,1536,864,9-4-2022,10-14-46,123,depth_duration_stimuli/000854_2014-06-09_19-43-13_260595134347_rgbf000066-resize_0/000854_2014-06-09_19-43-13_260595134347_rgbf000066-resize_0-target.png,125,3.068,0.01,3861,117,meters,jsons/VE125_randls_7_rotated.json,1233301,1827530,58,Woman
123,933555,DepthScenes,duration_manipulation_targetAtFixation,jsons/VE125_randls_7_rotated.json,http://54.235.29.9/FacialAge/BNav_EC2/DepthDuration/v2_depth_duration_MTurk/v2_DepthDuration_HTML.html#446,446,1536,722,1536,864,9-4-2022,10-14-46,124,depth_duration_stimuli/000758_2014-06-08_22-05-08_260595134347_rgbf000085-resize_0/000758_2014-06-08_22-05-08_260595134347_rgbf000085-resize_0-target.png,125,3.3810000000000002,0.06,3732,124,meters,jsons/VE125_randls_7_rotated.json,1233301,1827530,58,Woman
124,933555,DepthScenes,duration_manipulation_targetAtFixation,jsons/VE125_randls_7_rotated.json,http://54.235.29.9/FacialAge/BNav_EC2/DepthDuration/v2_depth_duration_MTurk/v2_DepthDuration_HTML.html#446,446,1536,722,1536,864,9-4-2022,10-14-46,125,depth_duration_stimuli/002995_2014-06-15_12-31-26_094959634447_rgbf000150-resize_1/002995_2014-06-15_12-31-26_094959634447_rgbf000150-resize_1-target.png,125,3.8360000000000003,0.08,3679,124,meters,jsons/VE125_randls_7_rotated.json,1233301,1827530,58,Woman
125,933555,DepthScenes,duration_manipulation_targetAtFixation,jsons/VE125_randls_7_rotated.json,http://54.235.29.9/FacialAge/BNav_EC2/DepthDuration/v2_depth_duration_MTurk/v2_DepthDuration_HTML.html#446,446,1536,722,1536,864,9-4-2022,10-14-46,126,depth_duration_stimuli/002748_2014-06-22_19-07-22_094959634447_rgbf000078-resize_1/002748_2014-06-22_19-07-22_094959634447_rgbf000078-resize_1-target.png,125,4.6705,0.2,4145,125,meters,jsons/VE125_randls_7_rotated.json,1233301,1827530,58,Woman
126,933555,DepthScenes,duration_manipulation_targetAtFixation,jsons/VE125_randls_7_rotated.json,http://54.235.29.9/FacialAge/BNav_EC2/DepthDuration/v2_depth_duration_MTurk/v2_DepthDuration_HTML.html#446,446,1536,722,1536,864,9-4-2022,10-14-46,127,depth_duration_stimuli/002949_2014-06-26_15-57-42_094959634447_rgbf000079-resize_1/002949_2014-06-26_15-57-42_094959634447_rgbf000079-resize_1-target.png,125,1.8915,0.05,5039,119,meters,jsons/VE125_randls_7_rotated.json,1233301,1827530,58,Woman
127,933555,DepthScenes,duration_manipulation_targetAtFixation,jsons/VE125_randls_7_rotated.json,http://54.235.29.9/FacialAge/BNav_EC2/DepthDuration/v2_depth_duration_MTurk/v2_DepthDuration_HTML.html#446,446,1536,722,1536,864,9-4-2022,10-14-46,128,depth_duration_stimuli/000522_2014-06-08_13-35-06_260595134347_rgbf000244-resize_1/000522_2014-06-08_13-35-06_260595134347_rgbf000244-resize_1-target.png,125,2.3715,0.08,3974,126,meters,jsons/VE125_randls_7_rotated.json,1233301,1827530,58,Woman
128,933555,DepthScenes,duration_manipulation_targetAtFixation,jsons/VE125_randls_7_rotated.json,http://54.235.29.9/FacialAge/BNav_EC2/DepthDuration/v2_depth_duration_MTurk/v2_DepthDuration_HTML.html#446,446,1536,722,1536,864,9-4-2022,10-14-46,129,depth_duration_stimuli/002467_2014-06-28_20-38-07_260595134347_rgbf000026-resize_2/002467_2014-06-28_20-38-07_260595134347_rgbf000026-resize_2-target.png,125,4.742,0.1,3713,126,meters,jsons/VE125_randls_7_rotated.json,1233301,1827530,58,Woman
129,933555,DepthScenes,duration_manipulation_targetAtFixation,jsons/VE125_randls_7_rotated.json,http://54.235.29.9/FacialAge/BNav_EC2/DepthDuration/v2_depth_duration_MTurk/v2_DepthDuration_HTML.html#446,446,1536,722,1536,864,9-4-2022,10-14-46,130,depth_duration_stimuli/002570_2014-06-24_13-59-54_094959634447_rgbf000059-resize_0/002570_2014-06-24_13-59-54_094959634447_rgbf000059-resize_0-target.png,125,4.037,0.1,3620,123,meters,jsons/VE125_randls_7_rotated.json,1233301,1827530,58,Woman
130,933555,DepthScenes,duration_manipulation_targetAtFixation,jsons/VE125_randls_7_rotated.json,http://54.235.29.9/FacialAge/BNav_EC2/DepthDuration/v2_depth_duration_MTurk/v2_DepthDuration_HTML.html#446,446,1536,722,1536,864,9-4-2022,10-14-46,131,depth_duration_stimuli/001094_2014-06-15_17-36-00_260595134347_rgbf000205-resize_0/001094_2014-06-15_17-36-00_260595134347_rgbf000205-resize_0-target.png,125,4.2175,0.08,3684,112,meters,jsons/VE125_randls_7_rotated.json,1233301,1827530,58,Woman
131,933555,DepthScenes,duration_manipulation_targetAtFixation,jsons/VE125_randls_7_rotated.json,http://54.235.29.9/FacialAge/BNav_EC2/DepthDuration/v2_depth_duration_MTurk/v2_DepthDuration_HTML.html#446,446,1536,722,1536,864,9-4-2022,10-14-46,132,depth_duration_stimuli/000692_2014-06-08_13-09-42_260595134347_rgbf000199-resize_2/000692_2014-06-08_13-09-42_260595134347_rgbf000199-resize_2-target.png,125,3.661,0.2,3502,121,meters,jsons/VE125_randls_7_rotated.json,1233301,1827530,58,Woman
132,933555,DepthScenes,duration_manipulation_targetAtFixation,jsons/VE125_randls_7_rotated.json,http://54.235.29.9/FacialAge/BNav_EC2/DepthDuration/v2_depth_duration_MTurk/v2_DepthDuration_HTML.html#446,446,1536,722,1536,864,9-4-2022,10-14-46,133,depth_duration_stimuli/001100_2014-06-15_17-46-26_260595134347_rgbf000225-resize_2/001100_2014-06-15_17-46-26_260595134347_rgbf000225-resize_2-target.png,125,2.24,0.1,4512,126,meters,jsons/VE125_randls_7_rotated.json,1233301,1827530,58,Woman
133,933555,DepthScenes,duration_manipulation_targetAtFixation,jsons/VE125_randls_7_rotated.json,http://54.235.29.9/FacialAge/BNav_EC2/DepthDuration/v2_depth_duration_MTurk/v2_DepthDuration_HTML.html#446,446,1536,722,1536,864,9-4-2022,10-14-46,134,depth_duration_stimuli/002784_2014-06-22_19-26-30_094959634447_rgbf000083-resize_3/002784_2014-06-22_19-26-30_094959634447_rgbf000083-resize_3-target.png,125,1.8046666666667,0.02,3602,118,meters,jsons/VE125_randls_7_rotated.json,1233301,1827530,58,Woman
134,933555,DepthScenes,duration_manipulation_targetAtFixation,jsons/VE125_randls_7_rotated.json,http://54.235.29.9/FacialAge/BNav_EC2/DepthDuration/v2_depth_duration_MTurk/v2_DepthDuration_HTML.html#446,446,1536,722,1536,864,9-4-2022,10-14-46,135,depth_duration_stimuli/000375_2014-06-08_11-17-29_260595134347_rgbf000133-resize_2/000375_2014-06-08_11-17-29_260595134347_rgbf000133-resize-original.jpg,125,4.718,0.0,3629,114,meters,jsons/VE125_randls_7_rotated.json,1233301,1827530,58,Woman
135,933555,DepthScenes,duration_manipulation_targetAtFixation,jsons/VE125_randls_7_rotated.json,http://54.235.29.9/FacialAge/BNav_EC2/DepthDuration/v2_depth_duration_MTurk/v2_DepthDuration_HTML.html#446,446,1536,722,1536,864,9-4-2022,10-14-46,136,depth_duration_stimuli/001571_2014-06-20_17-21-32_260595134347_rgbf000089-resize_1/001571_2014-06-20_17-21-32_260595134347_rgbf000089-resize_1-target.png,125,1.86,0.03,5170,128,meters,jsons/VE125_randls_7_rotated.json,1233301,1827530,58,Woman
136,933555,DepthScenes,duration_manipulation_targetAtFixation,jsons/VE125_randls_7_rotated.json,http://54.235.29.9/FacialAge/BNav_EC2/DepthDuration/v2_depth_duration_MTurk/v2_DepthDuration_HTML.html#446,446,1536,722,1536,864,9-4-2022,10-14-46,137,depth_duration_stimuli/002272_2014-06-28_18-53-56_260595134347_rgbf000067-resize_2/002272_2014-06-28_18-53-56_260595134347_rgbf000067-resize_2-target.png,125,1.138,0.05,6415,126,meters,jsons/VE125_randls_7_rotated.json,1233301,1827530,58,Woman
137,933555,DepthScenes,duration_manipulation_targetAtFixation,jsons/VE125_randls_7_rotated.json,http://54.235.29.9/FacialAge/BNav_EC2/DepthDuration/v2_depth_duration_MTurk/v2_DepthDuration_HTML.html#446,446,1536,722,1536,864,9-4-2022,10-14-46,138,depth_duration_stimuli/002678_2014-06-13_16-15-32_094959634447_rgbf000151-resize_6/002678_2014-06-13_16-15-32_094959634447_rgbf000151-resize_6-target.png,125,2.1830000000000003,0.06,6899,124,meters,jsons/VE125_randls_7_rotated.json,1233301,1827530,58,Woman
138,933555,DepthScenes,duration_manipulation_targetAtFixation,jsons/VE125_randls_7_rotated.json,http://54.235.29.9/FacialAge/BNav_EC2/DepthDuration/v2_depth_duration_MTurk/v2_DepthDuration_HTML.html#446,446,1536,722,1536,864,9-4-2022,10-14-46,139,depth_duration_stimuli/000368_2014-06-09_15-53-01_260595134347_rgbf000155-resize_2/000368_2014-06-09_15-53-01_260595134347_rgbf000155-resize_2-target.png,125,2.4859999999999998,0.05,3995,125,meters,jsons/VE125_randls_7_rotated.json,1233301,1827530,58,Woman
139,933555,DepthScenes,duration_manipulation_targetAtFixation,jsons/VE125_randls_7_rotated.json,http://54.235.29.9/FacialAge/BNav_EC2/DepthDuration/v2_depth_duration_MTurk/v2_DepthDuration_HTML.html#446,446,1536,722,1536,864,9-4-2022,10-14-46,140,depth_duration_stimuli/002199_2014-06-28_18-33-56_260595134347_rgbf000074-resize_0/002199_2014-06-28_18-33-56_260595134347_rgbf000074-resize_0-target.png,125,1.996,0.1,3730,130,meters,jsons/VE125_randls_7_rotated.json,1233301,1827530,58,Woman
140,933555,DepthScenes,duration_manipulation_targetAtFixation,jsons/VE125_randls_7_rotated.json,http://54.235.29.9/FacialAge/BNav_EC2/DepthDuration/v2_depth_duration_MTurk/v2_DepthDuration_HTML.html#446,446,1536,722,1536,864,9-4-2022,10-14-46,141,depth_duration_stimuli/001056_2014-06-08_18-46-44_260595134347_rgbf000068-resize_0/001056_2014-06-08_18-46-44_260595134347_rgbf000068-resize_0-target.png,125,2.6625,0.03,4903,121,meters,jsons/VE125_randls_7_rotated.json,1233301,1827530,58,Woman
141,933555,DepthScenes,duration_manipulation_targetAtFixation,jsons/VE125_randls_7_rotated.json,http://54.235.29.9/FacialAge/BNav_EC2/DepthDuration/v2_depth_duration_MTurk/v2_DepthDuration_HTML.html#446,446,1536,722,1536,864,9-4-2022,10-14-46,142,depth_duration_stimuli/002425_2014-06-28_20-27-29_260595134347_rgbf000031-resize_8/002425_2014-06-28_20-27-29_260595134347_rgbf000031-resize_8-target.png,125,3.8960000000000004,0.06,4380,124,meters,jsons/VE125_randls_7_rotated.json,1233301,1827530,58,Woman
142,933555,DepthScenes,duration_manipulation_targetAtFixation,jsons/VE125_randls_7_rotated.json,http://54.235.29.9/FacialAge/BNav_EC2/DepthDuration/v2_depth_duration_MTurk/v2_DepthDuration_HTML.html#446,446,1536,722,1536,864,9-4-2022,10-14-46,143,depth_duration_stimuli/000642_2014-06-08_16-59-25_260595134347_rgbf000098-resize_2/000642_2014-06-08_16-59-25_260595134347_rgbf000098-resize_2-target.png,125,2.8815,0.05,4778,127,meters,jsons/VE125_randls_7_rotated.json,1233301,1827530,58,Woman
143,933555,DepthScenes,duration_manipulation_targetAtFixation,jsons/VE125_randls_7_rotated.json,http://54.235.29.9/FacialAge/BNav_EC2/DepthDuration/v2_depth_duration_MTurk/v2_DepthDuration_HTML.html#446,446,1536,722,1536,864,9-4-2022,10-14-46,144,depth_duration_stimuli/000734_2014-06-08_17-39-11_260595134347_rgbf000128-resize_2/000734_2014-06-08_17-39-11_260595134347_rgbf000128-resize_2-target.png,125,4.098,0.06,5355,134,meters,jsons/VE125_randls_7_rotated.json,1233301,1827530,58,Woman
144,933555,DepthScenes,duration_manipulation_targetAtFixation,jsons/VE125_randls_7_rotated.json,http://54.235.29.9/FacialAge/BNav_EC2/DepthDuration/v2_depth_duration_MTurk/v2_DepthDuration_HTML.html#446,446,1536,722,1536,864,9-4-2022,10-14-46,145,depth_duration_stimuli/000739_2014-06-08_18-45-58_260595134347_rgbf000068-resize_1/000739_2014-06-08_18-45-58_260595134347_rgbf000068-resize_1-target.png,125,3.534,0.05,4223,134,meters,jsons/VE125_randls_7_rotated.json,1233301,1827530,58,Woman
145,933555,DepthScenes,duration_manipulation_targetAtFixation,jsons/VE125_randls_7_rotated.json,http://54.235.29.9/FacialAge/BNav_EC2/DepthDuration/v2_depth_duration_MTurk/v2_DepthDuration_HTML.html#446,446,1536,722,1536,864,9-4-2022,10-14-46,146,depth_duration_stimuli/001815_2014-06-26_20-52-55_260595134347_rgbf000020-resize_0/001815_2014-06-26_20-52-55_260595134347_rgbf000020-resize_0-target.png,125,3.3865,0.1,4454,126,meters,jsons/VE125_randls_7_rotated.json,1233301,1827530,58,Woman
146,933555,DepthScenes,duration_manipulation_targetAtFixation,jsons/VE125_randls_7_rotated.json,http://54.235.29.9/FacialAge/BNav_EC2/DepthDuration/v2_depth_duration_MTurk/v2_DepthDuration_HTML.html#446,446,1536,722,1536,864,9-4-2022,10-14-46,147,depth_duration_stimuli/001808_2014-06-26_20-50-58_260595134347_rgbf000029-resize_1/001808_2014-06-26_20-50-58_260595134347_rgbf000029-resize_1-target.png,125,4.249,0.06,4153,121,meters,jsons/VE125_randls_7_rotated.json,1233301,1827530,58,Woman
147,933555,DepthScenes,duration_manipulation_targetAtFixation,jsons/VE125_randls_7_rotated.json,http://54.235.29.9/FacialAge/BNav_EC2/DepthDuration/v2_depth_duration_MTurk/v2_DepthDuration_HTML.html#446,446,1536,722,1536,864,9-4-2022,10-14-46,148,depth_duration_stimuli/002637_2014-06-24_14-51-13_094959634447_rgbf000066-resize_4/002637_2014-06-24_14-51-13_094959634447_rgbf000066-resize_4-target.png,125,1.9955,0.05,5354,127,meters,jsons/VE125_randls_7_rotated.json,1233301,1827530,58,Woman
148,933555,DepthScenes,duration_manipulation_targetAtFixation,jsons/VE125_randls_7_rotated.json,http://54.235.29.9/FacialAge/BNav_EC2/DepthDuration/v2_depth_duration_MTurk/v2_DepthDuration_HTML.html#446,446,1536,722,1536,864,9-4-2022,10-14-46,149,depth_duration_stimuli/003534_2014-05-22_15-06-10_094959634447_rgbf000102-resize_4/003534_2014-05-22_15-06-10_094959634447_rgbf000102-resize_4-target.png,125,1.426,0.09,7231,134,meters,jsons/VE125_randls_7_rotated.json,1233301,1827530,58,Woman
149,933555,DepthScenes,duration_manipulation_targetAtFixation,jsons/VE125_randls_7_rotated.json,http://54.235.29.9/FacialAge/BNav_EC2/DepthDuration/v2_depth_duration_MTurk/v2_DepthDuration_HTML.html#446,446,1536,722,1536,864,9-4-2022,10-14-46,150,depth_duration_stimuli/003048_2014-06-15_13-49-43_094959634447_rgbf000150-resize_1/003048_2014-06-15_13-49-43_094959634447_rgbf000150-resize_1-target.png,125,4.0035,0.2,4993,123,meters,jsons/VE125_randls_7_rotated.json,1233301,1827530,58,Woman
150,933555,DepthScenes,duration_manipulation_targetAtFixation,jsons/VE125_randls_7_rotated.json,http://54.235.29.9/FacialAge/BNav_EC2/DepthDuration/v2_depth_duration_MTurk/v2_DepthDuration_HTML.html#446,446,1536,722,1536,864,9-4-2022,10-14-46,151,depth_duration_stimuli/002043_2014-06-24_20-29-38_260595134347_rgbf000039-resize_4/002043_2014-06-24_20-29-38_260595134347_rgbf000039-resize_4-target.png,125,2.8435,0.05,3643,136,meters,jsons/VE125_randls_7_rotated.json,1233301,1827530,58,Woman
151,933555,DepthScenes,duration_manipulation_targetAtFixation,jsons/VE125_randls_7_rotated.json,http://54.235.29.9/FacialAge/BNav_EC2/DepthDuration/v2_depth_duration_MTurk/v2_DepthDuration_HTML.html#446,446,1536,722,1536,864,9-4-2022,10-14-46,152,depth_duration_stimuli/000569_2014-06-09_22-51-47_260595134347_rgbf000141-resize_3/000569_2014-06-09_22-51-47_260595134347_rgbf000141-resize-original.jpg,125,4.512,0.0,3719,125,meters,jsons/VE125_randls_7_rotated.json,1233301,1827530,58,Woman
152,933555,DepthScenes,duration_manipulation_targetAtFixation,jsons/VE125_randls_7_rotated.json,http://54.235.29.9/FacialAge/BNav_EC2/DepthDuration/v2_depth_duration_MTurk/v2_DepthDuration_HTML.html#446,446,1536,722,1536,864,9-4-2022,10-14-46,153,depth_duration_stimuli/001516_2014-06-20_16-25-09_260595134347_rgbf000076-resize_2/001516_2014-06-20_16-25-09_260595134347_rgbf000076-resize_2-target.png,125,1.7445,0.08,4372,111,meters,jsons/VE125_randls_7_rotated.json,1233301,1827530,58,Woman
153,933555,DepthScenes,duration_manipulation_targetAtFixation,jsons/VE125_randls_7_rotated.json,http://54.235.29.9/FacialAge/BNav_EC2/DepthDuration/v2_depth_duration_MTurk/v2_DepthDuration_HTML.html#446,446,1536,722,1536,864,9-4-2022,10-14-46,154,depth_duration_stimuli/002118_2014-06-25_20-32-08_260595134347_rgbf000078-resize_1/002118_2014-06-25_20-32-08_260595134347_rgbf000078-resize_1-target.png,125,2.6460000000000004,0.05,3718,115,meters,jsons/VE125_randls_7_rotated.json,1233301,1827530,58,Woman
154,933555,DepthScenes,duration_manipulation_targetAtFixation,jsons/VE125_randls_7_rotated.json,http://54.235.29.9/FacialAge/BNav_EC2/DepthDuration/v2_depth_duration_MTurk/v2_DepthDuration_HTML.html#446,446,1536,722,1536,864,9-4-2022,10-14-46,155,depth_duration_stimuli/001617_2014-06-20_11-35-32_260595134347_rgbf000066-resize_1/001617_2014-06-20_11-35-32_260595134347_rgbf000066-resize_1-target.png,125,3.7910000000000004,0.1,3944,124,meters,jsons/VE125_randls_7_rotated.json,1233301,1827530,58,Woman
155,933555,DepthScenes,duration_manipulation_targetAtFixation,jsons/VE125_randls_7_rotated.json,http://54.235.29.9/FacialAge/BNav_EC2/DepthDuration/v2_depth_duration_MTurk/v2_DepthDuration_HTML.html#446,446,1536,722,1536,864,9-4-2022,10-14-46,156,depth_duration_stimuli/001806_2014-06-26_20-50-20_260595134347_rgbf000091-resize_1/001806_2014-06-26_20-50-20_260595134347_rgbf000091-resize_1-target.png,125,2.7305,0.1,3863,119,meters,jsons/VE125_randls_7_rotated.json,1233301,1827530,58,Woman
156,933555,DepthScenes,duration_manipulation_targetAtFixation,jsons/VE125_randls_7_rotated.json,http://54.235.29.9/FacialAge/BNav_EC2/DepthDuration/v2_depth_duration_MTurk/v2_DepthDuration_HTML.html#446,446,1536,722,1536,864,9-4-2022,10-14-46,157,depth_duration_stimuli/001032_2014-06-08_13-23-17_260595134347_rgbf000021-resize_3/001032_2014-06-08_13-23-17_260595134347_rgbf000021-resize_3-target.png,125,3.2725,0.05,5342,120,meters,jsons/VE125_randls_7_rotated.json,1233301,1827530,58,Woman
157,933555,DepthScenes,duration_manipulation_targetAtFixation,jsons/VE125_randls_7_rotated.json,http://54.235.29.9/FacialAge/BNav_EC2/DepthDuration/v2_depth_duration_MTurk/v2_DepthDuration_HTML.html#446,446,1536,722,1536,864,9-4-2022,10-14-46,158,depth_duration_stimuli/001059_2014-06-08_21-53-27_260595134347_rgbf000061-resize_4/001059_2014-06-08_21-53-27_260595134347_rgbf000061-resize_4-target.png,125,2.4185,0.04,4211,122,meters,jsons/VE125_randls_7_rotated.json,1233301,1827530,58,Woman
158,933555,DepthScenes,duration_manipulation_targetAtFixation,jsons/VE125_randls_7_rotated.json,http://54.235.29.9/FacialAge/BNav_EC2/DepthDuration/v2_depth_duration_MTurk/v2_DepthDuration_HTML.html#446,446,1536,722,1536,864,9-4-2022,10-14-46,159,depth_duration_stimuli/003010_2014-06-15_12-54-35_094959634447_rgbf000112-resize_0/003010_2014-06-15_12-54-35_094959634447_rgbf000112-resize_0-target.png,125,3.1185,0.2,4102,130,meters,jsons/VE125_randls_7_rotated.json,1233301,1827530,58,Woman
159,933555,DepthScenes,duration_manipulation_targetAtFixation,jsons/VE125_randls_7_rotated.json,http://54.235.29.9/FacialAge/BNav_EC2/DepthDuration/v2_depth_duration_MTurk/v2_DepthDuration_HTML.html#446,446,1536,722,1536,864,9-4-2022,10-14-46,160,depth_duration_stimuli/001810_2014-06-26_20-51-35_260595134347_rgbf000040-resize_3/001810_2014-06-26_20-51-35_260595134347_rgbf000040-resize_3-target.png,125,2.2525,0.05,4032,124,meters,jsons/VE125_randls_7_rotated.json,1233301,1827530,58,Woman
160,933555,DepthScenes,duration_manipulation_targetAtFixation,jsons/VE125_randls_7_rotated.json,http://54.235.29.9/FacialAge/BNav_EC2/DepthDuration/v2_depth_duration_MTurk/v2_DepthDuration_HTML.html#446,446,1536,722,1536,864,9-4-2022,10-14-46,161,depth_duration_stimuli/001828_2014-06-26_21-40-03_260595134347_rgbf000024-resize_0/001828_2014-06-26_21-40-03_260595134347_rgbf000024-resize_0-target.png,125,4.8260000000000005,0.09,4105,123,meters,jsons/VE125_randls_7_rotated.json,1233301,1827530,58,Woman
161,933555,DepthScenes,duration_manipulation_targetAtFixation,jsons/VE125_randls_7_rotated.json,http://54.235.29.9/FacialAge/BNav_EC2/DepthDuration/v2_depth_duration_MTurk/v2_DepthDuration_HTML.html#446,446,1536,722,1536,864,9-4-2022,10-14-46,162,depth_duration_stimuli/000009_2014-05-26_14-32-05_260595134347_rgbf000034-resize_3/000009_2014-05-26_14-32-05_260595134347_rgbf000034-resize_3-target.png,125,3.8715,0.2,3877,125,meters,jsons/VE125_randls_7_rotated.json,1233301,1827530,58,Woman
162,933555,DepthScenes,duration_manipulation_targetAtFixation,jsons/VE125_randls_7_rotated.json,http://54.235.29.9/FacialAge/BNav_EC2/DepthDuration/v2_depth_duration_MTurk/v2_DepthDuration_HTML.html#446,446,1536,722,1536,864,9-4-2022,10-14-46,163,depth_duration_stimuli/000780_2014-06-08_22-28-29_260595134347_rgbf000126-resize_1/000780_2014-06-08_22-28-29_260595134347_rgbf000126-resize_1-target.png,125,3.3825,0.1,3872,129,meters,jsons/VE125_randls_7_rotated.json,1233301,1827530,58,Woman
163,933555,DepthScenes,duration_manipulation_targetAtFixation,jsons/VE125_randls_7_rotated.json,http://54.235.29.9/FacialAge/BNav_EC2/DepthDuration/v2_depth_duration_MTurk/v2_DepthDuration_HTML.html#446,446,1536,722,1536,864,9-4-2022,10-14-46,164,depth_duration_stimuli/002445_2014-06-28_20-32-16_260595134347_rgbf000029-resize_4/002445_2014-06-28_20-32-16_260595134347_rgbf000029-resize_4-target.png,125,2.5315,0.1,3931,124,meters,jsons/VE125_randls_7_rotated.json,1233301,1827530,58,Woman
