,subjID,experimentName,versionName,sequenceName,url,selected_row,windowWidth,windowHeight,screenWidth,screenHeight,startDate,startTime,trial,stimulus,duration,actual_depth,depth_estimate,trial_RT,log_sceneDuration,unitSelection,seq_filepath,experimentTime,totalTime,age,gender
0,933568,DepthScenes,duration_manipulation_targetAtFixation,jsons/VE125_randls_8.json,http://54.235.29.9/FacialAge/BNav_EC2/DepthDuration/v2_depth_duration_MTurk/v2_DepthDuration_HTML.html#442,442,1280,720,1280,720,9-3-2022,9-11-51,1,depth_duration_stimuli/000788_2014-06-08_22-34-36_260595134347_rgbf000131-resize_1/000788_2014-06-08_22-34-36_260595134347_rgbf000131-resize_1-target.png,125,3.359,7,3624,110,feet,jsons/VE125_randls_8.json,484788,651671,39,Man
1,933568,DepthScenes,duration_manipulation_targetAtFixation,jsons/VE125_randls_8.json,http://54.235.29.9/FacialAge/BNav_EC2/DepthDuration/v2_depth_duration_MTurk/v2_DepthDuration_HTML.html#442,442,1280,720,1280,720,9-3-2022,9-11-51,2,depth_duration_stimuli/001235_2014-06-17_16-37-36_260595134347_rgbf000084-resize_4/001235_2014-06-17_16-37-36_260595134347_rgbf000084-resize_4-target.png,125,3.6605,8,2601,127,feet,jsons/VE125_randls_8.json,484788,651671,39,Man
2,933568,DepthScenes,duration_manipulation_targetAtFixation,jsons/VE125_randls_8.json,http://54.235.29.9/FacialAge/BNav_EC2/DepthDuration/v2_depth_duration_MTurk/v2_DepthDuration_HTML.html#442,442,1280,720,1280,720,9-3-2022,9-11-51,3,depth_duration_stimuli/001175_2014-06-17_15-45-55_260595134347_rgbf000129-resize_4/001175_2014-06-17_15-45-55_260595134347_rgbf000129-resize_4-target.png,125,4.255,10,3105,125,feet,jsons/VE125_randls_8.json,484788,651671,39,Man
3,933568,DepthScenes,duration_manipulation_targetAtFixation,jsons/VE125_randls_8.json,http://54.235.29.9/FacialAge/BNav_EC2/DepthDuration/v2_depth_duration_MTurk/v2_DepthDuration_HTML.html#442,442,1280,720,1280,720,9-3-2022,9-11-51,4,depth_duration_stimuli/003490_2014-05-21_15-50-11_094959634447_rgbf000101-resize_3/003490_2014-05-21_15-50-11_094959634447_rgbf000101-resize_3-target.png,125,3.6445,0,1662,125,feet,jsons/VE125_randls_8.json,484788,651671,39,Man
4,933568,DepthScenes,duration_manipulation_targetAtFixation,jsons/VE125_randls_8.json,http://54.235.29.9/FacialAge/BNav_EC2/DepthDuration/v2_depth_duration_MTurk/v2_DepthDuration_HTML.html#442,442,1280,720,1280,720,9-3-2022,9-11-51,5,depth_duration_stimuli/000810_2014-06-08_17-20-01_260595134347_rgbf000105-resize_0/000810_2014-06-08_17-20-01_260595134347_rgbf000105-resize_0-target.png,125,1.4865,3,4006,124,feet,jsons/VE125_randls_8.json,484788,651671,39,Man
5,933568,DepthScenes,duration_manipulation_targetAtFixation,jsons/VE125_randls_8.json,http://54.235.29.9/FacialAge/BNav_EC2/DepthDuration/v2_depth_duration_MTurk/v2_DepthDuration_HTML.html#442,442,1280,720,1280,720,9-3-2022,9-11-51,6,depth_duration_stimuli/001214_2014-06-17_16-13-55_260595134347_rgbf000111-resize_0/001214_2014-06-17_16-13-55_260595134347_rgbf000111-resize_0-target.png,125,2.6505,3,3842,125,feet,jsons/VE125_randls_8.json,484788,651671,39,Man
6,933568,DepthScenes,duration_manipulation_targetAtFixation,jsons/VE125_randls_8.json,http://54.235.29.9/FacialAge/BNav_EC2/DepthDuration/v2_depth_duration_MTurk/v2_DepthDuration_HTML.html#442,442,1280,720,1280,720,9-3-2022,9-11-51,7,depth_duration_stimuli/003070_2014-06-15_14-58-27_094959634447_rgbf000150-resize_3/003070_2014-06-15_14-58-27_094959634447_rgbf000150-resize_3-target.png,125,2.9415,5,1819,124,feet,jsons/VE125_randls_8.json,484788,651671,39,Man
7,933568,DepthScenes,duration_manipulation_targetAtFixation,jsons/VE125_randls_8.json,http://54.235.29.9/FacialAge/BNav_EC2/DepthDuration/v2_depth_duration_MTurk/v2_DepthDuration_HTML.html#442,442,1280,720,1280,720,9-3-2022,9-11-51,8,depth_duration_stimuli/000943_2014-06-09_19-31-07_260595134347_rgbf000128-resize_1/000943_2014-06-09_19-31-07_260595134347_rgbf000128-resize_1-target.png,125,1.9765,2,2899,124,feet,jsons/VE125_randls_8.json,484788,651671,39,Man
8,933568,DepthScenes,duration_manipulation_targetAtFixation,jsons/VE125_randls_8.json,http://54.235.29.9/FacialAge/BNav_EC2/DepthDuration/v2_depth_duration_MTurk/v2_DepthDuration_HTML.html#442,442,1280,720,1280,720,9-3-2022,9-11-51,9,depth_duration_stimuli/000469_2014-06-09_19-42-10_260595134347_rgbf000081-resize_1/000469_2014-06-09_19-42-10_260595134347_rgbf000081-resize_1-target.png,125,1.652,3,2086,126,feet,jsons/VE125_randls_8.json,484788,651671,39,Man
9,933568,DepthScenes,duration_manipulation_targetAtFixation,jsons/VE125_randls_8.json,http://54.235.29.9/FacialAge/BNav_EC2/DepthDuration/v2_depth_duration_MTurk/v2_DepthDuration_HTML.html#442,442,1280,720,1280,720,9-3-2022,9-11-51,10,depth_duration_stimuli/000483_2014-06-09_20-41-45_260595134347_rgbf000116-resize_4/000483_2014-06-09_20-41-45_260595134347_rgbf000116-resize_4-target.png,125,1.337,5,4218,125,feet,jsons/VE125_randls_8.json,484788,651671,39,Man
10,933568,DepthScenes,duration_manipulation_targetAtFixation,jsons/VE125_randls_8.json,http://54.235.29.9/FacialAge/BNav_EC2/DepthDuration/v2_depth_duration_MTurk/v2_DepthDuration_HTML.html#442,442,1280,720,1280,720,9-3-2022,9-11-51,11,depth_duration_stimuli/001810_2014-06-26_20-51-35_260595134347_rgbf000040-resize_3/001810_2014-06-26_20-51-35_260595134347_rgbf000040-resize_3-target.png,125,2.2525,3,3504,124,feet,jsons/VE125_randls_8.json,484788,651671,39,Man
11,933568,DepthScenes,duration_manipulation_targetAtFixation,jsons/VE125_randls_8.json,http://54.235.29.9/FacialAge/BNav_EC2/DepthDuration/v2_depth_duration_MTurk/v2_DepthDuration_HTML.html#442,442,1280,720,1280,720,9-3-2022,9-11-51,12,depth_duration_stimuli/003010_2014-06-15_12-54-35_094959634447_rgbf000112-resize_0/003010_2014-06-15_12-54-35_094959634447_rgbf000112-resize_0-target.png,125,3.1185,5,1897,125,feet,jsons/VE125_randls_8.json,484788,651671,39,Man
12,933568,DepthScenes,duration_manipulation_targetAtFixation,jsons/VE125_randls_8.json,http://54.235.29.9/FacialAge/BNav_EC2/DepthDuration/v2_depth_duration_MTurk/v2_DepthDuration_HTML.html#442,442,1280,720,1280,720,9-3-2022,9-11-51,13,depth_duration_stimuli/000569_2014-06-09_22-51-47_260595134347_rgbf000141-resize_3/000569_2014-06-09_22-51-47_260595134347_rgbf000141-resize-original.jpg,125,4.512,0,1716,125,feet,jsons/VE125_randls_8.json,484788,651671,39,Man
13,933568,DepthScenes,duration_manipulation_targetAtFixation,jsons/VE125_randls_8.json,http://54.235.29.9/FacialAge/BNav_EC2/DepthDuration/v2_depth_duration_MTurk/v2_DepthDuration_HTML.html#442,442,1280,720,1280,720,9-3-2022,9-11-51,14,depth_duration_stimuli/000682_2014-06-08_23-14-58_260595134347_rgbf000041-resize_5/000682_2014-06-08_23-14-58_260595134347_rgbf000041-resize_5-target.png,125,2.7239999999999998,2,2070,125,feet,jsons/VE125_randls_8.json,484788,651671,39,Man
14,933568,DepthScenes,duration_manipulation_targetAtFixation,jsons/VE125_randls_8.json,http://54.235.29.9/FacialAge/BNav_EC2/DepthDuration/v2_depth_duration_MTurk/v2_DepthDuration_HTML.html#442,442,1280,720,1280,720,9-3-2022,9-11-51,15,depth_duration_stimuli/001650_2014-06-20_12-09-00_260595134347_rgbf000087-resize_3/001650_2014-06-20_12-09-00_260595134347_rgbf000087-resize_3-target.png,125,1.9505,0,2085,124,feet,jsons/VE125_randls_8.json,484788,651671,39,Man
15,933568,DepthScenes,duration_manipulation_targetAtFixation,jsons/VE125_randls_8.json,http://54.235.29.9/FacialAge/BNav_EC2/DepthDuration/v2_depth_duration_MTurk/v2_DepthDuration_HTML.html#442,442,1280,720,1280,720,9-3-2022,9-11-51,16,depth_duration_stimuli/002630_2014-06-24_14-47-50_094959634447_rgbf000055-resize_1/002630_2014-06-24_14-47-50_094959634447_rgbf000055-resize_1-target.png,125,3.0095,10,2086,124,feet,jsons/VE125_randls_8.json,484788,651671,39,Man
16,933568,DepthScenes,duration_manipulation_targetAtFixation,jsons/VE125_randls_8.json,http://54.235.29.9/FacialAge/BNav_EC2/DepthDuration/v2_depth_duration_MTurk/v2_DepthDuration_HTML.html#442,442,1280,720,1280,720,9-3-2022,9-11-51,17,depth_duration_stimuli/002758_2014-06-22_19-11-20_094959634447_rgbf000128-resize_1/002758_2014-06-22_19-11-20_094959634447_rgbf000128-resize_1-target.png,125,2.555,4,2070,124,feet,jsons/VE125_randls_8.json,484788,651671,39,Man
17,933568,DepthScenes,duration_manipulation_targetAtFixation,jsons/VE125_randls_8.json,http://54.235.29.9/FacialAge/BNav_EC2/DepthDuration/v2_depth_duration_MTurk/v2_DepthDuration_HTML.html#442,442,1280,720,1280,720,9-3-2022,9-11-51,18,depth_duration_stimuli/001133_2014-06-17_14-49-16_260595134347_rgbf000100-resize_0/001133_2014-06-17_14-49-16_260595134347_rgbf000100-resize_0-target.png,125,4.2115,8,2115,125,feet,jsons/VE125_randls_8.json,484788,651671,39,Man
18,933568,DepthScenes,duration_manipulation_targetAtFixation,jsons/VE125_randls_8.json,http://54.235.29.9/FacialAge/BNav_EC2/DepthDuration/v2_depth_duration_MTurk/v2_DepthDuration_HTML.html#442,442,1280,720,1280,720,9-3-2022,9-11-51,19,depth_duration_stimuli/001132_2014-06-17_14-48-54_260595134347_rgbf000100-resize_2/001132_2014-06-17_14-48-54_260595134347_rgbf000100-resize_2-target.png,125,3.753,7,3497,125,feet,jsons/VE125_randls_8.json,484788,651671,39,Man
19,933568,DepthScenes,duration_manipulation_targetAtFixation,jsons/VE125_randls_8.json,http://54.235.29.9/FacialAge/BNav_EC2/DepthDuration/v2_depth_duration_MTurk/v2_DepthDuration_HTML.html#442,442,1280,720,1280,720,9-3-2022,9-11-51,20,depth_duration_stimuli/001059_2014-06-08_21-53-27_260595134347_rgbf000061-resize_4/001059_2014-06-08_21-53-27_260595134347_rgbf000061-resize_4-target.png,125,2.4185,4,2695,124,feet,jsons/VE125_randls_8.json,484788,651671,39,Man
20,933568,DepthScenes,duration_manipulation_targetAtFixation,jsons/VE125_randls_8.json,http://54.235.29.9/FacialAge/BNav_EC2/DepthDuration/v2_depth_duration_MTurk/v2_DepthDuration_HTML.html#442,442,1280,720,1280,720,9-3-2022,9-11-51,21,depth_duration_stimuli/001032_2014-06-08_13-23-17_260595134347_rgbf000021-resize_3/001032_2014-06-08_13-23-17_260595134347_rgbf000021-resize_3-target.png,125,3.2725,3,2220,125,feet,jsons/VE125_randls_8.json,484788,651671,39,Man
21,933568,DepthScenes,duration_manipulation_targetAtFixation,jsons/VE125_randls_8.json,http://54.235.29.9/FacialAge/BNav_EC2/DepthDuration/v2_depth_duration_MTurk/v2_DepthDuration_HTML.html#442,442,1280,720,1280,720,9-3-2022,9-11-51,22,depth_duration_stimuli/000736_2014-06-08_18-24-15_260595134347_rgbf000206-resize_3/000736_2014-06-08_18-24-15_260595134347_rgbf000206-resize_3-target.png,125,3.515,6,2587,126,feet,jsons/VE125_randls_8.json,484788,651671,39,Man
22,933568,DepthScenes,duration_manipulation_targetAtFixation,jsons/VE125_randls_8.json,http://54.235.29.9/FacialAge/BNav_EC2/DepthDuration/v2_depth_duration_MTurk/v2_DepthDuration_HTML.html#442,442,1280,720,1280,720,9-3-2022,9-11-51,23,depth_duration_stimuli/000137_2014-05-20_17-04-49_260595134347_rgbf000120-resize_1/000137_2014-05-20_17-04-49_260595134347_rgbf000120-resize_1-target.png,125,3.786,0,2697,125,feet,jsons/VE125_randls_8.json,484788,651671,39,Man
23,933568,DepthScenes,duration_manipulation_targetAtFixation,jsons/VE125_randls_8.json,http://54.235.29.9/FacialAge/BNav_EC2/DepthDuration/v2_depth_duration_MTurk/v2_DepthDuration_HTML.html#442,442,1280,720,1280,720,9-3-2022,9-11-51,24,depth_duration_stimuli/000493_2014-06-09_21-01-18_260595134347_rgbf000196-resize_3/000493_2014-06-09_21-01-18_260595134347_rgbf000196-resize_3-target.png,125,3.44,10,2788,125,feet,jsons/VE125_randls_8.json,484788,651671,39,Man
24,933568,DepthScenes,duration_manipulation_targetAtFixation,jsons/VE125_randls_8.json,http://54.235.29.9/FacialAge/BNav_EC2/DepthDuration/v2_depth_duration_MTurk/v2_DepthDuration_HTML.html#442,442,1280,720,1280,720,9-3-2022,9-11-51,25,depth_duration_stimuli/000191_2014-05-12_17-07-38_260595134347_rgbf000199-resize_0/000191_2014-05-12_17-07-38_260595134347_rgbf000199-resize_0-target.png,125,3.7995,10,3255,125,feet,jsons/VE125_randls_8.json,484788,651671,39,Man
25,933568,DepthScenes,duration_manipulation_targetAtFixation,jsons/VE125_randls_8.json,http://54.235.29.9/FacialAge/BNav_EC2/DepthDuration/v2_depth_duration_MTurk/v2_DepthDuration_HTML.html#442,442,1280,720,1280,720,9-3-2022,9-11-51,26,depth_duration_stimuli/001244_2014-06-17_16-47-45_260595134347_rgbf000030-resize_4/001244_2014-06-17_16-47-45_260595134347_rgbf000030-resize_4-target.png,125,2.0425,6,4327,125,feet,jsons/VE125_randls_8.json,484788,651671,39,Man
26,933568,DepthScenes,duration_manipulation_targetAtFixation,jsons/VE125_randls_8.json,http://54.235.29.9/FacialAge/BNav_EC2/DepthDuration/v2_depth_duration_MTurk/v2_DepthDuration_HTML.html#442,442,1280,720,1280,720,9-3-2022,9-11-51,27,depth_duration_stimuli/003495_2014-05-21_16-01-51_094959634447_rgbf000100-resize_3/003495_2014-05-21_16-01-51_094959634447_rgbf000100-resize_3-target.png,125,1.6255,2,3230,125,feet,jsons/VE125_randls_8.json,484788,651671,39,Man
27,933568,DepthScenes,duration_manipulation_targetAtFixation,jsons/VE125_randls_8.json,http://54.235.29.9/FacialAge/BNav_EC2/DepthDuration/v2_depth_duration_MTurk/v2_DepthDuration_HTML.html#442,442,1280,720,1280,720,9-3-2022,9-11-51,28,depth_duration_stimuli/002763_2014-06-22_19-13-10_094959634447_rgbf000075-resize_4/002763_2014-06-22_19-13-10_094959634447_rgbf000075-resize_4-target.png,125,1.68375,3,4976,125,feet,jsons/VE125_randls_8.json,484788,651671,39,Man
28,933568,DepthScenes,duration_manipulation_targetAtFixation,jsons/VE125_randls_8.json,http://54.235.29.9/FacialAge/BNav_EC2/DepthDuration/v2_depth_duration_MTurk/v2_DepthDuration_HTML.html#442,442,1280,720,1280,720,9-3-2022,9-11-51,29,depth_duration_stimuli/002209_2014-06-28_18-36-10_260595134347_rgbf000051-resize_1/002209_2014-06-28_18-36-10_260595134347_rgbf000051-resize_1-target.png,125,2.057,0,1875,125,feet,jsons/VE125_randls_8.json,484788,651671,39,Man
29,933568,DepthScenes,duration_manipulation_targetAtFixation,jsons/VE125_randls_8.json,http://54.235.29.9/FacialAge/BNav_EC2/DepthDuration/v2_depth_duration_MTurk/v2_DepthDuration_HTML.html#442,442,1280,720,1280,720,9-3-2022,9-11-51,30,depth_duration_stimuli/000375_2014-06-08_11-17-29_260595134347_rgbf000133-resize_2/000375_2014-06-08_11-17-29_260595134347_rgbf000133-resize-original.jpg,125,4.718,10,2729,125,feet,jsons/VE125_randls_8.json,484788,651671,39,Man
30,933568,DepthScenes,duration_manipulation_targetAtFixation,jsons/VE125_randls_8.json,http://54.235.29.9/FacialAge/BNav_EC2/DepthDuration/v2_depth_duration_MTurk/v2_DepthDuration_HTML.html#442,442,1280,720,1280,720,9-3-2022,9-11-51,31,depth_duration_stimuli/001570_2014-06-20_17-21-09_260595134347_rgbf000135-resize_4/001570_2014-06-20_17-21-09_260595134347_rgbf000135-resize_4-target.png,125,4.467,12,3300,124,feet,jsons/VE125_randls_8.json,484788,651671,39,Man
31,933568,DepthScenes,duration_manipulation_targetAtFixation,jsons/VE125_randls_8.json,http://54.235.29.9/FacialAge/BNav_EC2/DepthDuration/v2_depth_duration_MTurk/v2_DepthDuration_HTML.html#442,442,1280,720,1280,720,9-3-2022,9-11-51,32,depth_duration_stimuli/001392_2014-06-19_16-07-59_260595134347_rgbf000046-resize_1/001392_2014-06-19_16-07-59_260595134347_rgbf000046-resize_1-target.png,125,4.135,15,3055,124,feet,jsons/VE125_randls_8.json,484788,651671,39,Man
32,933568,DepthScenes,duration_manipulation_targetAtFixation,jsons/VE125_randls_8.json,http://54.235.29.9/FacialAge/BNav_EC2/DepthDuration/v2_depth_duration_MTurk/v2_DepthDuration_HTML.html#442,442,1280,720,1280,720,9-3-2022,9-11-51,33,depth_duration_stimuli/000414_2014-06-04_19-49-13_260595134347_rgbf000044-resize_0/000414_2014-06-04_19-49-13_260595134347_rgbf000044-resize_0-target.png,125,4.329,10,2157,125,feet,jsons/VE125_randls_8.json,484788,651671,39,Man
33,933568,DepthScenes,duration_manipulation_targetAtFixation,jsons/VE125_randls_8.json,http://54.235.29.9/FacialAge/BNav_EC2/DepthDuration/v2_depth_duration_MTurk/v2_DepthDuration_HTML.html#442,442,1280,720,1280,720,9-3-2022,9-11-51,34,depth_duration_stimuli/003129_2014-05-12_10-48-10_094959634447_rgbf000100-resize_0/003129_2014-05-12_10-48-10_094959634447_rgbf000100-resize_0-target.png,125,4.9305,7,1912,125,feet,jsons/VE125_randls_8.json,484788,651671,39,Man
34,933568,DepthScenes,duration_manipulation_targetAtFixation,jsons/VE125_randls_8.json,http://54.235.29.9/FacialAge/BNav_EC2/DepthDuration/v2_depth_duration_MTurk/v2_DepthDuration_HTML.html#442,442,1280,720,1280,720,9-3-2022,9-11-51,35,depth_duration_stimuli/001417_2014-06-19_16-25-36_260595134347_rgbf000115-resize_5/001417_2014-06-19_16-25-36_260595134347_rgbf000115-resize_5-target.png,125,4.6255,6,2468,125,feet,jsons/VE125_randls_8.json,484788,651671,39,Man
35,933568,DepthScenes,duration_manipulation_targetAtFixation,jsons/VE125_randls_8.json,http://54.235.29.9/FacialAge/BNav_EC2/DepthDuration/v2_depth_duration_MTurk/v2_DepthDuration_HTML.html#442,442,1280,720,1280,720,9-3-2022,9-11-51,36,depth_duration_stimuli/003081_2014-06-15_15-19-16_094959634447_rgbf000150-resize_1/003081_2014-06-15_15-19-16_094959634447_rgbf000150-resize_1-target.png,125,3.9125,7,2022,125,feet,jsons/VE125_randls_8.json,484788,651671,39,Man
36,933568,DepthScenes,duration_manipulation_targetAtFixation,jsons/VE125_randls_8.json,http://54.235.29.9/FacialAge/BNav_EC2/DepthDuration/v2_depth_duration_MTurk/v2_DepthDuration_HTML.html#442,442,1280,720,1280,720,9-3-2022,9-11-51,37,depth_duration_stimuli/000929_2014-06-09_16-33-19_260595134347_rgbf000139-resize_0/000929_2014-06-09_16-33-19_260595134347_rgbf000139-resize_0-target.png,125,2.8680000000000003,7,1764,124,feet,jsons/VE125_randls_8.json,484788,651671,39,Man
37,933568,DepthScenes,duration_manipulation_targetAtFixation,jsons/VE125_randls_8.json,http://54.235.29.9/FacialAge/BNav_EC2/DepthDuration/v2_depth_duration_MTurk/v2_DepthDuration_HTML.html#442,442,1280,720,1280,720,9-3-2022,9-11-51,38,depth_duration_stimuli/000457_2014-06-08_16-52-43_260595134347_rgbf000199-resize_1/000457_2014-06-08_16-52-43_260595134347_rgbf000199-resize_1-target.png,125,3.6489999999999996,0,6771,125,feet,jsons/VE125_randls_8.json,484788,651671,39,Man
38,933568,DepthScenes,duration_manipulation_targetAtFixation,jsons/VE125_randls_8.json,http://54.235.29.9/FacialAge/BNav_EC2/DepthDuration/v2_depth_duration_MTurk/v2_DepthDuration_HTML.html#442,442,1280,720,1280,720,9-3-2022,9-11-51,39,depth_duration_stimuli/001066_2014-06-08_22-03-20_260595134347_rgbf000066-resize_4/001066_2014-06-08_22-03-20_260595134347_rgbf000066-resize_4-target.png,125,4.2330000000000005,12,3308,126,feet,jsons/VE125_randls_8.json,484788,651671,39,Man
39,933568,DepthScenes,duration_manipulation_targetAtFixation,jsons/VE125_randls_8.json,http://54.235.29.9/FacialAge/BNav_EC2/DepthDuration/v2_depth_duration_MTurk/v2_DepthDuration_HTML.html#442,442,1280,720,1280,720,9-3-2022,9-11-51,40,depth_duration_stimuli/000742_2014-06-08_18-48-09_260595134347_rgbf000164-resize_4/000742_2014-06-08_18-48-09_260595134347_rgbf000164-resize_4-target.png,125,4.632,13,2947,125,feet,jsons/VE125_randls_8.json,484788,651671,39,Man
40,933568,DepthScenes,duration_manipulation_targetAtFixation,jsons/VE125_randls_8.json,http://54.235.29.9/FacialAge/BNav_EC2/DepthDuration/v2_depth_duration_MTurk/v2_DepthDuration_HTML.html#442,442,1280,720,1280,720,9-3-2022,9-11-51,41,depth_duration_stimuli/000773_2014-06-08_22-24-54_260595134347_rgbf000093-resize_1/000773_2014-06-08_22-24-54_260595134347_rgbf000093-resize_1-target.png,125,4.973,12,3267,124,feet,jsons/VE125_randls_8.json,484788,651671,39,Man
41,933568,DepthScenes,duration_manipulation_targetAtFixation,jsons/VE125_randls_8.json,http://54.235.29.9/FacialAge/BNav_EC2/DepthDuration/v2_depth_duration_MTurk/v2_DepthDuration_HTML.html#442,442,1280,720,1280,720,9-3-2022,9-11-51,42,depth_duration_stimuli/002414_2014-06-28_20-24-58_260595134347_rgbf000067-resize_4/002414_2014-06-28_20-24-58_260595134347_rgbf000067-resize_4-target.png,125,4.363,7,2179,125,feet,jsons/VE125_randls_8.json,484788,651671,39,Man
42,933568,DepthScenes,duration_manipulation_targetAtFixation,jsons/VE125_randls_8.json,http://54.235.29.9/FacialAge/BNav_EC2/DepthDuration/v2_depth_duration_MTurk/v2_DepthDuration_HTML.html#442,442,1280,720,1280,720,9-3-2022,9-11-51,43,depth_duration_stimuli/002663_2014-06-13_15-50-26_094959634447_rgbf000075-resize_1/002663_2014-06-13_15-50-26_094959634447_rgbf000075-resize_1-target.png,125,4.7495,10,1693,124,feet,jsons/VE125_randls_8.json,484788,651671,39,Man
43,933568,DepthScenes,duration_manipulation_targetAtFixation,jsons/VE125_randls_8.json,http://54.235.29.9/FacialAge/BNav_EC2/DepthDuration/v2_depth_duration_MTurk/v2_DepthDuration_HTML.html#442,442,1280,720,1280,720,9-3-2022,9-11-51,44,depth_duration_stimuli/000409_2014-06-04_19-23-33_260595134347_rgbf000067-resize_0/000409_2014-06-04_19-23-33_260595134347_rgbf000067-resize_0-target.png,125,3.7335,0,2439,125,feet,jsons/VE125_randls_8.json,484788,651671,39,Man
44,933568,DepthScenes,duration_manipulation_targetAtFixation,jsons/VE125_randls_8.json,http://54.235.29.9/FacialAge/BNav_EC2/DepthDuration/v2_depth_duration_MTurk/v2_DepthDuration_HTML.html#442,442,1280,720,1280,720,9-3-2022,9-11-51,45,depth_duration_stimuli/000787_2014-06-08_22-33-53_260595134347_rgbf000175-resize_1/000787_2014-06-08_22-33-53_260595134347_rgbf000175-resize-original.jpg,125,4.784,0,1661,124,feet,jsons/VE125_randls_8.json,484788,651671,39,Man
45,933568,DepthScenes,duration_manipulation_targetAtFixation,jsons/VE125_randls_8.json,http://54.235.29.9/FacialAge/BNav_EC2/DepthDuration/v2_depth_duration_MTurk/v2_DepthDuration_HTML.html#442,442,1280,720,1280,720,9-3-2022,9-11-51,46,depth_duration_stimuli/002788_2014-06-22_19-36-03_094959634447_rgbf000088-resize_2/002788_2014-06-22_19-36-03_094959634447_rgbf000088-resize_2-target.png,125,1.6465,5,3292,124,feet,jsons/VE125_randls_8.json,484788,651671,39,Man
46,933568,DepthScenes,duration_manipulation_targetAtFixation,jsons/VE125_randls_8.json,http://54.235.29.9/FacialAge/BNav_EC2/DepthDuration/v2_depth_duration_MTurk/v2_DepthDuration_HTML.html#442,442,1280,720,1280,720,9-3-2022,9-11-51,47,depth_duration_stimuli/000749_2014-06-08_21-55-06_260595134347_rgbf000070-resize_2/000749_2014-06-08_21-55-06_260595134347_rgbf000070-resize_2-target.png,125,2.331,4,1976,125,feet,jsons/VE125_randls_8.json,484788,651671,39,Man
47,933568,DepthScenes,duration_manipulation_targetAtFixation,jsons/VE125_randls_8.json,http://54.235.29.9/FacialAge/BNav_EC2/DepthDuration/v2_depth_duration_MTurk/v2_DepthDuration_HTML.html#442,442,1280,720,1280,720,9-3-2022,9-11-51,48,depth_duration_stimuli/002509_2014-06-24_13-19-22_094959634447_rgbf000077-resize_0/002509_2014-06-24_13-19-22_094959634447_rgbf000077-resize_0-target.png,125,1.3065,2,2024,125,feet,jsons/VE125_randls_8.json,484788,651671,39,Man
48,933568,DepthScenes,duration_manipulation_targetAtFixation,jsons/VE125_randls_8.json,http://54.235.29.9/FacialAge/BNav_EC2/DepthDuration/v2_depth_duration_MTurk/v2_DepthDuration_HTML.html#442,442,1280,720,1280,720,9-3-2022,9-11-51,49,depth_duration_stimuli/003338_2014-05-20_11-01-23_094959634447_rgbf000051-resize_6/003338_2014-05-20_11-01-23_094959634447_rgbf000051-resize_6-target.png,125,1.693,3,1746,125,feet,jsons/VE125_randls_8.json,484788,651671,39,Man
49,933568,DepthScenes,duration_manipulation_targetAtFixation,jsons/VE125_randls_8.json,http://54.235.29.9/FacialAge/BNav_EC2/DepthDuration/v2_depth_duration_MTurk/v2_DepthDuration_HTML.html#442,442,1280,720,1280,720,9-3-2022,9-11-51,50,depth_duration_stimuli/003492_2014-05-21_15-50-55_094959634447_rgbf000828-resize_1/003492_2014-05-21_15-50-55_094959634447_rgbf000828-resize_1-target.png,125,4.06875,8,3183,125,feet,jsons/VE125_randls_8.json,484788,651671,39,Man
50,933568,DepthScenes,duration_manipulation_targetAtFixation,jsons/VE125_randls_8.json,http://54.235.29.9/FacialAge/BNav_EC2/DepthDuration/v2_depth_duration_MTurk/v2_DepthDuration_HTML.html#442,442,1280,720,1280,720,9-3-2022,9-11-51,51,depth_duration_stimuli/002568_2014-06-24_13-59-21_094959634447_rgbf000062-resize_4/002568_2014-06-24_13-59-21_094959634447_rgbf000062-resize_4-target.png,125,3.015,5,2211,124,feet,jsons/VE125_randls_8.json,484788,651671,39,Man
51,933568,DepthScenes,duration_manipulation_targetAtFixation,jsons/VE125_randls_8.json,http://54.235.29.9/FacialAge/BNav_EC2/DepthDuration/v2_depth_duration_MTurk/v2_DepthDuration_HTML.html#442,442,1280,720,1280,720,9-3-2022,9-11-51,52,depth_duration_stimuli/000368_2014-06-09_15-53-01_260595134347_rgbf000155-resize_2/000368_2014-06-09_15-53-01_260595134347_rgbf000155-resize_2-target.png,125,2.4859999999999998,0,1952,124,feet,jsons/VE125_randls_8.json,484788,651671,39,Man
52,933568,DepthScenes,duration_manipulation_targetAtFixation,jsons/VE125_randls_8.json,http://54.235.29.9/FacialAge/BNav_EC2/DepthDuration/v2_depth_duration_MTurk/v2_DepthDuration_HTML.html#442,442,1280,720,1280,720,9-3-2022,9-11-51,53,depth_duration_stimuli/002678_2014-06-13_16-15-32_094959634447_rgbf000151-resize_6/002678_2014-06-13_16-15-32_094959634447_rgbf000151-resize_6-target.png,125,2.1830000000000003,3,3941,126,feet,jsons/VE125_randls_8.json,484788,651671,39,Man
53,933568,DepthScenes,duration_manipulation_targetAtFixation,jsons/VE125_randls_8.json,http://54.235.29.9/FacialAge/BNav_EC2/DepthDuration/v2_depth_duration_MTurk/v2_DepthDuration_HTML.html#442,442,1280,720,1280,720,9-3-2022,9-11-51,54,depth_duration_stimuli/003621_2014-05-23_18-06-08_094959634447_rgbf000101-resize_1/003621_2014-05-23_18-06-08_094959634447_rgbf000101-resize_1-target.png,125,3.9835,5,2715,125,feet,jsons/VE125_randls_8.json,484788,651671,39,Man
54,933568,DepthScenes,duration_manipulation_targetAtFixation,jsons/VE125_randls_8.json,http://54.235.29.9/FacialAge/BNav_EC2/DepthDuration/v2_depth_duration_MTurk/v2_DepthDuration_HTML.html#442,442,1280,720,1280,720,9-3-2022,9-11-51,55,depth_duration_stimuli/001584_2014-06-20_11-07-43_260595134347_rgbf000002-resize_1/001584_2014-06-20_11-07-43_260595134347_rgbf000002-resize_1-target.png,125,3.53,5,3487,126,feet,jsons/VE125_randls_8.json,484788,651671,39,Man
55,933568,DepthScenes,duration_manipulation_targetAtFixation,jsons/VE125_randls_8.json,http://54.235.29.9/FacialAge/BNav_EC2/DepthDuration/v2_depth_duration_MTurk/v2_DepthDuration_HTML.html#442,442,1280,720,1280,720,9-3-2022,9-11-51,56,depth_duration_stimuli/002989_2014-06-15_12-25-03_094959634447_rgbf000150-resize_3/002989_2014-06-15_12-25-03_094959634447_rgbf000150-resize_3-target.png,125,4.1975,12,2774,125,feet,jsons/VE125_randls_8.json,484788,651671,39,Man
56,933568,DepthScenes,duration_manipulation_targetAtFixation,jsons/VE125_randls_8.json,http://54.235.29.9/FacialAge/BNav_EC2/DepthDuration/v2_depth_duration_MTurk/v2_DepthDuration_HTML.html#442,442,1280,720,1280,720,9-3-2022,9-11-51,57,depth_duration_stimuli/000866_2014-06-09_20-45-42_260595134347_rgbf000139-resize_1/000866_2014-06-09_20-45-42_260595134347_rgbf000139-resize_1-target.png,125,3.2155,5,3167,124,feet,jsons/VE125_randls_8.json,484788,651671,39,Man
57,933568,DepthScenes,duration_manipulation_targetAtFixation,jsons/VE125_randls_8.json,http://54.235.29.9/FacialAge/BNav_EC2/DepthDuration/v2_depth_duration_MTurk/v2_DepthDuration_HTML.html#442,442,1280,720,1280,720,9-3-2022,9-11-51,58,depth_duration_stimuli/003292_2014-05-14_21-53-49_094959634447_rgbf000100-resize_2/003292_2014-05-14_21-53-49_094959634447_rgbf000100-resize_2-target.png,125,3.4815,4,2179,125,feet,jsons/VE125_randls_8.json,484788,651671,39,Man
58,933568,DepthScenes,duration_manipulation_targetAtFixation,jsons/VE125_randls_8.json,http://54.235.29.9/FacialAge/BNav_EC2/DepthDuration/v2_depth_duration_MTurk/v2_DepthDuration_HTML.html#442,442,1280,720,1280,720,9-3-2022,9-11-51,59,depth_duration_stimuli/002639_2014-06-24_14-51-37_094959634447_rgbf000074-resize_4/002639_2014-06-24_14-51-37_094959634447_rgbf000074-resize_4-target.png,125,4.0375,7,1826,124,feet,jsons/VE125_randls_8.json,484788,651671,39,Man
59,933568,DepthScenes,duration_manipulation_targetAtFixation,jsons/VE125_randls_8.json,http://54.235.29.9/FacialAge/BNav_EC2/DepthDuration/v2_depth_duration_MTurk/v2_DepthDuration_HTML.html#442,442,1280,720,1280,720,9-3-2022,9-11-51,60,depth_duration_stimuli/001449_2014-06-19_17-01-27_260595134347_rgbf000116-resize_2/001449_2014-06-19_17-01-27_260595134347_rgbf000116-resize_2-target.png,125,3.452,3,1983,125,feet,jsons/VE125_randls_8.json,484788,651671,39,Man
60,933568,DepthScenes,duration_manipulation_targetAtFixation,jsons/VE125_randls_8.json,http://54.235.29.9/FacialAge/BNav_EC2/DepthDuration/v2_depth_duration_MTurk/v2_DepthDuration_HTML.html#442,442,1280,720,1280,720,9-3-2022,9-11-51,61,depth_duration_stimuli/001450_2014-06-19_17-02-03_260595134347_rgbf000203-resize_4/001450_2014-06-19_17-02-03_260595134347_rgbf000203-resize_4-target.png,125,4.0106666666667,0,1684,124,feet,jsons/VE125_randls_8.json,484788,651671,39,Man
61,933568,DepthScenes,duration_manipulation_targetAtFixation,jsons/VE125_randls_8.json,http://54.235.29.9/FacialAge/BNav_EC2/DepthDuration/v2_depth_duration_MTurk/v2_DepthDuration_HTML.html#442,442,1280,720,1280,720,9-3-2022,9-11-51,62,depth_duration_stimuli/000506_2014-06-08_23-21-00_260595134347_rgbf000070-resize_7/000506_2014-06-08_23-21-00_260595134347_rgbf000070-resize_7-target.png,125,4.0585,5,3371,124,feet,jsons/VE125_randls_8.json,484788,651671,39,Man
62,933568,DepthScenes,duration_manipulation_targetAtFixation,jsons/VE125_randls_8.json,http://54.235.29.9/FacialAge/BNav_EC2/DepthDuration/v2_depth_duration_MTurk/v2_DepthDuration_HTML.html#442,442,1280,720,1280,720,9-3-2022,9-11-51,63,depth_duration_stimuli/003079_2014-06-15_15-18-20_094959634447_rgbf000152-resize_8/003079_2014-06-15_15-18-20_094959634447_rgbf000152-resize_8-target.png,125,2.8775,8,1898,125,feet,jsons/VE125_randls_8.json,484788,651671,39,Man
63,933568,DepthScenes,duration_manipulation_targetAtFixation,jsons/VE125_randls_8.json,http://54.235.29.9/FacialAge/BNav_EC2/DepthDuration/v2_depth_duration_MTurk/v2_DepthDuration_HTML.html#442,442,1280,720,1280,720,9-3-2022,9-11-51,64,depth_duration_stimuli/001110_2014-06-15_17-25-28_260595134347_rgbf000150-resize_1/001110_2014-06-15_17-25-28_260595134347_rgbf000150-resize_1-target.png,125,1.7115,3,1858,125,feet,jsons/VE125_randls_8.json,484788,651671,39,Man
64,933568,DepthScenes,duration_manipulation_targetAtFixation,jsons/VE125_randls_8.json,http://54.235.29.9/FacialAge/BNav_EC2/DepthDuration/v2_depth_duration_MTurk/v2_DepthDuration_HTML.html#442,442,1280,720,1280,720,9-3-2022,9-11-51,65,depth_duration_stimuli/000927_2014-06-09_16-32-30_260595134347_rgbf000123-resize_3/000927_2014-06-09_16-32-30_260595134347_rgbf000123-resize_3-target.png,125,2.6785,4,1841,124,feet,jsons/VE125_randls_8.json,484788,651671,39,Man
65,933568,DepthScenes,duration_manipulation_targetAtFixation,jsons/VE125_randls_8.json,http://54.235.29.9/FacialAge/BNav_EC2/DepthDuration/v2_depth_duration_MTurk/v2_DepthDuration_HTML.html#442,442,1280,720,1280,720,9-3-2022,9-11-51,66,depth_duration_stimuli/001222_2014-06-17_16-24-06_260595134347_rgbf000073-resize_0/001222_2014-06-17_16-24-06_260595134347_rgbf000073-resize-original.jpg,125,1.4385,0,1874,124,feet,jsons/VE125_randls_8.json,484788,651671,39,Man
66,933568,DepthScenes,duration_manipulation_targetAtFixation,jsons/VE125_randls_8.json,http://54.235.29.9/FacialAge/BNav_EC2/DepthDuration/v2_depth_duration_MTurk/v2_DepthDuration_HTML.html#442,442,1280,720,1280,720,9-3-2022,9-11-51,67,depth_duration_stimuli/002784_2014-06-22_19-26-30_094959634447_rgbf000083-resize_3/002784_2014-06-22_19-26-30_094959634447_rgbf000083-resize_3-target.png,125,1.8046666666667,2,1960,126,feet,jsons/VE125_randls_8.json,484788,651671,39,Man
67,933568,DepthScenes,duration_manipulation_targetAtFixation,jsons/VE125_randls_8.json,http://54.235.29.9/FacialAge/BNav_EC2/DepthDuration/v2_depth_duration_MTurk/v2_DepthDuration_HTML.html#442,442,1280,720,1280,720,9-3-2022,9-11-51,68,depth_duration_stimuli/001100_2014-06-15_17-46-26_260595134347_rgbf000225-resize_2/001100_2014-06-15_17-46-26_260595134347_rgbf000225-resize_2-target.png,125,2.24,2,1570,125,feet,jsons/VE125_randls_8.json,484788,651671,39,Man
68,933568,DepthScenes,duration_manipulation_targetAtFixation,jsons/VE125_randls_8.json,http://54.235.29.9/FacialAge/BNav_EC2/DepthDuration/v2_depth_duration_MTurk/v2_DepthDuration_HTML.html#442,442,1280,720,1280,720,9-3-2022,9-11-51,69,depth_duration_stimuli/001167_2014-06-17_15-38-07_260595134347_rgbf000108-resize_0/001167_2014-06-17_15-38-07_260595134347_rgbf000108-resize_0-target.png,125,1.8505,3,1865,124,feet,jsons/VE125_randls_8.json,484788,651671,39,Man
69,933568,DepthScenes,duration_manipulation_targetAtFixation,jsons/VE125_randls_8.json,http://54.235.29.9/FacialAge/BNav_EC2/DepthDuration/v2_depth_duration_MTurk/v2_DepthDuration_HTML.html#442,442,1280,720,1280,720,9-3-2022,9-11-51,70,depth_duration_stimuli/003587_2014-05-23_16-48-02_094959634447_rgbf002384-resize_2/003587_2014-05-23_16-48-02_094959634447_rgbf002384-resize_2-target.png,125,1.357,2,2320,125,feet,jsons/VE125_randls_8.json,484788,651671,39,Man
70,933568,DepthScenes,duration_manipulation_targetAtFixation,jsons/VE125_randls_8.json,http://54.235.29.9/FacialAge/BNav_EC2/DepthDuration/v2_depth_duration_MTurk/v2_DepthDuration_HTML.html#442,442,1280,720,1280,720,9-3-2022,9-11-51,71,depth_duration_stimuli/000906_2014-06-08_13-35-43_260595134347_rgbf000155-resize_1/000906_2014-06-08_13-35-43_260595134347_rgbf000155-resize_1-target.png,125,2.8489999999999998,8,2274,125,feet,jsons/VE125_randls_8.json,484788,651671,39,Man
71,933568,DepthScenes,duration_manipulation_targetAtFixation,jsons/VE125_randls_8.json,http://54.235.29.9/FacialAge/BNav_EC2/DepthDuration/v2_depth_duration_MTurk/v2_DepthDuration_HTML.html#442,442,1280,720,1280,720,9-3-2022,9-11-51,72,depth_duration_stimuli/002805_2014-06-22_19-54-03_094959634447_rgbf000079-resize_1/002805_2014-06-22_19-54-03_094959634447_rgbf000079-resize_1-target.png,125,3.1439999999999997,6,2453,125,feet,jsons/VE125_randls_8.json,484788,651671,39,Man
72,933568,DepthScenes,duration_manipulation_targetAtFixation,jsons/VE125_randls_8.json,http://54.235.29.9/FacialAge/BNav_EC2/DepthDuration/v2_depth_duration_MTurk/v2_DepthDuration_HTML.html#442,442,1280,720,1280,720,9-3-2022,9-11-51,73,depth_duration_stimuli/001199_2014-06-17_16-03-48_260595134347_rgbf000077-resize_0/001199_2014-06-17_16-03-48_260595134347_rgbf000077-resize_0-target.png,125,3.4375,10,2101,125,feet,jsons/VE125_randls_8.json,484788,651671,39,Man
73,933568,DepthScenes,duration_manipulation_targetAtFixation,jsons/VE125_randls_8.json,http://54.235.29.9/FacialAge/BNav_EC2/DepthDuration/v2_depth_duration_MTurk/v2_DepthDuration_HTML.html#442,442,1280,720,1280,720,9-3-2022,9-11-51,74,depth_duration_stimuli/000502_2014-06-08_23-02-32_260595134347_rgbf000063-resize_4/000502_2014-06-08_23-02-32_260595134347_rgbf000063-resize_4-target.png,125,2.431,3,2132,124,feet,jsons/VE125_randls_8.json,484788,651671,39,Man
74,933568,DepthScenes,duration_manipulation_targetAtFixation,jsons/VE125_randls_8.json,http://54.235.29.9/FacialAge/BNav_EC2/DepthDuration/v2_depth_duration_MTurk/v2_DepthDuration_HTML.html#442,442,1280,720,1280,720,9-3-2022,9-11-51,75,depth_duration_stimuli/001056_2014-06-08_18-46-44_260595134347_rgbf000068-resize_0/001056_2014-06-08_18-46-44_260595134347_rgbf000068-resize_0-target.png,125,2.6625,0,1700,124,feet,jsons/VE125_randls_8.json,484788,651671,39,Man
75,933568,DepthScenes,duration_manipulation_targetAtFixation,jsons/VE125_randls_8.json,http://54.235.29.9/FacialAge/BNav_EC2/DepthDuration/v2_depth_duration_MTurk/v2_DepthDuration_HTML.html#442,442,1280,720,1280,720,9-3-2022,9-11-51,76,depth_duration_stimuli/002199_2014-06-28_18-33-56_260595134347_rgbf000074-resize_0/002199_2014-06-28_18-33-56_260595134347_rgbf000074-resize_0-target.png,125,1.996,1,1608,124,feet,jsons/VE125_randls_8.json,484788,651671,39,Man
76,933568,DepthScenes,duration_manipulation_targetAtFixation,jsons/VE125_randls_8.json,http://54.235.29.9/FacialAge/BNav_EC2/DepthDuration/v2_depth_duration_MTurk/v2_DepthDuration_HTML.html#442,442,1280,720,1280,720,9-3-2022,9-11-51,77,depth_duration_stimuli/001158_2014-06-17_15-32-16_260595134347_rgbf000138-resize_2/001158_2014-06-17_15-32-16_260595134347_rgbf000138-resize_2-target.png,125,4.5315,8,4797,124,feet,jsons/VE125_randls_8.json,484788,651671,39,Man
77,933568,DepthScenes,duration_manipulation_targetAtFixation,jsons/VE125_randls_8.json,http://54.235.29.9/FacialAge/BNav_EC2/DepthDuration/v2_depth_duration_MTurk/v2_DepthDuration_HTML.html#442,442,1280,720,1280,720,9-3-2022,9-11-51,78,depth_duration_stimuli/000556_2014-06-09_22-42-56_260595134347_rgbf000214-resize_1/000556_2014-06-09_22-42-56_260595134347_rgbf000214-resize_1-target.png,125,4.8415,0,2602,125,feet,jsons/VE125_randls_8.json,484788,651671,39,Man
78,933568,DepthScenes,duration_manipulation_targetAtFixation,jsons/VE125_randls_8.json,http://54.235.29.9/FacialAge/BNav_EC2/DepthDuration/v2_depth_duration_MTurk/v2_DepthDuration_HTML.html#442,442,1280,720,1280,720,9-3-2022,9-11-51,79,depth_duration_stimuli/002748_2014-06-22_19-07-22_094959634447_rgbf000078-resize_1/002748_2014-06-22_19-07-22_094959634447_rgbf000078-resize_1-target.png,125,4.6705,12,2791,125,feet,jsons/VE125_randls_8.json,484788,651671,39,Man
79,933568,DepthScenes,duration_manipulation_targetAtFixation,jsons/VE125_randls_8.json,http://54.235.29.9/FacialAge/BNav_EC2/DepthDuration/v2_depth_duration_MTurk/v2_DepthDuration_HTML.html#442,442,1280,720,1280,720,9-3-2022,9-11-51,80,depth_duration_stimuli/002995_2014-06-15_12-31-26_094959634447_rgbf000150-resize_1/002995_2014-06-15_12-31-26_094959634447_rgbf000150-resize_1-target.png,125,3.8360000000000003,10,3197,127,feet,jsons/VE125_randls_8.json,484788,651671,39,Man
80,933568,DepthScenes,duration_manipulation_targetAtFixation,jsons/VE125_randls_8.json,http://54.235.29.9/FacialAge/BNav_EC2/DepthDuration/v2_depth_duration_MTurk/v2_DepthDuration_HTML.html#442,442,1280,720,1280,720,9-3-2022,9-11-51,81,depth_duration_stimuli/000436_2014-06-09_22-25-11_260595134347_rgbf000137-resize_1/000436_2014-06-09_22-25-11_260595134347_rgbf000137-resize_1-target.png,125,4.0705,0,2706,125,feet,jsons/VE125_randls_8.json,484788,651671,39,Man
81,933568,DepthScenes,duration_manipulation_targetAtFixation,jsons/VE125_randls_8.json,http://54.235.29.9/FacialAge/BNav_EC2/DepthDuration/v2_depth_duration_MTurk/v2_DepthDuration_HTML.html#442,442,1280,720,1280,720,9-3-2022,9-11-51,82,depth_duration_stimuli/002444_2014-06-28_20-32-08_260595134347_rgbf000027-resize_0/002444_2014-06-28_20-32-08_260595134347_rgbf000027-resize_0-target.png,125,4.388999999999999,15,2428,124,feet,jsons/VE125_randls_8.json,484788,651671,39,Man
82,933568,DepthScenes,duration_manipulation_targetAtFixation,jsons/VE125_randls_8.json,http://54.235.29.9/FacialAge/BNav_EC2/DepthDuration/v2_depth_duration_MTurk/v2_DepthDuration_HTML.html#442,442,1280,720,1280,720,9-3-2022,9-11-51,83,depth_duration_stimuli/000758_2014-06-08_22-05-08_260595134347_rgbf000085-resize_0/000758_2014-06-08_22-05-08_260595134347_rgbf000085-resize_0-target.png,125,3.3810000000000002,8,1899,126,feet,jsons/VE125_randls_8.json,484788,651671,39,Man
83,933568,DepthScenes,duration_manipulation_targetAtFixation,jsons/VE125_randls_8.json,http://54.235.29.9/FacialAge/BNav_EC2/DepthDuration/v2_depth_duration_MTurk/v2_DepthDuration_HTML.html#442,442,1280,720,1280,720,9-3-2022,9-11-51,84,depth_duration_stimuli/000854_2014-06-09_19-43-13_260595134347_rgbf000066-resize_0/000854_2014-06-09_19-43-13_260595134347_rgbf000066-resize_0-target.png,125,3.068,3,1984,125,feet,jsons/VE125_randls_8.json,484788,651671,39,Man
84,933568,DepthScenes,duration_manipulation_targetAtFixation,jsons/VE125_randls_8.json,http://54.235.29.9/FacialAge/BNav_EC2/DepthDuration/v2_depth_duration_MTurk/v2_DepthDuration_HTML.html#442,442,1280,720,1280,720,9-3-2022,9-11-51,85,depth_duration_stimuli/000009_2014-05-26_14-32-05_260595134347_rgbf000034-resize_3/000009_2014-05-26_14-32-05_260595134347_rgbf000034-resize_3-target.png,125,3.8715,0,2109,126,feet,jsons/VE125_randls_8.json,484788,651671,39,Man
85,933568,DepthScenes,duration_manipulation_targetAtFixation,jsons/VE125_randls_8.json,http://54.235.29.9/FacialAge/BNav_EC2/DepthDuration/v2_depth_duration_MTurk/v2_DepthDuration_HTML.html#442,442,1280,720,1280,720,9-3-2022,9-11-51,86,depth_duration_stimuli/001828_2014-06-26_21-40-03_260595134347_rgbf000024-resize_0/001828_2014-06-26_21-40-03_260595134347_rgbf000024-resize_0-target.png,125,4.8260000000000005,5,2045,126,feet,jsons/VE125_randls_8.json,484788,651671,39,Man
86,933568,DepthScenes,duration_manipulation_targetAtFixation,jsons/VE125_randls_8.json,http://54.235.29.9/FacialAge/BNav_EC2/DepthDuration/v2_depth_duration_MTurk/v2_DepthDuration_HTML.html#442,442,1280,720,1280,720,9-3-2022,9-11-51,87,depth_duration_stimuli/001029_2014-06-08_13-17-57_260595134347_rgbf000065-resize_1/001029_2014-06-08_13-17-57_260595134347_rgbf000065-resize_1-target.png,125,3.0835,4,1835,125,feet,jsons/VE125_randls_8.json,484788,651671,39,Man
87,933568,DepthScenes,duration_manipulation_targetAtFixation,jsons/VE125_randls_8.json,http://54.235.29.9/FacialAge/BNav_EC2/DepthDuration/v2_depth_duration_MTurk/v2_DepthDuration_HTML.html#442,442,1280,720,1280,720,9-3-2022,9-11-51,88,depth_duration_stimuli/000677_2014-06-08_23-10-32_260595134347_rgbf000158-resize_6/000677_2014-06-08_23-10-32_260595134347_rgbf000158-resize_6-target.png,125,3.556,4,1723,125,feet,jsons/VE125_randls_8.json,484788,651671,39,Man
88,933568,DepthScenes,duration_manipulation_targetAtFixation,jsons/VE125_randls_8.json,http://54.235.29.9/FacialAge/BNav_EC2/DepthDuration/v2_depth_duration_MTurk/v2_DepthDuration_HTML.html#442,442,1280,720,1280,720,9-3-2022,9-11-51,89,depth_duration_stimuli/003534_2014-05-22_15-06-10_094959634447_rgbf000102-resize_4/003534_2014-05-22_15-06-10_094959634447_rgbf000102-resize_4-target.png,125,1.426,2,1670,125,feet,jsons/VE125_randls_8.json,484788,651671,39,Man
89,933568,DepthScenes,duration_manipulation_targetAtFixation,jsons/VE125_randls_8.json,http://54.235.29.9/FacialAge/BNav_EC2/DepthDuration/v2_depth_duration_MTurk/v2_DepthDuration_HTML.html#442,442,1280,720,1280,720,9-3-2022,9-11-51,90,depth_duration_stimuli/002637_2014-06-24_14-51-13_094959634447_rgbf000066-resize_4/002637_2014-06-24_14-51-13_094959634447_rgbf000066-resize_4-target.png,125,1.9955,4,3348,126,feet,jsons/VE125_randls_8.json,484788,651671,39,Man
90,933568,DepthScenes,duration_manipulation_targetAtFixation,jsons/VE125_randls_8.json,http://54.235.29.9/FacialAge/BNav_EC2/DepthDuration/v2_depth_duration_MTurk/v2_DepthDuration_HTML.html#442,442,1280,720,1280,720,9-3-2022,9-11-51,91,depth_duration_stimuli/002118_2014-06-25_20-32-08_260595134347_rgbf000078-resize_1/002118_2014-06-25_20-32-08_260595134347_rgbf000078-resize_1-target.png,125,2.6460000000000004,3,2446,125,feet,jsons/VE125_randls_8.json,484788,651671,39,Man
91,933568,DepthScenes,duration_manipulation_targetAtFixation,jsons/VE125_randls_8.json,http://54.235.29.9/FacialAge/BNav_EC2/DepthDuration/v2_depth_duration_MTurk/v2_DepthDuration_HTML.html#442,442,1280,720,1280,720,9-3-2022,9-11-51,92,depth_duration_stimuli/001516_2014-06-20_16-25-09_260595134347_rgbf000076-resize_2/001516_2014-06-20_16-25-09_260595134347_rgbf000076-resize_2-target.png,125,1.7445,4,1913,125,feet,jsons/VE125_randls_8.json,484788,651671,39,Man
92,933568,DepthScenes,duration_manipulation_targetAtFixation,jsons/VE125_randls_8.json,http://54.235.29.9/FacialAge/BNav_EC2/DepthDuration/v2_depth_duration_MTurk/v2_DepthDuration_HTML.html#442,442,1280,720,1280,720,9-3-2022,9-11-51,93,depth_duration_stimuli/000917_2014-06-09_22-45-29_260595134347_rgbf000149-resize_3/000917_2014-06-09_22-45-29_260595134347_rgbf000149-resize_3-target.png,125,4.1865,10,2593,124,feet,jsons/VE125_randls_8.json,484788,651671,39,Man
93,933568,DepthScenes,duration_manipulation_targetAtFixation,jsons/VE125_randls_8.json,http://54.235.29.9/FacialAge/BNav_EC2/DepthDuration/v2_depth_duration_MTurk/v2_DepthDuration_HTML.html#442,442,1280,720,1280,720,9-3-2022,9-11-51,94,depth_duration_stimuli/002323_2014-06-28_20-01-54_260595134347_rgbf000051-resize_4/002323_2014-06-28_20-01-54_260595134347_rgbf000051-resize_4-target.png,125,3.7310000000000003,8,2326,123,feet,jsons/VE125_randls_8.json,484788,651671,39,Man
94,933568,DepthScenes,duration_manipulation_targetAtFixation,jsons/VE125_randls_8.json,http://54.235.29.9/FacialAge/BNav_EC2/DepthDuration/v2_depth_duration_MTurk/v2_DepthDuration_HTML.html#442,442,1280,720,1280,720,9-3-2022,9-11-51,95,depth_duration_stimuli/000642_2014-06-08_16-59-25_260595134347_rgbf000098-resize_2/000642_2014-06-08_16-59-25_260595134347_rgbf000098-resize_2-target.png,125,2.8815,0,1803,125,feet,jsons/VE125_randls_8.json,484788,651671,39,Man
95,933568,DepthScenes,duration_manipulation_targetAtFixation,jsons/VE125_randls_8.json,http://54.235.29.9/FacialAge/BNav_EC2/DepthDuration/v2_depth_duration_MTurk/v2_DepthDuration_HTML.html#442,442,1280,720,1280,720,9-3-2022,9-11-51,96,depth_duration_stimuli/002425_2014-06-28_20-27-29_260595134347_rgbf000031-resize_8/002425_2014-06-28_20-27-29_260595134347_rgbf000031-resize_8-target.png,125,3.8960000000000004,7,2259,140,feet,jsons/VE125_randls_8.json,484788,651671,39,Man
96,933568,DepthScenes,duration_manipulation_targetAtFixation,jsons/VE125_randls_8.json,http://54.235.29.9/FacialAge/BNav_EC2/DepthDuration/v2_depth_duration_MTurk/v2_DepthDuration_HTML.html#442,442,1280,720,1280,720,9-3-2022,9-11-51,97,depth_duration_stimuli/001150_2014-06-17_15-27-34_260595134347_rgbf000108-resize_2/001150_2014-06-17_15-27-34_260595134347_rgbf000108-resize_2-target.png,125,4.0325,6,5321,123,feet,jsons/VE125_randls_8.json,484788,651671,39,Man
97,933568,DepthScenes,duration_manipulation_targetAtFixation,jsons/VE125_randls_8.json,http://54.235.29.9/FacialAge/BNav_EC2/DepthDuration/v2_depth_duration_MTurk/v2_DepthDuration_HTML.html#442,442,1280,720,1280,720,9-3-2022,9-11-51,98,depth_duration_stimuli/000665_2014-06-09_20-42-35_260595134347_rgbf000110-resize_1/000665_2014-06-09_20-42-35_260595134347_rgbf000110-resize_1-target.png,125,3.057,3,2036,124,feet,jsons/VE125_randls_8.json,484788,651671,39,Man
98,933568,DepthScenes,duration_manipulation_targetAtFixation,jsons/VE125_randls_8.json,http://54.235.29.9/FacialAge/BNav_EC2/DepthDuration/v2_depth_duration_MTurk/v2_DepthDuration_HTML.html#442,442,1280,720,1280,720,9-3-2022,9-11-51,99,depth_duration_stimuli/001540_2014-06-20_17-01-05_260595134347_rgbf000086-resize_2/001540_2014-06-20_17-01-05_260595134347_rgbf000086-resize-original.jpg,125,1.459,0,1780,125,feet,jsons/VE125_randls_8.json,484788,651671,39,Man
99,933568,DepthScenes,duration_manipulation_targetAtFixation,jsons/VE125_randls_8.json,http://54.235.29.9/FacialAge/BNav_EC2/DepthDuration/v2_depth_duration_MTurk/v2_DepthDuration_HTML.html#442,442,1280,720,1280,720,9-3-2022,9-11-51,100,depth_duration_stimuli/001164_2014-06-17_15-35-46_260595134347_rgbf000085-resize_3/001164_2014-06-17_15-35-46_260595134347_rgbf000085-resize_3-target.png,125,2.354,4,1812,125,feet,jsons/VE125_randls_8.json,484788,651671,39,Man
100,933568,DepthScenes,duration_manipulation_targetAtFixation,jsons/VE125_randls_8.json,http://54.235.29.9/FacialAge/BNav_EC2/DepthDuration/v2_depth_duration_MTurk/v2_DepthDuration_HTML.html#442,442,1280,720,1280,720,9-3-2022,9-11-51,101,depth_duration_stimuli/001136_2014-06-17_15-19-41_260595134347_rgbf000076-resize_3/001136_2014-06-17_15-19-41_260595134347_rgbf000076-resize_3-target.png,125,1.8655,2,1670,125,feet,jsons/VE125_randls_8.json,484788,651671,39,Man
101,933568,DepthScenes,duration_manipulation_targetAtFixation,jsons/VE125_randls_8.json,http://54.235.29.9/FacialAge/BNav_EC2/DepthDuration/v2_depth_duration_MTurk/v2_DepthDuration_HTML.html#442,442,1280,720,1280,720,9-3-2022,9-11-51,102,depth_duration_stimuli/002039_2014-06-24_20-22-38_260595134347_rgbf000084-resize_1/002039_2014-06-24_20-22-38_260595134347_rgbf000084-resize_1-target.png,125,4.408,4,1812,125,feet,jsons/VE125_randls_8.json,484788,651671,39,Man
102,933568,DepthScenes,duration_manipulation_targetAtFixation,jsons/VE125_randls_8.json,http://54.235.29.9/FacialAge/BNav_EC2/DepthDuration/v2_depth_duration_MTurk/v2_DepthDuration_HTML.html#442,442,1280,720,1280,720,9-3-2022,9-11-51,103,depth_duration_stimuli/002103_2014-06-25_20-00-40_260595134347_rgbf000049-resize_0/002103_2014-06-25_20-00-40_260595134347_rgbf000049-resize_0-target.png,125,4.105,2,1818,125,feet,jsons/VE125_randls_8.json,484788,651671,39,Man
103,933568,DepthScenes,duration_manipulation_targetAtFixation,jsons/VE125_randls_8.json,http://54.235.29.9/FacialAge/BNav_EC2/DepthDuration/v2_depth_duration_MTurk/v2_DepthDuration_HTML.html#442,442,1280,720,1280,720,9-3-2022,9-11-51,104,depth_duration_stimuli/001092_2014-06-15_17-34-58_260595134347_rgbf000171-resize_3/001092_2014-06-15_17-34-58_260595134347_rgbf000171-resize_3-target.png,125,2.6935,3,1960,124,feet,jsons/VE125_randls_8.json,484788,651671,39,Man
104,933568,DepthScenes,duration_manipulation_targetAtFixation,jsons/VE125_randls_8.json,http://54.235.29.9/FacialAge/BNav_EC2/DepthDuration/v2_depth_duration_MTurk/v2_DepthDuration_HTML.html#442,442,1280,720,1280,720,9-3-2022,9-11-51,105,depth_duration_stimuli/002545_2014-06-24_13-38-53_094959634447_rgbf000080-resize_4/002545_2014-06-24_13-38-53_094959634447_rgbf000080-resize_4-target.png,125,1.9205,5,1741,124,feet,jsons/VE125_randls_8.json,484788,651671,39,Man
105,933568,DepthScenes,duration_manipulation_targetAtFixation,jsons/VE125_randls_8.json,http://54.235.29.9/FacialAge/BNav_EC2/DepthDuration/v2_depth_duration_MTurk/v2_DepthDuration_HTML.html#442,442,1280,720,1280,720,9-3-2022,9-11-51,106,depth_duration_stimuli/000486_2014-06-09_20-47-20_260595134347_rgbf000143-resize_2/000486_2014-06-09_20-47-20_260595134347_rgbf000143-resize_2-target.png,125,4.8325,7,1809,125,feet,jsons/VE125_randls_8.json,484788,651671,39,Man
106,933568,DepthScenes,duration_manipulation_targetAtFixation,jsons/VE125_randls_8.json,http://54.235.29.9/FacialAge/BNav_EC2/DepthDuration/v2_depth_duration_MTurk/v2_DepthDuration_HTML.html#442,442,1280,720,1280,720,9-3-2022,9-11-51,107,depth_duration_stimuli/003083_2014-06-15_15-21-03_094959634447_rgbf000063-resize_1/003083_2014-06-15_15-21-03_094959634447_rgbf000063-resize_1-target.png,125,4.1405,0,1944,124,feet,jsons/VE125_randls_8.json,484788,651671,39,Man
107,933568,DepthScenes,duration_manipulation_targetAtFixation,jsons/VE125_randls_8.json,http://54.235.29.9/FacialAge/BNav_EC2/DepthDuration/v2_depth_duration_MTurk/v2_DepthDuration_HTML.html#442,442,1280,720,1280,720,9-3-2022,9-11-51,108,depth_duration_stimuli/000739_2014-06-08_18-45-58_260595134347_rgbf000068-resize_1/000739_2014-06-08_18-45-58_260595134347_rgbf000068-resize_1-target.png,125,3.534,4,3282,125,feet,jsons/VE125_randls_8.json,484788,651671,39,Man
108,933568,DepthScenes,duration_manipulation_targetAtFixation,jsons/VE125_randls_8.json,http://54.235.29.9/FacialAge/BNav_EC2/DepthDuration/v2_depth_duration_MTurk/v2_DepthDuration_HTML.html#442,442,1280,720,1280,720,9-3-2022,9-11-51,109,depth_duration_stimuli/000734_2014-06-08_17-39-11_260595134347_rgbf000128-resize_2/000734_2014-06-08_17-39-11_260595134347_rgbf000128-resize_2-target.png,125,4.098,6,1879,124,feet,jsons/VE125_randls_8.json,484788,651671,39,Man
109,933568,DepthScenes,duration_manipulation_targetAtFixation,jsons/VE125_randls_8.json,http://54.235.29.9/FacialAge/BNav_EC2/DepthDuration/v2_depth_duration_MTurk/v2_DepthDuration_HTML.html#442,442,1280,720,1280,720,9-3-2022,9-11-51,110,depth_duration_stimuli/002905_2014-06-03_18-04-43_094959634447_rgbf000151-resize_2/002905_2014-06-03_18-04-43_094959634447_rgbf000151-resize_2-target.png,125,2.0295,4,1820,125,feet,jsons/VE125_randls_8.json,484788,651671,39,Man
110,933568,DepthScenes,duration_manipulation_targetAtFixation,jsons/VE125_randls_8.json,http://54.235.29.9/FacialAge/BNav_EC2/DepthDuration/v2_depth_duration_MTurk/v2_DepthDuration_HTML.html#442,442,1280,720,1280,720,9-3-2022,9-11-51,111,depth_duration_stimuli/003423_2014-05-21_10-23-26_094959634447_rgbf002665-resize_2/003423_2014-05-21_10-23-26_094959634447_rgbf002665-resize_2-target.png,125,3.2575,10,1784,124,feet,jsons/VE125_randls_8.json,484788,651671,39,Man
111,933568,DepthScenes,duration_manipulation_targetAtFixation,jsons/VE125_randls_8.json,http://54.235.29.9/FacialAge/BNav_EC2/DepthDuration/v2_depth_duration_MTurk/v2_DepthDuration_HTML.html#442,442,1280,720,1280,720,9-3-2022,9-11-51,112,depth_duration_stimuli/002279_2014-06-28_18-55-32_260595134347_rgbf000040-resize_5/002279_2014-06-28_18-55-32_260595134347_rgbf000040-resize_5-target.png,125,1.5043333333333,3,1656,125,feet,jsons/VE125_randls_8.json,484788,651671,39,Man
112,933568,DepthScenes,duration_manipulation_targetAtFixation,jsons/VE125_randls_8.json,http://54.235.29.9/FacialAge/BNav_EC2/DepthDuration/v2_depth_duration_MTurk/v2_DepthDuration_HTML.html#442,442,1280,720,1280,720,9-3-2022,9-11-51,113,depth_duration_stimuli/000635_2014-06-08_16-38-42_260595134347_rgbf000106-resize_1/000635_2014-06-08_16-38-42_260595134347_rgbf000106-resize_1-target.png,125,2.074,5,1763,125,feet,jsons/VE125_randls_8.json,484788,651671,39,Man
113,933568,DepthScenes,duration_manipulation_targetAtFixation,jsons/VE125_randls_8.json,http://54.235.29.9/FacialAge/BNav_EC2/DepthDuration/v2_depth_duration_MTurk/v2_DepthDuration_HTML.html#442,442,1280,720,1280,720,9-3-2022,9-11-51,114,depth_duration_stimuli/002153_2014-06-25_21-27-18_260595134347_rgbf000038-resize_5/002153_2014-06-25_21-27-18_260595134347_rgbf000038-resize_5-target.png,125,2.505,3,1585,125,feet,jsons/VE125_randls_8.json,484788,651671,39,Man
114,933568,DepthScenes,duration_manipulation_targetAtFixation,jsons/VE125_randls_8.json,http://54.235.29.9/FacialAge/BNav_EC2/DepthDuration/v2_depth_duration_MTurk/v2_DepthDuration_HTML.html#442,442,1280,720,1280,720,9-3-2022,9-11-51,115,depth_duration_stimuli/002660_2014-06-13_15-44-18_094959634447_rgbf001878-resize_2/002660_2014-06-13_15-44-18_094959634447_rgbf001878-resize_2-target.png,125,3.576,7,4786,125,feet,jsons/VE125_randls_8.json,484788,651671,39,Man
115,933568,DepthScenes,duration_manipulation_targetAtFixation,jsons/VE125_randls_8.json,http://54.235.29.9/FacialAge/BNav_EC2/DepthDuration/v2_depth_duration_MTurk/v2_DepthDuration_HTML.html#442,442,1280,720,1280,720,9-3-2022,9-11-51,116,depth_duration_stimuli/001170_2014-06-17_15-43-44_260595134347_rgbf000096-resize_6/001170_2014-06-17_15-43-44_260595134347_rgbf000096-resize-original.jpg,125,1.1909999999999998,0,1536,124,feet,jsons/VE125_randls_8.json,484788,651671,39,Man
116,933568,DepthScenes,duration_manipulation_targetAtFixation,jsons/VE125_randls_8.json,http://54.235.29.9/FacialAge/BNav_EC2/DepthDuration/v2_depth_duration_MTurk/v2_DepthDuration_HTML.html#442,442,1280,720,1280,720,9-3-2022,9-11-51,117,depth_duration_stimuli/000522_2014-06-08_13-35-06_260595134347_rgbf000244-resize_1/000522_2014-06-08_13-35-06_260595134347_rgbf000244-resize_1-target.png,125,2.3715,3,2555,125,feet,jsons/VE125_randls_8.json,484788,651671,39,Man
117,933568,DepthScenes,duration_manipulation_targetAtFixation,jsons/VE125_randls_8.json,http://54.235.29.9/FacialAge/BNav_EC2/DepthDuration/v2_depth_duration_MTurk/v2_DepthDuration_HTML.html#442,442,1280,720,1280,720,9-3-2022,9-11-51,118,depth_duration_stimuli/002949_2014-06-26_15-57-42_094959634447_rgbf000079-resize_1/002949_2014-06-26_15-57-42_094959634447_rgbf000079-resize_1-target.png,125,1.8915,3,2067,125,feet,jsons/VE125_randls_8.json,484788,651671,39,Man
118,933568,DepthScenes,duration_manipulation_targetAtFixation,jsons/VE125_randls_8.json,http://54.235.29.9/FacialAge/BNav_EC2/DepthDuration/v2_depth_duration_MTurk/v2_DepthDuration_HTML.html#442,442,1280,720,1280,720,9-3-2022,9-11-51,119,depth_duration_stimuli/002272_2014-06-28_18-53-56_260595134347_rgbf000067-resize_2/002272_2014-06-28_18-53-56_260595134347_rgbf000067-resize_2-target.png,125,1.138,0,1787,124,feet,jsons/VE125_randls_8.json,484788,651671,39,Man
119,933568,DepthScenes,duration_manipulation_targetAtFixation,jsons/VE125_randls_8.json,http://54.235.29.9/FacialAge/BNav_EC2/DepthDuration/v2_depth_duration_MTurk/v2_DepthDuration_HTML.html#442,442,1280,720,1280,720,9-3-2022,9-11-51,120,depth_duration_stimuli/001571_2014-06-20_17-21-32_260595134347_rgbf000089-resize_1/001571_2014-06-20_17-21-32_260595134347_rgbf000089-resize_1-target.png,125,1.86,3,2045,125,feet,jsons/VE125_randls_8.json,484788,651671,39,Man
120,933568,DepthScenes,duration_manipulation_targetAtFixation,jsons/VE125_randls_8.json,http://54.235.29.9/FacialAge/BNav_EC2/DepthDuration/v2_depth_duration_MTurk/v2_DepthDuration_HTML.html#442,442,1280,720,1280,720,9-3-2022,9-11-51,121,depth_duration_stimuli/002213_2014-06-28_18-37-58_260595134347_rgbf000055-resize_1/002213_2014-06-28_18-37-58_260595134347_rgbf000055-resize_1-target.png,125,3.62,8,3243,124,feet,jsons/VE125_randls_8.json,484788,651671,39,Man
121,933568,DepthScenes,duration_manipulation_targetAtFixation,jsons/VE125_randls_8.json,http://54.235.29.9/FacialAge/BNav_EC2/DepthDuration/v2_depth_duration_MTurk/v2_DepthDuration_HTML.html#442,442,1280,720,1280,720,9-3-2022,9-11-51,122,depth_duration_stimuli/000691_2014-06-08_13-08-50_260595134347_rgbf000132-resize_3/000691_2014-06-08_13-08-50_260595134347_rgbf000132-resize_3-target.png,125,4.1530000000000005,0,1695,125,feet,jsons/VE125_randls_8.json,484788,651671,39,Man
122,933568,DepthScenes,duration_manipulation_targetAtFixation,jsons/VE125_randls_8.json,http://54.235.29.9/FacialAge/BNav_EC2/DepthDuration/v2_depth_duration_MTurk/v2_DepthDuration_HTML.html#442,442,1280,720,1280,720,9-3-2022,9-11-51,123,depth_duration_stimuli/002570_2014-06-24_13-59-54_094959634447_rgbf000059-resize_0/002570_2014-06-24_13-59-54_094959634447_rgbf000059-resize_0-target.png,125,4.037,7,3306,125,feet,jsons/VE125_randls_8.json,484788,651671,39,Man
123,933568,DepthScenes,duration_manipulation_targetAtFixation,jsons/VE125_randls_8.json,http://54.235.29.9/FacialAge/BNav_EC2/DepthDuration/v2_depth_duration_MTurk/v2_DepthDuration_HTML.html#442,442,1280,720,1280,720,9-3-2022,9-11-51,124,depth_duration_stimuli/002467_2014-06-28_20-38-07_260595134347_rgbf000026-resize_2/002467_2014-06-28_20-38-07_260595134347_rgbf000026-resize_2-target.png,125,4.742,10,1905,125,feet,jsons/VE125_randls_8.json,484788,651671,39,Man
124,933568,DepthScenes,duration_manipulation_targetAtFixation,jsons/VE125_randls_8.json,http://54.235.29.9/FacialAge/BNav_EC2/DepthDuration/v2_depth_duration_MTurk/v2_DepthDuration_HTML.html#442,442,1280,720,1280,720,9-3-2022,9-11-51,125,depth_duration_stimuli/002043_2014-06-24_20-29-38_260595134347_rgbf000039-resize_4/002043_2014-06-24_20-29-38_260595134347_rgbf000039-resize_4-target.png,125,2.8435,6,4489,124,feet,jsons/VE125_randls_8.json,484788,651671,39,Man
125,933568,DepthScenes,duration_manipulation_targetAtFixation,jsons/VE125_randls_8.json,http://54.235.29.9/FacialAge/BNav_EC2/DepthDuration/v2_depth_duration_MTurk/v2_DepthDuration_HTML.html#442,442,1280,720,1280,720,9-3-2022,9-11-51,126,depth_duration_stimuli/003048_2014-06-15_13-49-43_094959634447_rgbf000150-resize_1/003048_2014-06-15_13-49-43_094959634447_rgbf000150-resize_1-target.png,125,4.0035,0,1866,125,feet,jsons/VE125_randls_8.json,484788,651671,39,Man
126,933568,DepthScenes,duration_manipulation_targetAtFixation,jsons/VE125_randls_8.json,http://54.235.29.9/FacialAge/BNav_EC2/DepthDuration/v2_depth_duration_MTurk/v2_DepthDuration_HTML.html#442,442,1280,720,1280,720,9-3-2022,9-11-51,127,depth_duration_stimuli/002988_2014-06-15_12-24-20_094959634447_rgbf000150-resize_1/002988_2014-06-15_12-24-20_094959634447_rgbf000150-resize_1-target.png,125,4.7669999999999995,10,1748,125,feet,jsons/VE125_randls_8.json,484788,651671,39,Man
127,933568,DepthScenes,duration_manipulation_targetAtFixation,jsons/VE125_randls_8.json,http://54.235.29.9/FacialAge/BNav_EC2/DepthDuration/v2_depth_duration_MTurk/v2_DepthDuration_HTML.html#442,442,1280,720,1280,720,9-3-2022,9-11-51,128,depth_duration_stimuli/001052_2014-06-08_18-24-54_260595134347_rgbf000130-resize_1/001052_2014-06-08_18-24-54_260595134347_rgbf000130-resize_1-target.png,125,4.1045,12,1628,124,feet,jsons/VE125_randls_8.json,484788,651671,39,Man
128,933568,DepthScenes,duration_manipulation_targetAtFixation,jsons/VE125_randls_8.json,http://54.235.29.9/FacialAge/BNav_EC2/DepthDuration/v2_depth_duration_MTurk/v2_DepthDuration_HTML.html#442,442,1280,720,1280,720,9-3-2022,9-11-51,129,depth_duration_stimuli/000692_2014-06-08_13-09-42_260595134347_rgbf000199-resize_2/000692_2014-06-08_13-09-42_260595134347_rgbf000199-resize_2-target.png,125,3.661,15,2289,125,feet,jsons/VE125_randls_8.json,484788,651671,39,Man
129,933568,DepthScenes,duration_manipulation_targetAtFixation,jsons/VE125_randls_8.json,http://54.235.29.9/FacialAge/BNav_EC2/DepthDuration/v2_depth_duration_MTurk/v2_DepthDuration_HTML.html#442,442,1280,720,1280,720,9-3-2022,9-11-51,130,depth_duration_stimuli/001094_2014-06-15_17-36-00_260595134347_rgbf000205-resize_0/001094_2014-06-15_17-36-00_260595134347_rgbf000205-resize_0-target.png,125,4.2175,12,7888,123,feet,jsons/VE125_randls_8.json,484788,651671,39,Man
130,933568,DepthScenes,duration_manipulation_targetAtFixation,jsons/VE125_randls_8.json,http://54.235.29.9/FacialAge/BNav_EC2/DepthDuration/v2_depth_duration_MTurk/v2_DepthDuration_HTML.html#442,442,1280,720,1280,720,9-3-2022,9-11-51,131,depth_duration_stimuli/001555_2014-06-20_17-12-10_260595134347_rgbf000065-resize_4/001555_2014-06-20_17-12-10_260595134347_rgbf000065-resize_4-target.png,125,1.633,2,1538,125,feet,jsons/VE125_randls_8.json,484788,651671,39,Man
131,933568,DepthScenes,duration_manipulation_targetAtFixation,jsons/VE125_randls_8.json,http://54.235.29.9/FacialAge/BNav_EC2/DepthDuration/v2_depth_duration_MTurk/v2_DepthDuration_HTML.html#442,442,1280,720,1280,720,9-3-2022,9-11-51,132,depth_duration_stimuli/000103_2014-05-14_22-01-17_260595134347_rgbf000152-resize_5/000103_2014-05-14_22-01-17_260595134347_rgbf000152-resize_5-target.png,125,1.993,6,3407,125,feet,jsons/VE125_randls_8.json,484788,651671,39,Man
132,933568,DepthScenes,duration_manipulation_targetAtFixation,jsons/VE125_randls_8.json,http://54.235.29.9/FacialAge/BNav_EC2/DepthDuration/v2_depth_duration_MTurk/v2_DepthDuration_HTML.html#442,442,1280,720,1280,720,9-3-2022,9-11-51,133,depth_duration_stimuli/002057_2014-06-24_21-00-13_260595134347_rgbf000120-resize_1/002057_2014-06-24_21-00-13_260595134347_rgbf000120-resize_1-target.png,125,2.967,7,2580,125,feet,jsons/VE125_randls_8.json,484788,651671,39,Man
133,933568,DepthScenes,duration_manipulation_targetAtFixation,jsons/VE125_randls_8.json,http://54.235.29.9/FacialAge/BNav_EC2/DepthDuration/v2_depth_duration_MTurk/v2_DepthDuration_HTML.html#442,442,1280,720,1280,720,9-3-2022,9-11-51,134,depth_duration_stimuli/000709_2014-06-08_13-51-55_260595134347_rgbf000068-resize_3/000709_2014-06-08_13-51-55_260595134347_rgbf000068-resize_3-target.png,125,1.8030000000000002,0,2155,126,feet,jsons/VE125_randls_8.json,484788,651671,39,Man
134,933568,DepthScenes,duration_manipulation_targetAtFixation,jsons/VE125_randls_8.json,http://54.235.29.9/FacialAge/BNav_EC2/DepthDuration/v2_depth_duration_MTurk/v2_DepthDuration_HTML.html#442,442,1280,720,1280,720,9-3-2022,9-11-51,135,depth_duration_stimuli/002072_2014-06-24_21-48-06_260595134347_rgbf000115-resize_0/002072_2014-06-24_21-48-06_260595134347_rgbf000115-resize-original.jpg,125,4.702,0,1661,125,feet,jsons/VE125_randls_8.json,484788,651671,39,Man
135,933568,DepthScenes,duration_manipulation_targetAtFixation,jsons/VE125_randls_8.json,http://54.235.29.9/FacialAge/BNav_EC2/DepthDuration/v2_depth_duration_MTurk/v2_DepthDuration_HTML.html#442,442,1280,720,1280,720,9-3-2022,9-11-51,136,depth_duration_stimuli/002600_2014-06-24_14-27-04_094959634447_rgbf000074-resize_2/002600_2014-06-24_14-27-04_094959634447_rgbf000074-resize_2-target.png,125,2.7575,4,2062,125,feet,jsons/VE125_randls_8.json,484788,651671,39,Man
136,933568,DepthScenes,duration_manipulation_targetAtFixation,jsons/VE125_randls_8.json,http://54.235.29.9/FacialAge/BNav_EC2/DepthDuration/v2_depth_duration_MTurk/v2_DepthDuration_HTML.html#442,442,1280,720,1280,720,9-3-2022,9-11-51,137,depth_duration_stimuli/003228_2014-05-14_13-42-35_094959634447_rgbf000101-resize_1/003228_2014-05-14_13-42-35_094959634447_rgbf000101-resize_1-target.png,125,1.9680000000000002,3,1670,126,feet,jsons/VE125_randls_8.json,484788,651671,39,Man
137,933568,DepthScenes,duration_manipulation_targetAtFixation,jsons/VE125_randls_8.json,http://54.235.29.9/FacialAge/BNav_EC2/DepthDuration/v2_depth_duration_MTurk/v2_DepthDuration_HTML.html#442,442,1280,720,1280,720,9-3-2022,9-11-51,138,depth_duration_stimuli/002445_2014-06-28_20-32-16_260595134347_rgbf000029-resize_4/002445_2014-06-28_20-32-16_260595134347_rgbf000029-resize_4-target.png,125,2.5315,3,1567,125,feet,jsons/VE125_randls_8.json,484788,651671,39,Man
138,933568,DepthScenes,duration_manipulation_targetAtFixation,jsons/VE125_randls_8.json,http://54.235.29.9/FacialAge/BNav_EC2/DepthDuration/v2_depth_duration_MTurk/v2_DepthDuration_HTML.html#442,442,1280,720,1280,720,9-3-2022,9-11-51,139,depth_duration_stimuli/000780_2014-06-08_22-28-29_260595134347_rgbf000126-resize_1/000780_2014-06-08_22-28-29_260595134347_rgbf000126-resize_1-target.png,125,3.3825,10,2798,125,feet,jsons/VE125_randls_8.json,484788,651671,39,Man
139,933568,DepthScenes,duration_manipulation_targetAtFixation,jsons/VE125_randls_8.json,http://54.235.29.9/FacialAge/BNav_EC2/DepthDuration/v2_depth_duration_MTurk/v2_DepthDuration_HTML.html#442,442,1280,720,1280,720,9-3-2022,9-11-51,140,depth_duration_stimuli/002549_2014-06-24_13-41-39_094959634447_rgbf000022-resize_3/002549_2014-06-24_13-41-39_094959634447_rgbf000022-resize_3-target.png,125,1.476,2,2477,125,feet,jsons/VE125_randls_8.json,484788,651671,39,Man
140,933568,DepthScenes,duration_manipulation_targetAtFixation,jsons/VE125_randls_8.json,http://54.235.29.9/FacialAge/BNav_EC2/DepthDuration/v2_depth_duration_MTurk/v2_DepthDuration_HTML.html#442,442,1280,720,1280,720,9-3-2022,9-11-51,141,depth_duration_stimuli/002750_2014-06-22_19-08-03_094959634447_rgbf000094-resize_4/002750_2014-06-22_19-08-03_094959634447_rgbf000094-resize_4-target.png,125,2.354,5,1896,125,feet,jsons/VE125_randls_8.json,484788,651671,39,Man
141,933568,DepthScenes,duration_manipulation_targetAtFixation,jsons/VE125_randls_8.json,http://54.235.29.9/FacialAge/BNav_EC2/DepthDuration/v2_depth_duration_MTurk/v2_DepthDuration_HTML.html#442,442,1280,720,1280,720,9-3-2022,9-11-51,142,depth_duration_stimuli/000878_2014-06-08_22-52-45_260595134347_rgbf000045-resize_2/000878_2014-06-08_22-52-45_260595134347_rgbf000045-resize_2-target.png,125,2.092,0,1552,126,feet,jsons/VE125_randls_8.json,484788,651671,39,Man
142,933568,DepthScenes,duration_manipulation_targetAtFixation,jsons/VE125_randls_8.json,http://54.235.29.9/FacialAge/BNav_EC2/DepthDuration/v2_depth_duration_MTurk/v2_DepthDuration_HTML.html#442,442,1280,720,1280,720,9-3-2022,9-11-51,143,depth_duration_stimuli/002953_2014-06-08_17-32-18_094959634447_rgbf000059-resize_5/002953_2014-06-08_17-32-18_094959634447_rgbf000059-resize_5-target.png,125,1.551,0,1437,125,feet,jsons/VE125_randls_8.json,484788,651671,39,Man
143,933568,DepthScenes,duration_manipulation_targetAtFixation,jsons/VE125_randls_8.json,http://54.235.29.9/FacialAge/BNav_EC2/DepthDuration/v2_depth_duration_MTurk/v2_DepthDuration_HTML.html#442,442,1280,720,1280,720,9-3-2022,9-11-51,144,depth_duration_stimuli/001016_2014-06-09_16-16-10_260595134347_rgbf000112-resize_5/001016_2014-06-09_16-16-10_260595134347_rgbf000112-resize_5-target.png,125,1.6565,4,1780,124,feet,jsons/VE125_randls_8.json,484788,651671,39,Man
144,933568,DepthScenes,duration_manipulation_targetAtFixation,jsons/VE125_randls_8.json,http://54.235.29.9/FacialAge/BNav_EC2/DepthDuration/v2_depth_duration_MTurk/v2_DepthDuration_HTML.html#442,442,1280,720,1280,720,9-3-2022,9-11-51,145,depth_duration_stimuli/002340_2014-06-28_20-05-46_260595134347_rgbf000113-resize_0/002340_2014-06-28_20-05-46_260595134347_rgbf000113-resize_0-target.png,125,2.4735,10,2172,124,feet,jsons/VE125_randls_8.json,484788,651671,39,Man
145,933568,DepthScenes,duration_manipulation_targetAtFixation,jsons/VE125_randls_8.json,http://54.235.29.9/FacialAge/BNav_EC2/DepthDuration/v2_depth_duration_MTurk/v2_DepthDuration_HTML.html#442,442,1280,720,1280,720,9-3-2022,9-11-51,146,depth_duration_stimuli/001498_2014-06-19_17-45-14_260595134347_rgbf000129-resize_4/001498_2014-06-19_17-45-14_260595134347_rgbf000129-resize-original.jpg,125,1.4075,0,1431,123,feet,jsons/VE125_randls_8.json,484788,651671,39,Man
146,933568,DepthScenes,duration_manipulation_targetAtFixation,jsons/VE125_randls_8.json,http://54.235.29.9/FacialAge/BNav_EC2/DepthDuration/v2_depth_duration_MTurk/v2_DepthDuration_HTML.html#442,442,1280,720,1280,720,9-3-2022,9-11-51,147,depth_duration_stimuli/001055_2014-06-08_18-45-35_260595134347_rgbf000111-resize_4/001055_2014-06-08_18-45-35_260595134347_rgbf000111-resize_4-target.png,125,2.4290000000000003,10,2884,124,feet,jsons/VE125_randls_8.json,484788,651671,39,Man
147,933568,DepthScenes,duration_manipulation_targetAtFixation,jsons/VE125_randls_8.json,http://54.235.29.9/FacialAge/BNav_EC2/DepthDuration/v2_depth_duration_MTurk/v2_DepthDuration_HTML.html#442,442,1280,720,1280,720,9-3-2022,9-11-51,148,depth_duration_stimuli/000549_2014-06-08_22-10-24_260595134347_rgbf000247-resize_3/000549_2014-06-08_22-10-24_260595134347_rgbf000247-resize_3-target.png,125,1.841,3,1795,125,feet,jsons/VE125_randls_8.json,484788,651671,39,Man
148,933568,DepthScenes,duration_manipulation_targetAtFixation,jsons/VE125_randls_8.json,http://54.235.29.9/FacialAge/BNav_EC2/DepthDuration/v2_depth_duration_MTurk/v2_DepthDuration_HTML.html#442,442,1280,720,1280,720,9-3-2022,9-11-51,149,depth_duration_stimuli/001808_2014-06-26_20-50-58_260595134347_rgbf000029-resize_1/001808_2014-06-26_20-50-58_260595134347_rgbf000029-resize_1-target.png,125,4.249,10,2115,125,feet,jsons/VE125_randls_8.json,484788,651671,39,Man
149,933568,DepthScenes,duration_manipulation_targetAtFixation,jsons/VE125_randls_8.json,http://54.235.29.9/FacialAge/BNav_EC2/DepthDuration/v2_depth_duration_MTurk/v2_DepthDuration_HTML.html#442,442,1280,720,1280,720,9-3-2022,9-11-51,150,depth_duration_stimuli/001815_2014-06-26_20-52-55_260595134347_rgbf000020-resize_0/001815_2014-06-26_20-52-55_260595134347_rgbf000020-resize_0-target.png,125,3.3865,122,2079,126,feet,jsons/VE125_randls_8.json,484788,651671,39,Man
150,933568,DepthScenes,duration_manipulation_targetAtFixation,jsons/VE125_randls_8.json,http://54.235.29.9/FacialAge/BNav_EC2/DepthDuration/v2_depth_duration_MTurk/v2_DepthDuration_HTML.html#442,442,1280,720,1280,720,9-3-2022,9-11-51,151,depth_duration_stimuli/001011_2014-06-08_23-18-54_260595134347_rgbf000044-resize_4/001011_2014-06-08_23-18-54_260595134347_rgbf000044-resize_4-target.png,125,2.4730000000000003,7,3165,125,feet,jsons/VE125_randls_8.json,484788,651671,39,Man
151,933568,DepthScenes,duration_manipulation_targetAtFixation,jsons/VE125_randls_8.json,http://54.235.29.9/FacialAge/BNav_EC2/DepthDuration/v2_depth_duration_MTurk/v2_DepthDuration_HTML.html#442,442,1280,720,1280,720,9-3-2022,9-11-51,152,depth_duration_stimuli/002875_2014-06-01_15-19-00_094959634447_rgbf000151-resize_1/002875_2014-06-01_15-19-00_094959634447_rgbf000151-resize_1-target.png,125,1.9675,8,4709,125,feet,jsons/VE125_randls_8.json,484788,651671,39,Man
152,933568,DepthScenes,duration_manipulation_targetAtFixation,jsons/VE125_randls_8.json,http://54.235.29.9/FacialAge/BNav_EC2/DepthDuration/v2_depth_duration_MTurk/v2_DepthDuration_HTML.html#442,442,1280,720,1280,720,9-3-2022,9-11-51,153,depth_duration_stimuli/002725_2014-06-22_11-47-51_094959634447_rgbf000070-resize_1/002725_2014-06-22_11-47-51_094959634447_rgbf000070-resize_1-target.png,125,2.195,3,2113,123,feet,jsons/VE125_randls_8.json,484788,651671,39,Man
153,933568,DepthScenes,duration_manipulation_targetAtFixation,jsons/VE125_randls_8.json,http://54.235.29.9/FacialAge/BNav_EC2/DepthDuration/v2_depth_duration_MTurk/v2_DepthDuration_HTML.html#442,442,1280,720,1280,720,9-3-2022,9-11-51,154,depth_duration_stimuli/002344_2014-06-28_20-06-29_260595134347_rgbf000030-resize_1/002344_2014-06-28_20-06-29_260595134347_rgbf000030-resize_1-target.png,125,1.5795,1,2413,123,feet,jsons/VE125_randls_8.json,484788,651671,39,Man
154,933568,DepthScenes,duration_manipulation_targetAtFixation,jsons/VE125_randls_8.json,http://54.235.29.9/FacialAge/BNav_EC2/DepthDuration/v2_depth_duration_MTurk/v2_DepthDuration_HTML.html#442,442,1280,720,1280,720,9-3-2022,9-11-51,155,depth_duration_stimuli/001806_2014-06-26_20-50-20_260595134347_rgbf000091-resize_1/001806_2014-06-26_20-50-20_260595134347_rgbf000091-resize_1-target.png,125,2.7305,3,1678,125,feet,jsons/VE125_randls_8.json,484788,651671,39,Man
155,933568,DepthScenes,duration_manipulation_targetAtFixation,jsons/VE125_randls_8.json,http://54.235.29.9/FacialAge/BNav_EC2/DepthDuration/v2_depth_duration_MTurk/v2_DepthDuration_HTML.html#442,442,1280,720,1280,720,9-3-2022,9-11-51,156,depth_duration_stimuli/001617_2014-06-20_11-35-32_260595134347_rgbf000066-resize_1/001617_2014-06-20_11-35-32_260595134347_rgbf000066-resize_1-target.png,125,3.7910000000000004,7,3071,125,feet,jsons/VE125_randls_8.json,484788,651671,39,Man
156,933568,DepthScenes,duration_manipulation_targetAtFixation,jsons/VE125_randls_8.json,http://54.235.29.9/FacialAge/BNav_EC2/DepthDuration/v2_depth_duration_MTurk/v2_DepthDuration_HTML.html#442,442,1280,720,1280,720,9-3-2022,9-11-51,157,depth_duration_stimuli/002375_2014-06-28_20-13-44_260595134347_rgbf000032-resize_1/002375_2014-06-28_20-13-44_260595134347_rgbf000032-resize_1-target.png,125,4.0175,4,2384,125,feet,jsons/VE125_randls_8.json,484788,651671,39,Man
157,933568,DepthScenes,duration_manipulation_targetAtFixation,jsons/VE125_randls_8.json,http://54.235.29.9/FacialAge/BNav_EC2/DepthDuration/v2_depth_duration_MTurk/v2_DepthDuration_HTML.html#442,442,1280,720,1280,720,9-3-2022,9-11-51,158,depth_duration_stimuli/002657_2014-06-13_15-29-54_094959634447_rgbf000150-resize_1/002657_2014-06-13_15-29-54_094959634447_rgbf000150-resize_1-target.png,125,4.919,7,2005,124,feet,jsons/VE125_randls_8.json,484788,651671,39,Man
158,933568,DepthScenes,duration_manipulation_targetAtFixation,jsons/VE125_randls_8.json,http://54.235.29.9/FacialAge/BNav_EC2/DepthDuration/v2_depth_duration_MTurk/v2_DepthDuration_HTML.html#442,442,1280,720,1280,720,9-3-2022,9-11-51,159,depth_duration_stimuli/000470_2014-06-09_19-42-40_260595134347_rgbf000094-resize_1/000470_2014-06-09_19-42-40_260595134347_rgbf000094-resize_1-target.png,125,1.831,4,4012,127,feet,jsons/VE125_randls_8.json,484788,651671,39,Man
159,933568,DepthScenes,duration_manipulation_targetAtFixation,jsons/VE125_randls_8.json,http://54.235.29.9/FacialAge/BNav_EC2/DepthDuration/v2_depth_duration_MTurk/v2_DepthDuration_HTML.html#442,442,1280,720,1280,720,9-3-2022,9-11-51,160,depth_duration_stimuli/000109_2014-05-14_23-41-52_260595134347_rgbf000035-resize_9/000109_2014-05-14_23-41-52_260595134347_rgbf000035-resize_9-target.png,125,1.3545,3,1772,124,feet,jsons/VE125_randls_8.json,484788,651671,39,Man
160,933568,DepthScenes,duration_manipulation_targetAtFixation,jsons/VE125_randls_8.json,http://54.235.29.9/FacialAge/BNav_EC2/DepthDuration/v2_depth_duration_MTurk/v2_DepthDuration_HTML.html#442,442,1280,720,1280,720,9-3-2022,9-11-51,161,depth_duration_stimuli/002964_2014-06-08_17-46-11_094959634447_rgbf000091-resize_4/002964_2014-06-08_17-46-11_094959634447_rgbf000091-resize_4-target.png,125,1.6909999999999998,2,1622,124,feet,jsons/VE125_randls_8.json,484788,651671,39,Man
161,933568,DepthScenes,duration_manipulation_targetAtFixation,jsons/VE125_randls_8.json,http://54.235.29.9/FacialAge/BNav_EC2/DepthDuration/v2_depth_duration_MTurk/v2_DepthDuration_HTML.html#442,442,1280,720,1280,720,9-3-2022,9-11-51,162,depth_duration_stimuli/002136_2014-06-25_21-18-03_260595134347_rgbf000109-resize_3/002136_2014-06-25_21-18-03_260595134347_rgbf000109-resize_3-target.png,125,1.9569999999999999,3,1959,126,feet,jsons/VE125_randls_8.json,484788,651671,39,Man
162,933568,DepthScenes,duration_manipulation_targetAtFixation,jsons/VE125_randls_8.json,http://54.235.29.9/FacialAge/BNav_EC2/DepthDuration/v2_depth_duration_MTurk/v2_DepthDuration_HTML.html#442,442,1280,720,1280,720,9-3-2022,9-11-51,163,depth_duration_stimuli/000447_2014-06-08_16-15-46_260595134347_rgbf000130-resize_1/000447_2014-06-08_16-15-46_260595134347_rgbf000130-resize_1-target.png,125,4.479,10,1654,125,feet,jsons/VE125_randls_8.json,484788,651671,39,Man
163,933568,DepthScenes,duration_manipulation_targetAtFixation,jsons/VE125_randls_8.json,http://54.235.29.9/FacialAge/BNav_EC2/DepthDuration/v2_depth_duration_MTurk/v2_DepthDuration_HTML.html#442,442,1280,720,1280,720,9-3-2022,9-11-51,164,depth_duration_stimuli/001447_2014-06-19_17-00-32_260595134347_rgbf000082-resize_5/001447_2014-06-19_17-00-32_260595134347_rgbf000082-resize_5-target.png,125,4.13775,5,2094,126,feet,jsons/VE125_randls_8.json,484788,651671,39,Man
