,subjID,experimentName,versionName,sequenceName,url,selected_row,windowWidth,windowHeight,screenWidth,screenHeight,startDate,startTime,trial,stimulus,duration,actual_depth,depth_estimate,trial_RT,log_sceneDuration,unitSelection,seq_filepath,experimentTime,totalTime,age,gender
0,939289,DepthScenes,duration_manipulation_targetAtFixation,jsons/v1_VE1000_randls_48.json,http://54.235.29.9/FacialAge/BNav_EC2/DepthDuration/v2_depth_duration_MTurk/v2_DepthDuration_HTML.html#259,259,1366,625,1366,768,8-29-2022,9-22-24,1,depth_duration_stimuli/001417_2014-06-19_16-25-36_260595134347_rgbf000115-resize_5/001417_2014-06-19_16-25-36_260595134347_rgbf000115-resize_5-target.png,1000,4.6255,2,3259,991,feet,jsons/v1_VE1000_randls_48.json,808619,905018,35,Woman
1,939289,DepthScenes,duration_manipulation_targetAtFixation,jsons/v1_VE1000_randls_48.json,http://54.235.29.9/FacialAge/BNav_EC2/DepthDuration/v2_depth_duration_MTurk/v2_DepthDuration_HTML.html#259,259,1366,625,1366,768,8-29-2022,9-22-24,2,depth_duration_stimuli/003081_2014-06-15_15-19-16_094959634447_rgbf000150-resize_1/003081_2014-06-15_15-19-16_094959634447_rgbf000150-resize_1-target.png,1000,3.9125,4,3019,1001,feet,jsons/v1_VE1000_randls_48.json,808619,905018,35,Woman
2,939289,DepthScenes,duration_manipulation_targetAtFixation,jsons/v1_VE1000_randls_48.json,http://54.235.29.9/FacialAge/BNav_EC2/DepthDuration/v2_depth_duration_MTurk/v2_DepthDuration_HTML.html#259,259,1366,625,1366,768,8-29-2022,9-22-24,3,depth_duration_stimuli/001555_2014-06-20_17-12-10_260595134347_rgbf000065-resize_4/001555_2014-06-20_17-12-10_260595134347_rgbf000065-resize_4-target.png,1000,1.633,1,3014,1004,feet,jsons/v1_VE1000_randls_48.json,808619,905018,35,Woman
3,939289,DepthScenes,duration_manipulation_targetAtFixation,jsons/v1_VE1000_randls_48.json,http://54.235.29.9/FacialAge/BNav_EC2/DepthDuration/v2_depth_duration_MTurk/v2_DepthDuration_HTML.html#259,259,1366,625,1366,768,8-29-2022,9-22-24,4,depth_duration_stimuli/000103_2014-05-14_22-01-17_260595134347_rgbf000152-resize_5/000103_2014-05-14_22-01-17_260595134347_rgbf000152-resize_5-target.png,1000,1.993,4,3114,1003,feet,jsons/v1_VE1000_randls_48.json,808619,905018,35,Woman
4,939289,DepthScenes,duration_manipulation_targetAtFixation,jsons/v1_VE1000_randls_48.json,http://54.235.29.9/FacialAge/BNav_EC2/DepthDuration/v2_depth_duration_MTurk/v2_DepthDuration_HTML.html#259,259,1366,625,1366,768,8-29-2022,9-22-24,5,depth_duration_stimuli/000414_2014-06-04_19-49-13_260595134347_rgbf000044-resize_0/000414_2014-06-04_19-49-13_260595134347_rgbf000044-resize_0-target.png,1000,4.329,2,3166,1002,feet,jsons/v1_VE1000_randls_48.json,808619,905018,35,Woman
5,939289,DepthScenes,duration_manipulation_targetAtFixation,jsons/v1_VE1000_randls_48.json,http://54.235.29.9/FacialAge/BNav_EC2/DepthDuration/v2_depth_duration_MTurk/v2_DepthDuration_HTML.html#259,259,1366,625,1366,768,8-29-2022,9-22-24,6,depth_duration_stimuli/003129_2014-05-12_10-48-10_094959634447_rgbf000100-resize_0/003129_2014-05-12_10-48-10_094959634447_rgbf000100-resize_0-target.png,1000,4.9305,3,2742,979,feet,jsons/v1_VE1000_randls_48.json,808619,905018,35,Woman
6,939289,DepthScenes,duration_manipulation_targetAtFixation,jsons/v1_VE1000_randls_48.json,http://54.235.29.9/FacialAge/BNav_EC2/DepthDuration/v2_depth_duration_MTurk/v2_DepthDuration_HTML.html#259,259,1366,625,1366,768,8-29-2022,9-22-24,7,depth_duration_stimuli/002663_2014-06-13_15-50-26_094959634447_rgbf000075-resize_1/002663_2014-06-13_15-50-26_094959634447_rgbf000075-resize_1-target.png,1000,4.7495,1,2703,1007,feet,jsons/v1_VE1000_randls_48.json,808619,905018,35,Woman
7,939289,DepthScenes,duration_manipulation_targetAtFixation,jsons/v1_VE1000_randls_48.json,http://54.235.29.9/FacialAge/BNav_EC2/DepthDuration/v2_depth_duration_MTurk/v2_DepthDuration_HTML.html#259,259,1366,625,1366,768,8-29-2022,9-22-24,8,depth_duration_stimuli/000409_2014-06-04_19-23-33_260595134347_rgbf000067-resize_0/000409_2014-06-04_19-23-33_260595134347_rgbf000067-resize_0-target.png,1000,3.7335,4,3106,1010,feet,jsons/v1_VE1000_randls_48.json,808619,905018,35,Woman
8,939289,DepthScenes,duration_manipulation_targetAtFixation,jsons/v1_VE1000_randls_48.json,http://54.235.29.9/FacialAge/BNav_EC2/DepthDuration/v2_depth_duration_MTurk/v2_DepthDuration_HTML.html#259,259,1366,625,1366,768,8-29-2022,9-22-24,9,depth_duration_stimuli/002725_2014-06-22_11-47-51_094959634447_rgbf000070-resize_1/002725_2014-06-22_11-47-51_094959634447_rgbf000070-resize_1-target.png,1000,2.195,2,2955,994,feet,jsons/v1_VE1000_randls_48.json,808619,905018,35,Woman
9,939289,DepthScenes,duration_manipulation_targetAtFixation,jsons/v1_VE1000_randls_48.json,http://54.235.29.9/FacialAge/BNav_EC2/DepthDuration/v2_depth_duration_MTurk/v2_DepthDuration_HTML.html#259,259,1366,625,1366,768,8-29-2022,9-22-24,10,depth_duration_stimuli/002344_2014-06-28_20-06-29_260595134347_rgbf000030-resize_1/002344_2014-06-28_20-06-29_260595134347_rgbf000030-resize_1-target.png,1000,1.5795,1,3984,997,feet,jsons/v1_VE1000_randls_48.json,808619,905018,35,Woman
10,939289,DepthScenes,duration_manipulation_targetAtFixation,jsons/v1_VE1000_randls_48.json,http://54.235.29.9/FacialAge/BNav_EC2/DepthDuration/v2_depth_duration_MTurk/v2_DepthDuration_HTML.html#259,259,1366,625,1366,768,8-29-2022,9-22-24,11,depth_duration_stimuli/001158_2014-06-17_15-32-16_260595134347_rgbf000138-resize_2/001158_2014-06-17_15-32-16_260595134347_rgbf000138-resize_2-target.png,1000,4.5315,1,22524,996,feet,jsons/v1_VE1000_randls_48.json,808619,905018,35,Woman
11,939289,DepthScenes,duration_manipulation_targetAtFixation,jsons/v1_VE1000_randls_48.json,http://54.235.29.9/FacialAge/BNav_EC2/DepthDuration/v2_depth_duration_MTurk/v2_DepthDuration_HTML.html#259,259,1366,625,1366,768,8-29-2022,9-22-24,12,depth_duration_stimuli/000556_2014-06-09_22-42-56_260595134347_rgbf000214-resize_1/000556_2014-06-09_22-42-56_260595134347_rgbf000214-resize_1-target.png,1000,4.8415,4,3745,1002,feet,jsons/v1_VE1000_randls_48.json,808619,905018,35,Woman
12,939289,DepthScenes,duration_manipulation_targetAtFixation,jsons/v1_VE1000_randls_48.json,http://54.235.29.9/FacialAge/BNav_EC2/DepthDuration/v2_depth_duration_MTurk/v2_DepthDuration_HTML.html#259,259,1366,625,1366,768,8-29-2022,9-22-24,13,depth_duration_stimuli/000569_2014-06-09_22-51-47_260595134347_rgbf000141-resize_3/000569_2014-06-09_22-51-47_260595134347_rgbf000141-resize-original.jpg,1000,4.512,0,7850,987,feet,jsons/v1_VE1000_randls_48.json,808619,905018,35,Woman
13,939289,DepthScenes,duration_manipulation_targetAtFixation,jsons/v1_VE1000_randls_48.json,http://54.235.29.9/FacialAge/BNav_EC2/DepthDuration/v2_depth_duration_MTurk/v2_DepthDuration_HTML.html#259,259,1366,625,1366,768,8-29-2022,9-22-24,14,depth_duration_stimuli/001059_2014-06-08_21-53-27_260595134347_rgbf000061-resize_4/001059_2014-06-08_21-53-27_260595134347_rgbf000061-resize_4-target.png,1000,2.4185,2,3213,989,feet,jsons/v1_VE1000_randls_48.json,808619,905018,35,Woman
14,939289,DepthScenes,duration_manipulation_targetAtFixation,jsons/v1_VE1000_randls_48.json,http://54.235.29.9/FacialAge/BNav_EC2/DepthDuration/v2_depth_duration_MTurk/v2_DepthDuration_HTML.html#259,259,1366,625,1366,768,8-29-2022,9-22-24,15,depth_duration_stimuli/001032_2014-06-08_13-23-17_260595134347_rgbf000021-resize_3/001032_2014-06-08_13-23-17_260595134347_rgbf000021-resize_3-target.png,1000,3.2725,1,3521,998,feet,jsons/v1_VE1000_randls_48.json,808619,905018,35,Woman
15,939289,DepthScenes,duration_manipulation_targetAtFixation,jsons/v1_VE1000_randls_48.json,http://54.235.29.9/FacialAge/BNav_EC2/DepthDuration/v2_depth_duration_MTurk/v2_DepthDuration_HTML.html#259,259,1366,625,1366,768,8-29-2022,9-22-24,16,depth_duration_stimuli/003070_2014-06-15_14-58-27_094959634447_rgbf000150-resize_3/003070_2014-06-15_14-58-27_094959634447_rgbf000150-resize_3-target.png,1000,2.9415,4,3342,1002,feet,jsons/v1_VE1000_randls_48.json,808619,905018,35,Woman
16,939289,DepthScenes,duration_manipulation_targetAtFixation,jsons/v1_VE1000_randls_48.json,http://54.235.29.9/FacialAge/BNav_EC2/DepthDuration/v2_depth_duration_MTurk/v2_DepthDuration_HTML.html#259,259,1366,625,1366,768,8-29-2022,9-22-24,17,depth_duration_stimuli/000943_2014-06-09_19-31-07_260595134347_rgbf000128-resize_1/000943_2014-06-09_19-31-07_260595134347_rgbf000128-resize_1-target.png,1000,1.9765,3,2934,993,feet,jsons/v1_VE1000_randls_48.json,808619,905018,35,Woman
17,939289,DepthScenes,duration_manipulation_targetAtFixation,jsons/v1_VE1000_randls_48.json,http://54.235.29.9/FacialAge/BNav_EC2/DepthDuration/v2_depth_duration_MTurk/v2_DepthDuration_HTML.html#259,259,1366,625,1366,768,8-29-2022,9-22-24,18,depth_duration_stimuli/001055_2014-06-08_18-45-35_260595134347_rgbf000111-resize_4/001055_2014-06-08_18-45-35_260595134347_rgbf000111-resize_4-target.png,1000,2.4290000000000003,1,4034,987,feet,jsons/v1_VE1000_randls_48.json,808619,905018,35,Woman
18,939289,DepthScenes,duration_manipulation_targetAtFixation,jsons/v1_VE1000_randls_48.json,http://54.235.29.9/FacialAge/BNav_EC2/DepthDuration/v2_depth_duration_MTurk/v2_DepthDuration_HTML.html#259,259,1366,625,1366,768,8-29-2022,9-22-24,19,depth_duration_stimuli/000549_2014-06-08_22-10-24_260595134347_rgbf000247-resize_3/000549_2014-06-08_22-10-24_260595134347_rgbf000247-resize_3-target.png,1000,1.841,4,2915,997,feet,jsons/v1_VE1000_randls_48.json,808619,905018,35,Woman
19,939289,DepthScenes,duration_manipulation_targetAtFixation,jsons/v1_VE1000_randls_48.json,http://54.235.29.9/FacialAge/BNav_EC2/DepthDuration/v2_depth_duration_MTurk/v2_DepthDuration_HTML.html#259,259,1366,625,1366,768,8-29-2022,9-22-24,20,depth_duration_stimuli/002509_2014-06-24_13-19-22_094959634447_rgbf000077-resize_0/002509_2014-06-24_13-19-22_094959634447_rgbf000077-resize_0-target.png,1000,1.3065,2,3020,993,feet,jsons/v1_VE1000_randls_48.json,808619,905018,35,Woman
20,939289,DepthScenes,duration_manipulation_targetAtFixation,jsons/v1_VE1000_randls_48.json,http://54.235.29.9/FacialAge/BNav_EC2/DepthDuration/v2_depth_duration_MTurk/v2_DepthDuration_HTML.html#259,259,1366,625,1366,768,8-29-2022,9-22-24,21,depth_duration_stimuli/003338_2014-05-20_11-01-23_094959634447_rgbf000051-resize_6/003338_2014-05-20_11-01-23_094959634447_rgbf000051-resize_6-target.png,1000,1.693,1,2697,992,feet,jsons/v1_VE1000_randls_48.json,808619,905018,35,Woman
21,939289,DepthScenes,duration_manipulation_targetAtFixation,jsons/v1_VE1000_randls_48.json,http://54.235.29.9/FacialAge/BNav_EC2/DepthDuration/v2_depth_duration_MTurk/v2_DepthDuration_HTML.html#259,259,1366,625,1366,768,8-29-2022,9-22-24,22,depth_duration_stimuli/001133_2014-06-17_14-49-16_260595134347_rgbf000100-resize_0/001133_2014-06-17_14-49-16_260595134347_rgbf000100-resize_0-target.png,1000,4.2115,5,3258,1000,feet,jsons/v1_VE1000_randls_48.json,808619,905018,35,Woman
22,939289,DepthScenes,duration_manipulation_targetAtFixation,jsons/v1_VE1000_randls_48.json,http://54.235.29.9/FacialAge/BNav_EC2/DepthDuration/v2_depth_duration_MTurk/v2_DepthDuration_HTML.html#259,259,1366,625,1366,768,8-29-2022,9-22-24,23,depth_duration_stimuli/001132_2014-06-17_14-48-54_260595134347_rgbf000100-resize_2/001132_2014-06-17_14-48-54_260595134347_rgbf000100-resize_2-target.png,1000,3.753,2,3454,984,feet,jsons/v1_VE1000_randls_48.json,808619,905018,35,Woman
23,939289,DepthScenes,duration_manipulation_targetAtFixation,jsons/v1_VE1000_randls_48.json,http://54.235.29.9/FacialAge/BNav_EC2/DepthDuration/v2_depth_duration_MTurk/v2_DepthDuration_HTML.html#259,259,1366,625,1366,768,8-29-2022,9-22-24,24,depth_duration_stimuli/002989_2014-06-15_12-25-03_094959634447_rgbf000150-resize_3/002989_2014-06-15_12-25-03_094959634447_rgbf000150-resize_3-target.png,1000,4.1975,1,3480,1005,feet,jsons/v1_VE1000_randls_48.json,808619,905018,35,Woman
24,939289,DepthScenes,duration_manipulation_targetAtFixation,jsons/v1_VE1000_randls_48.json,http://54.235.29.9/FacialAge/BNav_EC2/DepthDuration/v2_depth_duration_MTurk/v2_DepthDuration_HTML.html#259,259,1366,625,1366,768,8-29-2022,9-22-24,25,depth_duration_stimuli/000866_2014-06-09_20-45-42_260595134347_rgbf000139-resize_1/000866_2014-06-09_20-45-42_260595134347_rgbf000139-resize_1-target.png,1000,3.2155,3,4210,993,feet,jsons/v1_VE1000_randls_48.json,808619,905018,35,Woman
25,939289,DepthScenes,duration_manipulation_targetAtFixation,jsons/v1_VE1000_randls_48.json,http://54.235.29.9/FacialAge/BNav_EC2/DepthDuration/v2_depth_duration_MTurk/v2_DepthDuration_HTML.html#259,259,1366,625,1366,768,8-29-2022,9-22-24,26,depth_duration_stimuli/000773_2014-06-08_22-24-54_260595134347_rgbf000093-resize_1/000773_2014-06-08_22-24-54_260595134347_rgbf000093-resize_1-target.png,1000,4.973,2,2759,997,feet,jsons/v1_VE1000_randls_48.json,808619,905018,35,Woman
26,939289,DepthScenes,duration_manipulation_targetAtFixation,jsons/v1_VE1000_randls_48.json,http://54.235.29.9/FacialAge/BNav_EC2/DepthDuration/v2_depth_duration_MTurk/v2_DepthDuration_HTML.html#259,259,1366,625,1366,768,8-29-2022,9-22-24,27,depth_duration_stimuli/002414_2014-06-28_20-24-58_260595134347_rgbf000067-resize_4/002414_2014-06-28_20-24-58_260595134347_rgbf000067-resize_4-target.png,1000,4.363,1,2698,996,feet,jsons/v1_VE1000_randls_48.json,808619,905018,35,Woman
27,939289,DepthScenes,duration_manipulation_targetAtFixation,jsons/v1_VE1000_randls_48.json,http://54.235.29.9/FacialAge/BNav_EC2/DepthDuration/v2_depth_duration_MTurk/v2_DepthDuration_HTML.html#259,259,1366,625,1366,768,8-29-2022,9-22-24,28,depth_duration_stimuli/000929_2014-06-09_16-33-19_260595134347_rgbf000139-resize_0/000929_2014-06-09_16-33-19_260595134347_rgbf000139-resize_0-target.png,1000,2.8680000000000003,2,2969,1002,feet,jsons/v1_VE1000_randls_48.json,808619,905018,35,Woman
28,939289,DepthScenes,duration_manipulation_targetAtFixation,jsons/v1_VE1000_randls_48.json,http://54.235.29.9/FacialAge/BNav_EC2/DepthDuration/v2_depth_duration_MTurk/v2_DepthDuration_HTML.html#259,259,1366,625,1366,768,8-29-2022,9-22-24,29,depth_duration_stimuli/000457_2014-06-08_16-52-43_260595134347_rgbf000199-resize_1/000457_2014-06-08_16-52-43_260595134347_rgbf000199-resize_1-target.png,1000,3.6489999999999996,5,3061,998,feet,jsons/v1_VE1000_randls_48.json,808619,905018,35,Woman
29,939289,DepthScenes,duration_manipulation_targetAtFixation,jsons/v1_VE1000_randls_48.json,http://54.235.29.9/FacialAge/BNav_EC2/DepthDuration/v2_depth_duration_MTurk/v2_DepthDuration_HTML.html#259,259,1366,625,1366,768,8-29-2022,9-22-24,30,depth_duration_stimuli/000375_2014-06-08_11-17-29_260595134347_rgbf000133-resize_2/000375_2014-06-08_11-17-29_260595134347_rgbf000133-resize-original.jpg,1000,4.718,0,5432,999,feet,jsons/v1_VE1000_randls_48.json,808619,905018,35,Woman
30,939289,DepthScenes,duration_manipulation_targetAtFixation,jsons/v1_VE1000_randls_48.json,http://54.235.29.9/FacialAge/BNav_EC2/DepthDuration/v2_depth_duration_MTurk/v2_DepthDuration_HTML.html#259,259,1366,625,1366,768,8-29-2022,9-22-24,31,depth_duration_stimuli/000788_2014-06-08_22-34-36_260595134347_rgbf000131-resize_1/000788_2014-06-08_22-34-36_260595134347_rgbf000131-resize_1-target.png,1000,3.359,2,3261,999,feet,jsons/v1_VE1000_randls_48.json,808619,905018,35,Woman
31,939289,DepthScenes,duration_manipulation_targetAtFixation,jsons/v1_VE1000_randls_48.json,http://54.235.29.9/FacialAge/BNav_EC2/DepthDuration/v2_depth_duration_MTurk/v2_DepthDuration_HTML.html#259,259,1366,625,1366,768,8-29-2022,9-22-24,32,depth_duration_stimuli/001235_2014-06-17_16-37-36_260595134347_rgbf000084-resize_4/001235_2014-06-17_16-37-36_260595134347_rgbf000084-resize_4-target.png,1000,3.6605,1,2864,1003,feet,jsons/v1_VE1000_randls_48.json,808619,905018,35,Woman
32,939289,DepthScenes,duration_manipulation_targetAtFixation,jsons/v1_VE1000_randls_48.json,http://54.235.29.9/FacialAge/BNav_EC2/DepthDuration/v2_depth_duration_MTurk/v2_DepthDuration_HTML.html#259,259,1366,625,1366,768,8-29-2022,9-22-24,33,depth_duration_stimuli/003492_2014-05-21_15-50-55_094959634447_rgbf000828-resize_1/003492_2014-05-21_15-50-55_094959634447_rgbf000828-resize_1-target.png,1000,4.06875,6,2934,996,feet,jsons/v1_VE1000_randls_48.json,808619,905018,35,Woman
33,939289,DepthScenes,duration_manipulation_targetAtFixation,jsons/v1_VE1000_randls_48.json,http://54.235.29.9/FacialAge/BNav_EC2/DepthDuration/v2_depth_duration_MTurk/v2_DepthDuration_HTML.html#259,259,1366,625,1366,768,8-29-2022,9-22-24,34,depth_duration_stimuli/002568_2014-06-24_13-59-21_094959634447_rgbf000062-resize_4/002568_2014-06-24_13-59-21_094959634447_rgbf000062-resize_4-target.png,1000,3.015,2,2601,1003,feet,jsons/v1_VE1000_randls_48.json,808619,905018,35,Woman
34,939289,DepthScenes,duration_manipulation_targetAtFixation,jsons/v1_VE1000_randls_48.json,http://54.235.29.9/FacialAge/BNav_EC2/DepthDuration/v2_depth_duration_MTurk/v2_DepthDuration_HTML.html#259,259,1366,625,1366,768,8-29-2022,9-22-24,35,depth_duration_stimuli/003621_2014-05-23_18-06-08_094959634447_rgbf000101-resize_1/003621_2014-05-23_18-06-08_094959634447_rgbf000101-resize_1-target.png,1000,3.9835,1,3180,1002,feet,jsons/v1_VE1000_randls_48.json,808619,905018,35,Woman
35,939289,DepthScenes,duration_manipulation_targetAtFixation,jsons/v1_VE1000_randls_48.json,http://54.235.29.9/FacialAge/BNav_EC2/DepthDuration/v2_depth_duration_MTurk/v2_DepthDuration_HTML.html#259,259,1366,625,1366,768,8-29-2022,9-22-24,36,depth_duration_stimuli/001584_2014-06-20_11-07-43_260595134347_rgbf000002-resize_1/001584_2014-06-20_11-07-43_260595134347_rgbf000002-resize_1-target.png,1000,3.53,6,3516,1012,feet,jsons/v1_VE1000_randls_48.json,808619,905018,35,Woman
36,939289,DepthScenes,duration_manipulation_targetAtFixation,jsons/v1_VE1000_randls_48.json,http://54.235.29.9/FacialAge/BNav_EC2/DepthDuration/v2_depth_duration_MTurk/v2_DepthDuration_HTML.html#259,259,1366,625,1366,768,8-29-2022,9-22-24,37,depth_duration_stimuli/000368_2014-06-09_15-53-01_260595134347_rgbf000155-resize_2/000368_2014-06-09_15-53-01_260595134347_rgbf000155-resize_2-target.png,1000,2.4859999999999998,2,3883,987,feet,jsons/v1_VE1000_randls_48.json,808619,905018,35,Woman
37,939289,DepthScenes,duration_manipulation_targetAtFixation,jsons/v1_VE1000_randls_48.json,http://54.235.29.9/FacialAge/BNav_EC2/DepthDuration/v2_depth_duration_MTurk/v2_DepthDuration_HTML.html#259,259,1366,625,1366,768,8-29-2022,9-22-24,38,depth_duration_stimuli/002678_2014-06-13_16-15-32_094959634447_rgbf000151-resize_6/002678_2014-06-13_16-15-32_094959634447_rgbf000151-resize_6-target.png,1000,2.1830000000000003,1,2937,1001,feet,jsons/v1_VE1000_randls_48.json,808619,905018,35,Woman
38,939289,DepthScenes,duration_manipulation_targetAtFixation,jsons/v1_VE1000_randls_48.json,http://54.235.29.9/FacialAge/BNav_EC2/DepthDuration/v2_depth_duration_MTurk/v2_DepthDuration_HTML.html#259,259,1366,625,1366,768,8-29-2022,9-22-24,39,depth_duration_stimuli/001808_2014-06-26_20-50-58_260595134347_rgbf000029-resize_1/001808_2014-06-26_20-50-58_260595134347_rgbf000029-resize_1-target.png,1000,4.249,5,3467,1000,feet,jsons/v1_VE1000_randls_48.json,808619,905018,35,Woman
39,939289,DepthScenes,duration_manipulation_targetAtFixation,jsons/v1_VE1000_randls_48.json,http://54.235.29.9/FacialAge/BNav_EC2/DepthDuration/v2_depth_duration_MTurk/v2_DepthDuration_HTML.html#259,259,1366,625,1366,768,8-29-2022,9-22-24,40,depth_duration_stimuli/001815_2014-06-26_20-52-55_260595134347_rgbf000020-resize_0/001815_2014-06-26_20-52-55_260595134347_rgbf000020-resize_0-target.png,1000,3.3865,2,3467,995,feet,jsons/v1_VE1000_randls_48.json,808619,905018,35,Woman
40,939289,DepthScenes,duration_manipulation_targetAtFixation,jsons/v1_VE1000_randls_48.json,http://54.235.29.9/FacialAge/BNav_EC2/DepthDuration/v2_depth_duration_MTurk/v2_DepthDuration_HTML.html#259,259,1366,625,1366,768,8-29-2022,9-22-24,41,depth_duration_stimuli/001164_2014-06-17_15-35-46_260595134347_rgbf000085-resize_3/001164_2014-06-17_15-35-46_260595134347_rgbf000085-resize_3-target.png,1000,2.354,1,4586,998,feet,jsons/v1_VE1000_randls_48.json,808619,905018,35,Woman
41,939289,DepthScenes,duration_manipulation_targetAtFixation,jsons/v1_VE1000_randls_48.json,http://54.235.29.9/FacialAge/BNav_EC2/DepthDuration/v2_depth_duration_MTurk/v2_DepthDuration_HTML.html#259,259,1366,625,1366,768,8-29-2022,9-22-24,42,depth_duration_stimuli/001136_2014-06-17_15-19-41_260595134347_rgbf000076-resize_3/001136_2014-06-17_15-19-41_260595134347_rgbf000076-resize_3-target.png,1000,1.8655,6,5349,1006,feet,jsons/v1_VE1000_randls_48.json,808619,905018,35,Woman
42,939289,DepthScenes,duration_manipulation_targetAtFixation,jsons/v1_VE1000_randls_48.json,http://54.235.29.9/FacialAge/BNav_EC2/DepthDuration/v2_depth_duration_MTurk/v2_DepthDuration_HTML.html#259,259,1366,625,1366,768,8-29-2022,9-22-24,43,depth_duration_stimuli/000493_2014-06-09_21-01-18_260595134347_rgbf000196-resize_3/000493_2014-06-09_21-01-18_260595134347_rgbf000196-resize_3-target.png,1000,3.44,2,3271,998,feet,jsons/v1_VE1000_randls_48.json,808619,905018,35,Woman
43,939289,DepthScenes,duration_manipulation_targetAtFixation,jsons/v1_VE1000_randls_48.json,http://54.235.29.9/FacialAge/BNav_EC2/DepthDuration/v2_depth_duration_MTurk/v2_DepthDuration_HTML.html#259,259,1366,625,1366,768,8-29-2022,9-22-24,44,depth_duration_stimuli/000191_2014-05-12_17-07-38_260595134347_rgbf000199-resize_0/000191_2014-05-12_17-07-38_260595134347_rgbf000199-resize_0-target.png,1000,3.7995,1,3449,998,feet,jsons/v1_VE1000_randls_48.json,808619,905018,35,Woman
44,939289,DepthScenes,duration_manipulation_targetAtFixation,jsons/v1_VE1000_randls_48.json,http://54.235.29.9/FacialAge/BNav_EC2/DepthDuration/v2_depth_duration_MTurk/v2_DepthDuration_HTML.html#259,259,1366,625,1366,768,8-29-2022,9-22-24,45,depth_duration_stimuli/000787_2014-06-08_22-33-53_260595134347_rgbf000175-resize_1/000787_2014-06-08_22-33-53_260595134347_rgbf000175-resize-original.jpg,1000,4.784,0,5054,1006,feet,jsons/v1_VE1000_randls_48.json,808619,905018,35,Woman
45,939289,DepthScenes,duration_manipulation_targetAtFixation,jsons/v1_VE1000_randls_48.json,http://54.235.29.9/FacialAge/BNav_EC2/DepthDuration/v2_depth_duration_MTurk/v2_DepthDuration_HTML.html#259,259,1366,625,1366,768,8-29-2022,9-22-24,46,depth_duration_stimuli/002748_2014-06-22_19-07-22_094959634447_rgbf000078-resize_1/002748_2014-06-22_19-07-22_094959634447_rgbf000078-resize_1-target.png,1000,4.6705,3,4521,993,feet,jsons/v1_VE1000_randls_48.json,808619,905018,35,Woman
46,939289,DepthScenes,duration_manipulation_targetAtFixation,jsons/v1_VE1000_randls_48.json,http://54.235.29.9/FacialAge/BNav_EC2/DepthDuration/v2_depth_duration_MTurk/v2_DepthDuration_HTML.html#259,259,1366,625,1366,768,8-29-2022,9-22-24,47,depth_duration_stimuli/002995_2014-06-15_12-31-26_094959634447_rgbf000150-resize_1/002995_2014-06-15_12-31-26_094959634447_rgbf000150-resize_1-target.png,1000,3.8360000000000003,5,2755,994,feet,jsons/v1_VE1000_randls_48.json,808619,905018,35,Woman
47,939289,DepthScenes,duration_manipulation_targetAtFixation,jsons/v1_VE1000_randls_48.json,http://54.235.29.9/FacialAge/BNav_EC2/DepthDuration/v2_depth_duration_MTurk/v2_DepthDuration_HTML.html#259,259,1366,625,1366,768,8-29-2022,9-22-24,48,depth_duration_stimuli/000736_2014-06-08_18-24-15_260595134347_rgbf000206-resize_3/000736_2014-06-08_18-24-15_260595134347_rgbf000206-resize_3-target.png,1000,3.515,1,4048,1009,feet,jsons/v1_VE1000_randls_48.json,808619,905018,35,Woman
48,939289,DepthScenes,duration_manipulation_targetAtFixation,jsons/v1_VE1000_randls_48.json,http://54.235.29.9/FacialAge/BNav_EC2/DepthDuration/v2_depth_duration_MTurk/v2_DepthDuration_HTML.html#259,259,1366,625,1366,768,8-29-2022,9-22-24,49,depth_duration_stimuli/000137_2014-05-20_17-04-49_260595134347_rgbf000120-resize_1/000137_2014-05-20_17-04-49_260595134347_rgbf000120-resize_1-target.png,1000,3.786,4,3111,1004,feet,jsons/v1_VE1000_randls_48.json,808619,905018,35,Woman
49,939289,DepthScenes,duration_manipulation_targetAtFixation,jsons/v1_VE1000_randls_48.json,http://54.235.29.9/FacialAge/BNav_EC2/DepthDuration/v2_depth_duration_MTurk/v2_DepthDuration_HTML.html#259,259,1366,625,1366,768,8-29-2022,9-22-24,50,depth_duration_stimuli/002272_2014-06-28_18-53-56_260595134347_rgbf000067-resize_2/002272_2014-06-28_18-53-56_260595134347_rgbf000067-resize_2-target.png,1000,1.138,2,3476,991,feet,jsons/v1_VE1000_randls_48.json,808619,905018,35,Woman
50,939289,DepthScenes,duration_manipulation_targetAtFixation,jsons/v1_VE1000_randls_48.json,http://54.235.29.9/FacialAge/BNav_EC2/DepthDuration/v2_depth_duration_MTurk/v2_DepthDuration_HTML.html#259,259,1366,625,1366,768,8-29-2022,9-22-24,51,depth_duration_stimuli/001571_2014-06-20_17-21-32_260595134347_rgbf000089-resize_1/001571_2014-06-20_17-21-32_260595134347_rgbf000089-resize_1-target.png,1000,1.86,2,4314,1004,feet,jsons/v1_VE1000_randls_48.json,808619,905018,35,Woman
51,939289,DepthScenes,duration_manipulation_targetAtFixation,jsons/v1_VE1000_randls_48.json,http://54.235.29.9/FacialAge/BNav_EC2/DepthDuration/v2_depth_duration_MTurk/v2_DepthDuration_HTML.html#259,259,1366,625,1366,768,8-29-2022,9-22-24,52,depth_duration_stimuli/001110_2014-06-15_17-25-28_260595134347_rgbf000150-resize_1/001110_2014-06-15_17-25-28_260595134347_rgbf000150-resize_1-target.png,1000,1.7115,5,3824,995,feet,jsons/v1_VE1000_randls_48.json,808619,905018,35,Woman
52,939289,DepthScenes,duration_manipulation_targetAtFixation,jsons/v1_VE1000_randls_48.json,http://54.235.29.9/FacialAge/BNav_EC2/DepthDuration/v2_depth_duration_MTurk/v2_DepthDuration_HTML.html#259,259,1366,625,1366,768,8-29-2022,9-22-24,53,depth_duration_stimuli/000927_2014-06-09_16-32-30_260595134347_rgbf000123-resize_3/000927_2014-06-09_16-32-30_260595134347_rgbf000123-resize_3-target.png,1000,2.6785,1,3447,995,feet,jsons/v1_VE1000_randls_48.json,808619,905018,35,Woman
53,939289,DepthScenes,duration_manipulation_targetAtFixation,jsons/v1_VE1000_randls_48.json,http://54.235.29.9/FacialAge/BNav_EC2/DepthDuration/v2_depth_duration_MTurk/v2_DepthDuration_HTML.html#259,259,1366,625,1366,768,8-29-2022,9-22-24,54,depth_duration_stimuli/001056_2014-06-08_18-46-44_260595134347_rgbf000068-resize_0/001056_2014-06-08_18-46-44_260595134347_rgbf000068-resize_0-target.png,1000,2.6625,2,3088,992,feet,jsons/v1_VE1000_randls_48.json,808619,905018,35,Woman
54,939289,DepthScenes,duration_manipulation_targetAtFixation,jsons/v1_VE1000_randls_48.json,http://54.235.29.9/FacialAge/BNav_EC2/DepthDuration/v2_depth_duration_MTurk/v2_DepthDuration_HTML.html#259,259,1366,625,1366,768,8-29-2022,9-22-24,55,depth_duration_stimuli/002199_2014-06-28_18-33-56_260595134347_rgbf000074-resize_0/002199_2014-06-28_18-33-56_260595134347_rgbf000074-resize_0-target.png,1000,1.996,6,14572,987,feet,jsons/v1_VE1000_randls_48.json,808619,905018,35,Woman
55,939289,DepthScenes,duration_manipulation_targetAtFixation,jsons/v1_VE1000_randls_48.json,http://54.235.29.9/FacialAge/BNav_EC2/DepthDuration/v2_depth_duration_MTurk/v2_DepthDuration_HTML.html#259,259,1366,625,1366,768,8-29-2022,9-22-24,56,depth_duration_stimuli/002784_2014-06-22_19-26-30_094959634447_rgbf000083-resize_3/002784_2014-06-22_19-26-30_094959634447_rgbf000083-resize_3-target.png,1000,1.8046666666667,8,4132,994,feet,jsons/v1_VE1000_randls_48.json,808619,905018,35,Woman
56,939289,DepthScenes,duration_manipulation_targetAtFixation,jsons/v1_VE1000_randls_48.json,http://54.235.29.9/FacialAge/BNav_EC2/DepthDuration/v2_depth_duration_MTurk/v2_DepthDuration_HTML.html#259,259,1366,625,1366,768,8-29-2022,9-22-24,57,depth_duration_stimuli/001100_2014-06-15_17-46-26_260595134347_rgbf000225-resize_2/001100_2014-06-15_17-46-26_260595134347_rgbf000225-resize_2-target.png,1000,2.24,4,3200,993,feet,jsons/v1_VE1000_randls_48.json,808619,905018,35,Woman
57,939289,DepthScenes,duration_manipulation_targetAtFixation,jsons/v1_VE1000_randls_48.json,http://54.235.29.9/FacialAge/BNav_EC2/DepthDuration/v2_depth_duration_MTurk/v2_DepthDuration_HTML.html#259,259,1366,625,1366,768,8-29-2022,9-22-24,58,depth_duration_stimuli/001167_2014-06-17_15-38-07_260595134347_rgbf000108-resize_0/001167_2014-06-17_15-38-07_260595134347_rgbf000108-resize_0-target.png,1000,1.8505,6,3226,999,feet,jsons/v1_VE1000_randls_48.json,808619,905018,35,Woman
58,939289,DepthScenes,duration_manipulation_targetAtFixation,jsons/v1_VE1000_randls_48.json,http://54.235.29.9/FacialAge/BNav_EC2/DepthDuration/v2_depth_duration_MTurk/v2_DepthDuration_HTML.html#259,259,1366,625,1366,768,8-29-2022,9-22-24,59,depth_duration_stimuli/003587_2014-05-23_16-48-02_094959634447_rgbf002384-resize_2/003587_2014-05-23_16-48-02_094959634447_rgbf002384-resize_2-target.png,1000,1.357,5,3402,994,feet,jsons/v1_VE1000_randls_48.json,808619,905018,35,Woman
59,939289,DepthScenes,duration_manipulation_targetAtFixation,jsons/v1_VE1000_randls_48.json,http://54.235.29.9/FacialAge/BNav_EC2/DepthDuration/v2_depth_duration_MTurk/v2_DepthDuration_HTML.html#259,259,1366,625,1366,768,8-29-2022,9-22-24,60,depth_duration_stimuli/003292_2014-05-14_21-53-49_094959634447_rgbf000100-resize_2/003292_2014-05-14_21-53-49_094959634447_rgbf000100-resize_2-target.png,1000,3.4815,5,2788,991,feet,jsons/v1_VE1000_randls_48.json,808619,905018,35,Woman
60,939289,DepthScenes,duration_manipulation_targetAtFixation,jsons/v1_VE1000_randls_48.json,http://54.235.29.9/FacialAge/BNav_EC2/DepthDuration/v2_depth_duration_MTurk/v2_DepthDuration_HTML.html#259,259,1366,625,1366,768,8-29-2022,9-22-24,61,depth_duration_stimuli/002639_2014-06-24_14-51-37_094959634447_rgbf000074-resize_4/002639_2014-06-24_14-51-37_094959634447_rgbf000074-resize_4-target.png,1000,4.0375,4,3157,1001,feet,jsons/v1_VE1000_randls_48.json,808619,905018,35,Woman
61,939289,DepthScenes,duration_manipulation_targetAtFixation,jsons/v1_VE1000_randls_48.json,http://54.235.29.9/FacialAge/BNav_EC2/DepthDuration/v2_depth_duration_MTurk/v2_DepthDuration_HTML.html#259,259,1366,625,1366,768,8-29-2022,9-22-24,62,depth_duration_stimuli/000917_2014-06-09_22-45-29_260595134347_rgbf000149-resize_3/000917_2014-06-09_22-45-29_260595134347_rgbf000149-resize_3-target.png,1000,4.1865,6,3118,1005,feet,jsons/v1_VE1000_randls_48.json,808619,905018,35,Woman
62,939289,DepthScenes,duration_manipulation_targetAtFixation,jsons/v1_VE1000_randls_48.json,http://54.235.29.9/FacialAge/BNav_EC2/DepthDuration/v2_depth_duration_MTurk/v2_DepthDuration_HTML.html#259,259,1366,625,1366,768,8-29-2022,9-22-24,63,depth_duration_stimuli/002323_2014-06-28_20-01-54_260595134347_rgbf000051-resize_4/002323_2014-06-28_20-01-54_260595134347_rgbf000051-resize_4-target.png,1000,3.7310000000000003,5,2824,997,feet,jsons/v1_VE1000_randls_48.json,808619,905018,35,Woman
63,939289,DepthScenes,duration_manipulation_targetAtFixation,jsons/v1_VE1000_randls_48.json,http://54.235.29.9/FacialAge/BNav_EC2/DepthDuration/v2_depth_duration_MTurk/v2_DepthDuration_HTML.html#259,259,1366,625,1366,768,8-29-2022,9-22-24,64,depth_duration_stimuli/001029_2014-06-08_13-17-57_260595134347_rgbf000065-resize_1/001029_2014-06-08_13-17-57_260595134347_rgbf000065-resize_1-target.png,1000,3.0835,6,3165,993,feet,jsons/v1_VE1000_randls_48.json,808619,905018,35,Woman
64,939289,DepthScenes,duration_manipulation_targetAtFixation,jsons/v1_VE1000_randls_48.json,http://54.235.29.9/FacialAge/BNav_EC2/DepthDuration/v2_depth_duration_MTurk/v2_DepthDuration_HTML.html#259,259,1366,625,1366,768,8-29-2022,9-22-24,65,depth_duration_stimuli/000677_2014-06-08_23-10-32_260595134347_rgbf000158-resize_6/000677_2014-06-08_23-10-32_260595134347_rgbf000158-resize_6-target.png,1000,3.556,7,3743,1001,feet,jsons/v1_VE1000_randls_48.json,808619,905018,35,Woman
65,939289,DepthScenes,duration_manipulation_targetAtFixation,jsons/v1_VE1000_randls_48.json,http://54.235.29.9/FacialAge/BNav_EC2/DepthDuration/v2_depth_duration_MTurk/v2_DepthDuration_HTML.html#259,259,1366,625,1366,768,8-29-2022,9-22-24,66,depth_duration_stimuli/001222_2014-06-17_16-24-06_260595134347_rgbf000073-resize_0/001222_2014-06-17_16-24-06_260595134347_rgbf000073-resize-original.jpg,1000,1.4385,5,3611,1001,feet,jsons/v1_VE1000_randls_48.json,808619,905018,35,Woman
66,939289,DepthScenes,duration_manipulation_targetAtFixation,jsons/v1_VE1000_randls_48.json,http://54.235.29.9/FacialAge/BNav_EC2/DepthDuration/v2_depth_duration_MTurk/v2_DepthDuration_HTML.html#259,259,1366,625,1366,768,8-29-2022,9-22-24,67,depth_duration_stimuli/002549_2014-06-24_13-41-39_094959634447_rgbf000022-resize_3/002549_2014-06-24_13-41-39_094959634447_rgbf000022-resize_3-target.png,1000,1.476,7,3369,999,feet,jsons/v1_VE1000_randls_48.json,808619,905018,35,Woman
67,939289,DepthScenes,duration_manipulation_targetAtFixation,jsons/v1_VE1000_randls_48.json,http://54.235.29.9/FacialAge/BNav_EC2/DepthDuration/v2_depth_duration_MTurk/v2_DepthDuration_HTML.html#259,259,1366,625,1366,768,8-29-2022,9-22-24,68,depth_duration_stimuli/002750_2014-06-22_19-08-03_094959634447_rgbf000094-resize_4/002750_2014-06-22_19-08-03_094959634447_rgbf000094-resize_4-target.png,1000,2.354,8,3406,1009,feet,jsons/v1_VE1000_randls_48.json,808619,905018,35,Woman
68,939289,DepthScenes,duration_manipulation_targetAtFixation,jsons/v1_VE1000_randls_48.json,http://54.235.29.9/FacialAge/BNav_EC2/DepthDuration/v2_depth_duration_MTurk/v2_DepthDuration_HTML.html#259,259,1366,625,1366,768,8-29-2022,9-22-24,69,depth_duration_stimuli/002788_2014-06-22_19-36-03_094959634447_rgbf000088-resize_2/002788_2014-06-22_19-36-03_094959634447_rgbf000088-resize_2-target.png,1000,1.6465,4,3168,1007,feet,jsons/v1_VE1000_randls_48.json,808619,905018,35,Woman
69,939289,DepthScenes,duration_manipulation_targetAtFixation,jsons/v1_VE1000_randls_48.json,http://54.235.29.9/FacialAge/BNav_EC2/DepthDuration/v2_depth_duration_MTurk/v2_DepthDuration_HTML.html#259,259,1366,625,1366,768,8-29-2022,9-22-24,70,depth_duration_stimuli/000749_2014-06-08_21-55-06_260595134347_rgbf000070-resize_2/000749_2014-06-08_21-55-06_260595134347_rgbf000070-resize_2-target.png,1000,2.331,5,2928,1003,feet,jsons/v1_VE1000_randls_48.json,808619,905018,35,Woman
70,939289,DepthScenes,duration_manipulation_targetAtFixation,jsons/v1_VE1000_randls_48.json,http://54.235.29.9/FacialAge/BNav_EC2/DepthDuration/v2_depth_duration_MTurk/v2_DepthDuration_HTML.html#259,259,1366,625,1366,768,8-29-2022,9-22-24,71,depth_duration_stimuli/001011_2014-06-08_23-18-54_260595134347_rgbf000044-resize_4/001011_2014-06-08_23-18-54_260595134347_rgbf000044-resize_4-target.png,1000,2.4730000000000003,6,3142,992,feet,jsons/v1_VE1000_randls_48.json,808619,905018,35,Woman
71,939289,DepthScenes,duration_manipulation_targetAtFixation,jsons/v1_VE1000_randls_48.json,http://54.235.29.9/FacialAge/BNav_EC2/DepthDuration/v2_depth_duration_MTurk/v2_DepthDuration_HTML.html#259,259,1366,625,1366,768,8-29-2022,9-22-24,72,depth_duration_stimuli/002875_2014-06-01_15-19-00_094959634447_rgbf000151-resize_1/002875_2014-06-01_15-19-00_094959634447_rgbf000151-resize_1-target.png,1000,1.9675,7,3054,993,feet,jsons/v1_VE1000_randls_48.json,808619,905018,35,Woman
72,939289,DepthScenes,duration_manipulation_targetAtFixation,jsons/v1_VE1000_randls_48.json,http://54.235.29.9/FacialAge/BNav_EC2/DepthDuration/v2_depth_duration_MTurk/v2_DepthDuration_HTML.html#259,259,1366,625,1366,768,8-29-2022,9-22-24,73,depth_duration_stimuli/002153_2014-06-25_21-27-18_260595134347_rgbf000038-resize_5/002153_2014-06-25_21-27-18_260595134347_rgbf000038-resize_5-target.png,1000,2.505,5,3193,994,feet,jsons/v1_VE1000_randls_48.json,808619,905018,35,Woman
73,939289,DepthScenes,duration_manipulation_targetAtFixation,jsons/v1_VE1000_randls_48.json,http://54.235.29.9/FacialAge/BNav_EC2/DepthDuration/v2_depth_duration_MTurk/v2_DepthDuration_HTML.html#259,259,1366,625,1366,768,8-29-2022,9-22-24,74,depth_duration_stimuli/002660_2014-06-13_15-44-18_094959634447_rgbf001878-resize_2/002660_2014-06-13_15-44-18_094959634447_rgbf001878-resize_2-target.png,1000,3.576,6,3278,1005,feet,jsons/v1_VE1000_randls_48.json,808619,905018,35,Woman
74,939289,DepthScenes,duration_manipulation_targetAtFixation,jsons/v1_VE1000_randls_48.json,http://54.235.29.9/FacialAge/BNav_EC2/DepthDuration/v2_depth_duration_MTurk/v2_DepthDuration_HTML.html#259,259,1366,625,1366,768,8-29-2022,9-22-24,75,depth_duration_stimuli/002570_2014-06-24_13-59-54_094959634447_rgbf000059-resize_0/002570_2014-06-24_13-59-54_094959634447_rgbf000059-resize_0-target.png,1000,4.037,7,2929,995,feet,jsons/v1_VE1000_randls_48.json,808619,905018,35,Woman
75,939289,DepthScenes,duration_manipulation_targetAtFixation,jsons/v1_VE1000_randls_48.json,http://54.235.29.9/FacialAge/BNav_EC2/DepthDuration/v2_depth_duration_MTurk/v2_DepthDuration_HTML.html#259,259,1366,625,1366,768,8-29-2022,9-22-24,76,depth_duration_stimuli/002467_2014-06-28_20-38-07_260595134347_rgbf000026-resize_2/002467_2014-06-28_20-38-07_260595134347_rgbf000026-resize_2-target.png,1000,4.742,7,3931,1001,feet,jsons/v1_VE1000_randls_48.json,808619,905018,35,Woman
76,939289,DepthScenes,duration_manipulation_targetAtFixation,jsons/v1_VE1000_randls_48.json,http://54.235.29.9/FacialAge/BNav_EC2/DepthDuration/v2_depth_duration_MTurk/v2_DepthDuration_HTML.html#259,259,1366,625,1366,768,8-29-2022,9-22-24,77,depth_duration_stimuli/001066_2014-06-08_22-03-20_260595134347_rgbf000066-resize_4/001066_2014-06-08_22-03-20_260595134347_rgbf000066-resize_4-target.png,1000,4.2330000000000005,5,3304,1008,feet,jsons/v1_VE1000_randls_48.json,808619,905018,35,Woman
77,939289,DepthScenes,duration_manipulation_targetAtFixation,jsons/v1_VE1000_randls_48.json,http://54.235.29.9/FacialAge/BNav_EC2/DepthDuration/v2_depth_duration_MTurk/v2_DepthDuration_HTML.html#259,259,1366,625,1366,768,8-29-2022,9-22-24,78,depth_duration_stimuli/000742_2014-06-08_18-48-09_260595134347_rgbf000164-resize_4/000742_2014-06-08_18-48-09_260595134347_rgbf000164-resize_4-target.png,1000,4.632,6,3649,1003,feet,jsons/v1_VE1000_randls_48.json,808619,905018,35,Woman
78,939289,DepthScenes,duration_manipulation_targetAtFixation,jsons/v1_VE1000_randls_48.json,http://54.235.29.9/FacialAge/BNav_EC2/DepthDuration/v2_depth_duration_MTurk/v2_DepthDuration_HTML.html#259,259,1366,625,1366,768,8-29-2022,9-22-24,79,depth_duration_stimuli/000436_2014-06-09_22-25-11_260595134347_rgbf000137-resize_1/000436_2014-06-09_22-25-11_260595134347_rgbf000137-resize_1-target.png,1000,4.0705,7,3527,996,feet,jsons/v1_VE1000_randls_48.json,808619,905018,35,Woman
79,939289,DepthScenes,duration_manipulation_targetAtFixation,jsons/v1_VE1000_randls_48.json,http://54.235.29.9/FacialAge/BNav_EC2/DepthDuration/v2_depth_duration_MTurk/v2_DepthDuration_HTML.html#259,259,1366,625,1366,768,8-29-2022,9-22-24,80,depth_duration_stimuli/002444_2014-06-28_20-32-08_260595134347_rgbf000027-resize_0/002444_2014-06-28_20-32-08_260595134347_rgbf000027-resize_0-target.png,1000,4.388999999999999,7,3840,1000,feet,jsons/v1_VE1000_randls_48.json,808619,905018,35,Woman
80,939289,DepthScenes,duration_manipulation_targetAtFixation,jsons/v1_VE1000_randls_48.json,http://54.235.29.9/FacialAge/BNav_EC2/DepthDuration/v2_depth_duration_MTurk/v2_DepthDuration_HTML.html#259,259,1366,625,1366,768,8-29-2022,9-22-24,81,depth_duration_stimuli/000682_2014-06-08_23-14-58_260595134347_rgbf000041-resize_5/000682_2014-06-08_23-14-58_260595134347_rgbf000041-resize_5-target.png,1000,2.7239999999999998,7,3672,1004,feet,jsons/v1_VE1000_randls_48.json,808619,905018,35,Woman
81,939289,DepthScenes,duration_manipulation_targetAtFixation,jsons/v1_VE1000_randls_48.json,http://54.235.29.9/FacialAge/BNav_EC2/DepthDuration/v2_depth_duration_MTurk/v2_DepthDuration_HTML.html#259,259,1366,625,1366,768,8-29-2022,9-22-24,82,depth_duration_stimuli/001650_2014-06-20_12-09-00_260595134347_rgbf000087-resize_3/001650_2014-06-20_12-09-00_260595134347_rgbf000087-resize_3-target.png,1000,1.9505,4,3086,1000,feet,jsons/v1_VE1000_randls_48.json,808619,905018,35,Woman
82,939289,DepthScenes,duration_manipulation_targetAtFixation,jsons/v1_VE1000_randls_48.json,http://54.235.29.9/FacialAge/BNav_EC2/DepthDuration/v2_depth_duration_MTurk/v2_DepthDuration_HTML.html#259,259,1366,625,1366,768,8-29-2022,9-22-24,83,depth_duration_stimuli/001092_2014-06-15_17-34-58_260595134347_rgbf000171-resize_3/001092_2014-06-15_17-34-58_260595134347_rgbf000171-resize_3-target.png,1000,2.6935,5,3383,998,feet,jsons/v1_VE1000_randls_48.json,808619,905018,35,Woman
83,939289,DepthScenes,duration_manipulation_targetAtFixation,jsons/v1_VE1000_randls_48.json,http://54.235.29.9/FacialAge/BNav_EC2/DepthDuration/v2_depth_duration_MTurk/v2_DepthDuration_HTML.html#259,259,1366,625,1366,768,8-29-2022,9-22-24,84,depth_duration_stimuli/002545_2014-06-24_13-38-53_094959634447_rgbf000080-resize_4/002545_2014-06-24_13-38-53_094959634447_rgbf000080-resize_4-target.png,1000,1.9205,7,3469,998,feet,jsons/v1_VE1000_randls_48.json,808619,905018,35,Woman
84,939289,DepthScenes,duration_manipulation_targetAtFixation,jsons/v1_VE1000_randls_48.json,http://54.235.29.9/FacialAge/BNav_EC2/DepthDuration/v2_depth_duration_MTurk/v2_DepthDuration_HTML.html#259,259,1366,625,1366,768,8-29-2022,9-22-24,85,depth_duration_stimuli/000486_2014-06-09_20-47-20_260595134347_rgbf000143-resize_2/000486_2014-06-09_20-47-20_260595134347_rgbf000143-resize_2-target.png,1000,4.8325,6,3146,993,feet,jsons/v1_VE1000_randls_48.json,808619,905018,35,Woman
85,939289,DepthScenes,duration_manipulation_targetAtFixation,jsons/v1_VE1000_randls_48.json,http://54.235.29.9/FacialAge/BNav_EC2/DepthDuration/v2_depth_duration_MTurk/v2_DepthDuration_HTML.html#259,259,1366,625,1366,768,8-29-2022,9-22-24,86,depth_duration_stimuli/003083_2014-06-15_15-21-03_094959634447_rgbf000063-resize_1/003083_2014-06-15_15-21-03_094959634447_rgbf000063-resize_1-target.png,1000,4.1405,5,2849,994,feet,jsons/v1_VE1000_randls_48.json,808619,905018,35,Woman
86,939289,DepthScenes,duration_manipulation_targetAtFixation,jsons/v1_VE1000_randls_48.json,http://54.235.29.9/FacialAge/BNav_EC2/DepthDuration/v2_depth_duration_MTurk/v2_DepthDuration_HTML.html#259,259,1366,625,1366,768,8-29-2022,9-22-24,87,depth_duration_stimuli/002445_2014-06-28_20-32-16_260595134347_rgbf000029-resize_4/002445_2014-06-28_20-32-16_260595134347_rgbf000029-resize_4-target.png,1000,2.5315,5,2976,1005,feet,jsons/v1_VE1000_randls_48.json,808619,905018,35,Woman
87,939289,DepthScenes,duration_manipulation_targetAtFixation,jsons/v1_VE1000_randls_48.json,http://54.235.29.9/FacialAge/BNav_EC2/DepthDuration/v2_depth_duration_MTurk/v2_DepthDuration_HTML.html#259,259,1366,625,1366,768,8-29-2022,9-22-24,88,depth_duration_stimuli/000780_2014-06-08_22-28-29_260595134347_rgbf000126-resize_1/000780_2014-06-08_22-28-29_260595134347_rgbf000126-resize_1-target.png,1000,3.3825,5,4497,993,feet,jsons/v1_VE1000_randls_48.json,808619,905018,35,Woman
88,939289,DepthScenes,duration_manipulation_targetAtFixation,jsons/v1_VE1000_randls_48.json,http://54.235.29.9/FacialAge/BNav_EC2/DepthDuration/v2_depth_duration_MTurk/v2_DepthDuration_HTML.html#259,259,1366,625,1366,768,8-29-2022,9-22-24,89,depth_duration_stimuli/002763_2014-06-22_19-13-10_094959634447_rgbf000075-resize_4/002763_2014-06-22_19-13-10_094959634447_rgbf000075-resize_4-target.png,1000,1.68375,7,3336,993,feet,jsons/v1_VE1000_randls_48.json,808619,905018,35,Woman
89,939289,DepthScenes,duration_manipulation_targetAtFixation,jsons/v1_VE1000_randls_48.json,http://54.235.29.9/FacialAge/BNav_EC2/DepthDuration/v2_depth_duration_MTurk/v2_DepthDuration_HTML.html#259,259,1366,625,1366,768,8-29-2022,9-22-24,90,depth_duration_stimuli/002209_2014-06-28_18-36-10_260595134347_rgbf000051-resize_1/002209_2014-06-28_18-36-10_260595134347_rgbf000051-resize_1-target.png,1000,2.057,6,2725,998,feet,jsons/v1_VE1000_randls_48.json,808619,905018,35,Woman
90,939289,DepthScenes,duration_manipulation_targetAtFixation,jsons/v1_VE1000_randls_48.json,http://54.235.29.9/FacialAge/BNav_EC2/DepthDuration/v2_depth_duration_MTurk/v2_DepthDuration_HTML.html#259,259,1366,625,1366,768,8-29-2022,9-22-24,91,depth_duration_stimuli/001570_2014-06-20_17-21-09_260595134347_rgbf000135-resize_4/001570_2014-06-20_17-21-09_260595134347_rgbf000135-resize_4-target.png,1000,4.467,5,2932,1004,feet,jsons/v1_VE1000_randls_48.json,808619,905018,35,Woman
91,939289,DepthScenes,duration_manipulation_targetAtFixation,jsons/v1_VE1000_randls_48.json,http://54.235.29.9/FacialAge/BNav_EC2/DepthDuration/v2_depth_duration_MTurk/v2_DepthDuration_HTML.html#259,259,1366,625,1366,768,8-29-2022,9-22-24,92,depth_duration_stimuli/001392_2014-06-19_16-07-59_260595134347_rgbf000046-resize_1/001392_2014-06-19_16-07-59_260595134347_rgbf000046-resize_1-target.png,1000,4.135,7,3315,1004,feet,jsons/v1_VE1000_randls_48.json,808619,905018,35,Woman
92,939289,DepthScenes,duration_manipulation_targetAtFixation,jsons/v1_VE1000_randls_48.json,http://54.235.29.9/FacialAge/BNav_EC2/DepthDuration/v2_depth_duration_MTurk/v2_DepthDuration_HTML.html#259,259,1366,625,1366,768,8-29-2022,9-22-24,93,depth_duration_stimuli/001175_2014-06-17_15-45-55_260595134347_rgbf000129-resize_4/001175_2014-06-17_15-45-55_260595134347_rgbf000129-resize_4-target.png,1000,4.255,5,2635,994,feet,jsons/v1_VE1000_randls_48.json,808619,905018,35,Woman
93,939289,DepthScenes,duration_manipulation_targetAtFixation,jsons/v1_VE1000_randls_48.json,http://54.235.29.9/FacialAge/BNav_EC2/DepthDuration/v2_depth_duration_MTurk/v2_DepthDuration_HTML.html#259,259,1366,625,1366,768,8-29-2022,9-22-24,94,depth_duration_stimuli/003490_2014-05-21_15-50-11_094959634447_rgbf000101-resize_3/003490_2014-05-21_15-50-11_094959634447_rgbf000101-resize_3-target.png,1000,3.6445,4,2841,988,feet,jsons/v1_VE1000_randls_48.json,808619,905018,35,Woman
94,939289,DepthScenes,duration_manipulation_targetAtFixation,jsons/v1_VE1000_randls_48.json,http://54.235.29.9/FacialAge/BNav_EC2/DepthDuration/v2_depth_duration_MTurk/v2_DepthDuration_HTML.html#259,259,1366,625,1366,768,8-29-2022,9-22-24,95,depth_duration_stimuli/000692_2014-06-08_13-09-42_260595134347_rgbf000199-resize_2/000692_2014-06-08_13-09-42_260595134347_rgbf000199-resize_2-target.png,1000,3.661,5,4559,1010,feet,jsons/v1_VE1000_randls_48.json,808619,905018,35,Woman
95,939289,DepthScenes,duration_manipulation_targetAtFixation,jsons/v1_VE1000_randls_48.json,http://54.235.29.9/FacialAge/BNav_EC2/DepthDuration/v2_depth_duration_MTurk/v2_DepthDuration_HTML.html#259,259,1366,625,1366,768,8-29-2022,9-22-24,96,depth_duration_stimuli/001094_2014-06-15_17-36-00_260595134347_rgbf000205-resize_0/001094_2014-06-15_17-36-00_260595134347_rgbf000205-resize_0-target.png,1000,4.2175,6,3136,982,feet,jsons/v1_VE1000_randls_48.json,808619,905018,35,Woman
96,939289,DepthScenes,duration_manipulation_targetAtFixation,jsons/v1_VE1000_randls_48.json,http://54.235.29.9/FacialAge/BNav_EC2/DepthDuration/v2_depth_duration_MTurk/v2_DepthDuration_HTML.html#259,259,1366,625,1366,768,8-29-2022,9-22-24,97,depth_duration_stimuli/000810_2014-06-08_17-20-01_260595134347_rgbf000105-resize_0/000810_2014-06-08_17-20-01_260595134347_rgbf000105-resize_0-target.png,1000,1.4865,8,3786,1005,feet,jsons/v1_VE1000_randls_48.json,808619,905018,35,Woman
97,939289,DepthScenes,duration_manipulation_targetAtFixation,jsons/v1_VE1000_randls_48.json,http://54.235.29.9/FacialAge/BNav_EC2/DepthDuration/v2_depth_duration_MTurk/v2_DepthDuration_HTML.html#259,259,1366,625,1366,768,8-29-2022,9-22-24,98,depth_duration_stimuli/001214_2014-06-17_16-13-55_260595134347_rgbf000111-resize_0/001214_2014-06-17_16-13-55_260595134347_rgbf000111-resize_0-target.png,1000,2.6505,5,2895,986,feet,jsons/v1_VE1000_randls_48.json,808619,905018,35,Woman
98,939289,DepthScenes,duration_manipulation_targetAtFixation,jsons/v1_VE1000_randls_48.json,http://54.235.29.9/FacialAge/BNav_EC2/DepthDuration/v2_depth_duration_MTurk/v2_DepthDuration_HTML.html#259,259,1366,625,1366,768,8-29-2022,9-22-24,99,depth_duration_stimuli/001540_2014-06-20_17-01-05_260595134347_rgbf000086-resize_2/001540_2014-06-20_17-01-05_260595134347_rgbf000086-resize-original.jpg,1000,1.459,0,3497,983,feet,jsons/v1_VE1000_randls_48.json,808619,905018,35,Woman
99,939289,DepthScenes,duration_manipulation_targetAtFixation,jsons/v1_VE1000_randls_48.json,http://54.235.29.9/FacialAge/BNav_EC2/DepthDuration/v2_depth_duration_MTurk/v2_DepthDuration_HTML.html#259,259,1366,625,1366,768,8-29-2022,9-22-24,100,depth_duration_stimuli/001016_2014-06-09_16-16-10_260595134347_rgbf000112-resize_5/001016_2014-06-09_16-16-10_260595134347_rgbf000112-resize_5-target.png,1000,1.6565,5,3150,997,feet,jsons/v1_VE1000_randls_48.json,808619,905018,35,Woman
100,939289,DepthScenes,duration_manipulation_targetAtFixation,jsons/v1_VE1000_randls_48.json,http://54.235.29.9/FacialAge/BNav_EC2/DepthDuration/v2_depth_duration_MTurk/v2_DepthDuration_HTML.html#259,259,1366,625,1366,768,8-29-2022,9-22-24,101,depth_duration_stimuli/002340_2014-06-28_20-05-46_260595134347_rgbf000113-resize_0/002340_2014-06-28_20-05-46_260595134347_rgbf000113-resize_0-target.png,1000,2.4735,4,3337,1003,feet,jsons/v1_VE1000_randls_48.json,808619,905018,35,Woman
101,939289,DepthScenes,duration_manipulation_targetAtFixation,jsons/v1_VE1000_randls_48.json,http://54.235.29.9/FacialAge/BNav_EC2/DepthDuration/v2_depth_duration_MTurk/v2_DepthDuration_HTML.html#259,259,1366,625,1366,768,8-29-2022,9-22-24,102,depth_duration_stimuli/000739_2014-06-08_18-45-58_260595134347_rgbf000068-resize_1/000739_2014-06-08_18-45-58_260595134347_rgbf000068-resize_1-target.png,1000,3.534,6,3482,1000,feet,jsons/v1_VE1000_randls_48.json,808619,905018,35,Woman
102,939289,DepthScenes,duration_manipulation_targetAtFixation,jsons/v1_VE1000_randls_48.json,http://54.235.29.9/FacialAge/BNav_EC2/DepthDuration/v2_depth_duration_MTurk/v2_DepthDuration_HTML.html#259,259,1366,625,1366,768,8-29-2022,9-22-24,103,depth_duration_stimuli/000734_2014-06-08_17-39-11_260595134347_rgbf000128-resize_2/000734_2014-06-08_17-39-11_260595134347_rgbf000128-resize_2-target.png,1000,4.098,6,2767,1012,feet,jsons/v1_VE1000_randls_48.json,808619,905018,35,Woman
103,939289,DepthScenes,duration_manipulation_targetAtFixation,jsons/v1_VE1000_randls_48.json,http://54.235.29.9/FacialAge/BNav_EC2/DepthDuration/v2_depth_duration_MTurk/v2_DepthDuration_HTML.html#259,259,1366,625,1366,768,8-29-2022,9-22-24,104,depth_duration_stimuli/000009_2014-05-26_14-32-05_260595134347_rgbf000034-resize_3/000009_2014-05-26_14-32-05_260595134347_rgbf000034-resize_3-target.png,1000,3.8715,7,3221,1003,feet,jsons/v1_VE1000_randls_48.json,808619,905018,35,Woman
104,939289,DepthScenes,duration_manipulation_targetAtFixation,jsons/v1_VE1000_randls_48.json,http://54.235.29.9/FacialAge/BNav_EC2/DepthDuration/v2_depth_duration_MTurk/v2_DepthDuration_HTML.html#259,259,1366,625,1366,768,8-29-2022,9-22-24,105,depth_duration_stimuli/001828_2014-06-26_21-40-03_260595134347_rgbf000024-resize_0/001828_2014-06-26_21-40-03_260595134347_rgbf000024-resize_0-target.png,1000,4.8260000000000005,6,3070,998,feet,jsons/v1_VE1000_randls_48.json,808619,905018,35,Woman
105,939289,DepthScenes,duration_manipulation_targetAtFixation,jsons/v1_VE1000_randls_48.json,http://54.235.29.9/FacialAge/BNav_EC2/DepthDuration/v2_depth_duration_MTurk/v2_DepthDuration_HTML.html#259,259,1366,625,1366,768,8-29-2022,9-22-24,106,depth_duration_stimuli/000506_2014-06-08_23-21-00_260595134347_rgbf000070-resize_7/000506_2014-06-08_23-21-00_260595134347_rgbf000070-resize_7-target.png,1000,4.0585,7,3184,1004,feet,jsons/v1_VE1000_randls_48.json,808619,905018,35,Woman
106,939289,DepthScenes,duration_manipulation_targetAtFixation,jsons/v1_VE1000_randls_48.json,http://54.235.29.9/FacialAge/BNav_EC2/DepthDuration/v2_depth_duration_MTurk/v2_DepthDuration_HTML.html#259,259,1366,625,1366,768,8-29-2022,9-22-24,107,depth_duration_stimuli/003079_2014-06-15_15-18-20_094959634447_rgbf000152-resize_8/003079_2014-06-15_15-18-20_094959634447_rgbf000152-resize_8-target.png,1000,2.8775,8,3503,990,feet,jsons/v1_VE1000_randls_48.json,808619,905018,35,Woman
107,939289,DepthScenes,duration_manipulation_targetAtFixation,jsons/v1_VE1000_randls_48.json,http://54.235.29.9/FacialAge/BNav_EC2/DepthDuration/v2_depth_duration_MTurk/v2_DepthDuration_HTML.html#259,259,1366,625,1366,768,8-29-2022,9-22-24,108,depth_duration_stimuli/000878_2014-06-08_22-52-45_260595134347_rgbf000045-resize_2/000878_2014-06-08_22-52-45_260595134347_rgbf000045-resize_2-target.png,1000,2.092,6,2987,999,feet,jsons/v1_VE1000_randls_48.json,808619,905018,35,Woman
108,939289,DepthScenes,duration_manipulation_targetAtFixation,jsons/v1_VE1000_randls_48.json,http://54.235.29.9/FacialAge/BNav_EC2/DepthDuration/v2_depth_duration_MTurk/v2_DepthDuration_HTML.html#259,259,1366,625,1366,768,8-29-2022,9-22-24,109,depth_duration_stimuli/002953_2014-06-08_17-32-18_094959634447_rgbf000059-resize_5/002953_2014-06-08_17-32-18_094959634447_rgbf000059-resize_5-target.png,1000,1.551,5,3166,1009,feet,jsons/v1_VE1000_randls_48.json,808619,905018,35,Woman
109,939289,DepthScenes,duration_manipulation_targetAtFixation,jsons/v1_VE1000_randls_48.json,http://54.235.29.9/FacialAge/BNav_EC2/DepthDuration/v2_depth_duration_MTurk/v2_DepthDuration_HTML.html#259,259,1366,625,1366,768,8-29-2022,9-22-24,110,depth_duration_stimuli/000470_2014-06-09_19-42-40_260595134347_rgbf000094-resize_1/000470_2014-06-09_19-42-40_260595134347_rgbf000094-resize_1-target.png,1000,1.831,6,2735,1004,feet,jsons/v1_VE1000_randls_48.json,808619,905018,35,Woman
110,939289,DepthScenes,duration_manipulation_targetAtFixation,jsons/v1_VE1000_randls_48.json,http://54.235.29.9/FacialAge/BNav_EC2/DepthDuration/v2_depth_duration_MTurk/v2_DepthDuration_HTML.html#259,259,1366,625,1366,768,8-29-2022,9-22-24,111,depth_duration_stimuli/000109_2014-05-14_23-41-52_260595134347_rgbf000035-resize_9/000109_2014-05-14_23-41-52_260595134347_rgbf000035-resize_9-target.png,1000,1.3545,6,2954,1002,feet,jsons/v1_VE1000_randls_48.json,808619,905018,35,Woman
111,939289,DepthScenes,duration_manipulation_targetAtFixation,jsons/v1_VE1000_randls_48.json,http://54.235.29.9/FacialAge/BNav_EC2/DepthDuration/v2_depth_duration_MTurk/v2_DepthDuration_HTML.html#259,259,1366,625,1366,768,8-29-2022,9-22-24,112,depth_duration_stimuli/000642_2014-06-08_16-59-25_260595134347_rgbf000098-resize_2/000642_2014-06-08_16-59-25_260595134347_rgbf000098-resize_2-target.png,1000,2.8815,5,2582,995,feet,jsons/v1_VE1000_randls_48.json,808619,905018,35,Woman
112,939289,DepthScenes,duration_manipulation_targetAtFixation,jsons/v1_VE1000_randls_48.json,http://54.235.29.9/FacialAge/BNav_EC2/DepthDuration/v2_depth_duration_MTurk/v2_DepthDuration_HTML.html#259,259,1366,625,1366,768,8-29-2022,9-22-24,113,depth_duration_stimuli/002425_2014-06-28_20-27-29_260595134347_rgbf000031-resize_8/002425_2014-06-28_20-27-29_260595134347_rgbf000031-resize_8-target.png,1000,3.8960000000000004,6,2694,1004,feet,jsons/v1_VE1000_randls_48.json,808619,905018,35,Woman
113,939289,DepthScenes,duration_manipulation_targetAtFixation,jsons/v1_VE1000_randls_48.json,http://54.235.29.9/FacialAge/BNav_EC2/DepthDuration/v2_depth_duration_MTurk/v2_DepthDuration_HTML.html#259,259,1366,625,1366,768,8-29-2022,9-22-24,114,depth_duration_stimuli/002964_2014-06-08_17-46-11_094959634447_rgbf000091-resize_4/002964_2014-06-08_17-46-11_094959634447_rgbf000091-resize_4-target.png,1000,1.6909999999999998,5,2898,1002,feet,jsons/v1_VE1000_randls_48.json,808619,905018,35,Woman
114,939289,DepthScenes,duration_manipulation_targetAtFixation,jsons/v1_VE1000_randls_48.json,http://54.235.29.9/FacialAge/BNav_EC2/DepthDuration/v2_depth_duration_MTurk/v2_DepthDuration_HTML.html#259,259,1366,625,1366,768,8-29-2022,9-22-24,115,depth_duration_stimuli/002136_2014-06-25_21-18-03_260595134347_rgbf000109-resize_3/002136_2014-06-25_21-18-03_260595134347_rgbf000109-resize_3-target.png,1000,1.9569999999999999,5,3277,992,feet,jsons/v1_VE1000_randls_48.json,808619,905018,35,Woman
115,939289,DepthScenes,duration_manipulation_targetAtFixation,jsons/v1_VE1000_randls_48.json,http://54.235.29.9/FacialAge/BNav_EC2/DepthDuration/v2_depth_duration_MTurk/v2_DepthDuration_HTML.html#259,259,1366,625,1366,768,8-29-2022,9-22-24,116,depth_duration_stimuli/001170_2014-06-17_15-43-44_260595134347_rgbf000096-resize_6/001170_2014-06-17_15-43-44_260595134347_rgbf000096-resize-original.jpg,1000,1.1909999999999998,0,3815,1010,feet,jsons/v1_VE1000_randls_48.json,808619,905018,35,Woman
116,939289,DepthScenes,duration_manipulation_targetAtFixation,jsons/v1_VE1000_randls_48.json,http://54.235.29.9/FacialAge/BNav_EC2/DepthDuration/v2_depth_duration_MTurk/v2_DepthDuration_HTML.html#259,259,1366,625,1366,768,8-29-2022,9-22-24,117,depth_duration_stimuli/002043_2014-06-24_20-29-38_260595134347_rgbf000039-resize_4/002043_2014-06-24_20-29-38_260595134347_rgbf000039-resize_4-target.png,1000,2.8435,7,3386,1011,feet,jsons/v1_VE1000_randls_48.json,808619,905018,35,Woman
117,939289,DepthScenes,duration_manipulation_targetAtFixation,jsons/v1_VE1000_randls_48.json,http://54.235.29.9/FacialAge/BNav_EC2/DepthDuration/v2_depth_duration_MTurk/v2_DepthDuration_HTML.html#259,259,1366,625,1366,768,8-29-2022,9-22-24,118,depth_duration_stimuli/003048_2014-06-15_13-49-43_094959634447_rgbf000150-resize_1/003048_2014-06-15_13-49-43_094959634447_rgbf000150-resize_1-target.png,1000,4.0035,7,3359,1004,feet,jsons/v1_VE1000_randls_48.json,808619,905018,35,Woman
118,939289,DepthScenes,duration_manipulation_targetAtFixation,jsons/v1_VE1000_randls_48.json,http://54.235.29.9/FacialAge/BNav_EC2/DepthDuration/v2_depth_duration_MTurk/v2_DepthDuration_HTML.html#259,259,1366,625,1366,768,8-29-2022,9-22-24,119,depth_duration_stimuli/002039_2014-06-24_20-22-38_260595134347_rgbf000084-resize_1/002039_2014-06-24_20-22-38_260595134347_rgbf000084-resize_1-target.png,1000,4.408,5,3143,998,feet,jsons/v1_VE1000_randls_48.json,808619,905018,35,Woman
119,939289,DepthScenes,duration_manipulation_targetAtFixation,jsons/v1_VE1000_randls_48.json,http://54.235.29.9/FacialAge/BNav_EC2/DepthDuration/v2_depth_duration_MTurk/v2_DepthDuration_HTML.html#259,259,1366,625,1366,768,8-29-2022,9-22-24,120,depth_duration_stimuli/002103_2014-06-25_20-00-40_260595134347_rgbf000049-resize_0/002103_2014-06-25_20-00-40_260595134347_rgbf000049-resize_0-target.png,1000,4.105,6,2743,1001,feet,jsons/v1_VE1000_randls_48.json,808619,905018,35,Woman
120,939289,DepthScenes,duration_manipulation_targetAtFixation,jsons/v1_VE1000_randls_48.json,http://54.235.29.9/FacialAge/BNav_EC2/DepthDuration/v2_depth_duration_MTurk/v2_DepthDuration_HTML.html#259,259,1366,625,1366,768,8-29-2022,9-22-24,121,depth_duration_stimuli/003534_2014-05-22_15-06-10_094959634447_rgbf000102-resize_4/003534_2014-05-22_15-06-10_094959634447_rgbf000102-resize_4-target.png,1000,1.426,8,3245,1000,feet,jsons/v1_VE1000_randls_48.json,808619,905018,35,Woman
121,939289,DepthScenes,duration_manipulation_targetAtFixation,jsons/v1_VE1000_randls_48.json,http://54.235.29.9/FacialAge/BNav_EC2/DepthDuration/v2_depth_duration_MTurk/v2_DepthDuration_HTML.html#259,259,1366,625,1366,768,8-29-2022,9-22-24,122,depth_duration_stimuli/002637_2014-06-24_14-51-13_094959634447_rgbf000066-resize_4/002637_2014-06-24_14-51-13_094959634447_rgbf000066-resize_4-target.png,1000,1.9955,8,3626,995,feet,jsons/v1_VE1000_randls_48.json,808619,905018,35,Woman
122,939289,DepthScenes,duration_manipulation_targetAtFixation,jsons/v1_VE1000_randls_48.json,http://54.235.29.9/FacialAge/BNav_EC2/DepthDuration/v2_depth_duration_MTurk/v2_DepthDuration_HTML.html#259,259,1366,625,1366,768,8-29-2022,9-22-24,123,depth_duration_stimuli/001199_2014-06-17_16-03-48_260595134347_rgbf000077-resize_0/001199_2014-06-17_16-03-48_260595134347_rgbf000077-resize_0-target.png,1000,3.4375,7,3232,989,feet,jsons/v1_VE1000_randls_48.json,808619,905018,35,Woman
123,939289,DepthScenes,duration_manipulation_targetAtFixation,jsons/v1_VE1000_randls_48.json,http://54.235.29.9/FacialAge/BNav_EC2/DepthDuration/v2_depth_duration_MTurk/v2_DepthDuration_HTML.html#259,259,1366,625,1366,768,8-29-2022,9-22-24,124,depth_duration_stimuli/000502_2014-06-08_23-02-32_260595134347_rgbf000063-resize_4/000502_2014-06-08_23-02-32_260595134347_rgbf000063-resize_4-target.png,1000,2.431,2,166193,1013,feet,jsons/v1_VE1000_randls_48.json,808619,905018,35,Woman
124,939289,DepthScenes,duration_manipulation_targetAtFixation,jsons/v1_VE1000_randls_48.json,http://54.235.29.9/FacialAge/BNav_EC2/DepthDuration/v2_depth_duration_MTurk/v2_DepthDuration_HTML.html#259,259,1366,625,1366,768,8-29-2022,9-22-24,125,depth_duration_stimuli/000469_2014-06-09_19-42-10_260595134347_rgbf000081-resize_1/000469_2014-06-09_19-42-10_260595134347_rgbf000081-resize_1-target.png,1000,1.652,1,3096,997,feet,jsons/v1_VE1000_randls_48.json,808619,905018,35,Woman
125,939289,DepthScenes,duration_manipulation_targetAtFixation,jsons/v1_VE1000_randls_48.json,http://54.235.29.9/FacialAge/BNav_EC2/DepthDuration/v2_depth_duration_MTurk/v2_DepthDuration_HTML.html#259,259,1366,625,1366,768,8-29-2022,9-22-24,126,depth_duration_stimuli/000483_2014-06-09_20-41-45_260595134347_rgbf000116-resize_4/000483_2014-06-09_20-41-45_260595134347_rgbf000116-resize_4-target.png,1000,1.337,2,2543,985,feet,jsons/v1_VE1000_randls_48.json,808619,905018,35,Woman
126,939289,DepthScenes,duration_manipulation_targetAtFixation,jsons/v1_VE1000_randls_48.json,http://54.235.29.9/FacialAge/BNav_EC2/DepthDuration/v2_depth_duration_MTurk/v2_DepthDuration_HTML.html#259,259,1366,625,1366,768,8-29-2022,9-22-24,127,depth_duration_stimuli/000758_2014-06-08_22-05-08_260595134347_rgbf000085-resize_0/000758_2014-06-08_22-05-08_260595134347_rgbf000085-resize_0-target.png,1000,3.3810000000000002,2,2536,1018,feet,jsons/v1_VE1000_randls_48.json,808619,905018,35,Woman
127,939289,DepthScenes,duration_manipulation_targetAtFixation,jsons/v1_VE1000_randls_48.json,http://54.235.29.9/FacialAge/BNav_EC2/DepthDuration/v2_depth_duration_MTurk/v2_DepthDuration_HTML.html#259,259,1366,625,1366,768,8-29-2022,9-22-24,128,depth_duration_stimuli/000854_2014-06-09_19-43-13_260595134347_rgbf000066-resize_0/000854_2014-06-09_19-43-13_260595134347_rgbf000066-resize_0-target.png,1000,3.068,1,2567,1000,feet,jsons/v1_VE1000_randls_48.json,808619,905018,35,Woman
128,939289,DepthScenes,duration_manipulation_targetAtFixation,jsons/v1_VE1000_randls_48.json,http://54.235.29.9/FacialAge/BNav_EC2/DepthDuration/v2_depth_duration_MTurk/v2_DepthDuration_HTML.html#259,259,1366,625,1366,768,8-29-2022,9-22-24,129,depth_duration_stimuli/002118_2014-06-25_20-32-08_260595134347_rgbf000078-resize_1/002118_2014-06-25_20-32-08_260595134347_rgbf000078-resize_1-target.png,1000,2.6460000000000004,5,2913,992,feet,jsons/v1_VE1000_randls_48.json,808619,905018,35,Woman
129,939289,DepthScenes,duration_manipulation_targetAtFixation,jsons/v1_VE1000_randls_48.json,http://54.235.29.9/FacialAge/BNav_EC2/DepthDuration/v2_depth_duration_MTurk/v2_DepthDuration_HTML.html#259,259,1366,625,1366,768,8-29-2022,9-22-24,130,depth_duration_stimuli/001516_2014-06-20_16-25-09_260595134347_rgbf000076-resize_2/001516_2014-06-20_16-25-09_260595134347_rgbf000076-resize_2-target.png,1000,1.7445,1,2874,989,feet,jsons/v1_VE1000_randls_48.json,808619,905018,35,Woman
130,939289,DepthScenes,duration_manipulation_targetAtFixation,jsons/v1_VE1000_randls_48.json,http://54.235.29.9/FacialAge/BNav_EC2/DepthDuration/v2_depth_duration_MTurk/v2_DepthDuration_HTML.html#259,259,1366,625,1366,768,8-29-2022,9-22-24,131,depth_duration_stimuli/001810_2014-06-26_20-51-35_260595134347_rgbf000040-resize_3/001810_2014-06-26_20-51-35_260595134347_rgbf000040-resize_3-target.png,1000,2.2525,3,2617,995,feet,jsons/v1_VE1000_randls_48.json,808619,905018,35,Woman
131,939289,DepthScenes,duration_manipulation_targetAtFixation,jsons/v1_VE1000_randls_48.json,http://54.235.29.9/FacialAge/BNav_EC2/DepthDuration/v2_depth_duration_MTurk/v2_DepthDuration_HTML.html#259,259,1366,625,1366,768,8-29-2022,9-22-24,132,depth_duration_stimuli/003010_2014-06-15_12-54-35_094959634447_rgbf000112-resize_0/003010_2014-06-15_12-54-35_094959634447_rgbf000112-resize_0-target.png,1000,3.1185,2,2883,996,feet,jsons/v1_VE1000_randls_48.json,808619,905018,35,Woman
132,939289,DepthScenes,duration_manipulation_targetAtFixation,jsons/v1_VE1000_randls_48.json,http://54.235.29.9/FacialAge/BNav_EC2/DepthDuration/v2_depth_duration_MTurk/v2_DepthDuration_HTML.html#259,259,1366,625,1366,768,8-29-2022,9-22-24,133,depth_duration_stimuli/002375_2014-06-28_20-13-44_260595134347_rgbf000032-resize_1/002375_2014-06-28_20-13-44_260595134347_rgbf000032-resize_1-target.png,1000,4.0175,5,2632,988,feet,jsons/v1_VE1000_randls_48.json,808619,905018,35,Woman
133,939289,DepthScenes,duration_manipulation_targetAtFixation,jsons/v1_VE1000_randls_48.json,http://54.235.29.9/FacialAge/BNav_EC2/DepthDuration/v2_depth_duration_MTurk/v2_DepthDuration_HTML.html#259,259,1366,625,1366,768,8-29-2022,9-22-24,134,depth_duration_stimuli/002657_2014-06-13_15-29-54_094959634447_rgbf000150-resize_1/002657_2014-06-13_15-29-54_094959634447_rgbf000150-resize_1-target.png,1000,4.919,2,4340,998,feet,jsons/v1_VE1000_randls_48.json,808619,905018,35,Woman
134,939289,DepthScenes,duration_manipulation_targetAtFixation,jsons/v1_VE1000_randls_48.json,http://54.235.29.9/FacialAge/BNav_EC2/DepthDuration/v2_depth_duration_MTurk/v2_DepthDuration_HTML.html#259,259,1366,625,1366,768,8-29-2022,9-22-24,135,depth_duration_stimuli/002072_2014-06-24_21-48-06_260595134347_rgbf000115-resize_0/002072_2014-06-24_21-48-06_260595134347_rgbf000115-resize-original.jpg,1000,4.702,0,3563,992,feet,jsons/v1_VE1000_randls_48.json,808619,905018,35,Woman
135,939289,DepthScenes,duration_manipulation_targetAtFixation,jsons/v1_VE1000_randls_48.json,http://54.235.29.9/FacialAge/BNav_EC2/DepthDuration/v2_depth_duration_MTurk/v2_DepthDuration_HTML.html#259,259,1366,625,1366,768,8-29-2022,9-22-24,136,depth_duration_stimuli/001244_2014-06-17_16-47-45_260595134347_rgbf000030-resize_4/001244_2014-06-17_16-47-45_260595134347_rgbf000030-resize_4-target.png,1000,2.0425,2,2695,990,feet,jsons/v1_VE1000_randls_48.json,808619,905018,35,Woman
136,939289,DepthScenes,duration_manipulation_targetAtFixation,jsons/v1_VE1000_randls_48.json,http://54.235.29.9/FacialAge/BNav_EC2/DepthDuration/v2_depth_duration_MTurk/v2_DepthDuration_HTML.html#259,259,1366,625,1366,768,8-29-2022,9-22-24,137,depth_duration_stimuli/003495_2014-05-21_16-01-51_094959634447_rgbf000100-resize_3/003495_2014-05-21_16-01-51_094959634447_rgbf000100-resize_3-target.png,1000,1.6255,2,2763,996,feet,jsons/v1_VE1000_randls_48.json,808619,905018,35,Woman
137,939289,DepthScenes,duration_manipulation_targetAtFixation,jsons/v1_VE1000_randls_48.json,http://54.235.29.9/FacialAge/BNav_EC2/DepthDuration/v2_depth_duration_MTurk/v2_DepthDuration_HTML.html#259,259,1366,625,1366,768,8-29-2022,9-22-24,138,depth_duration_stimuli/001806_2014-06-26_20-50-20_260595134347_rgbf000091-resize_1/001806_2014-06-26_20-50-20_260595134347_rgbf000091-resize_1-target.png,1000,2.7305,1,3206,986,feet,jsons/v1_VE1000_randls_48.json,808619,905018,35,Woman
138,939289,DepthScenes,duration_manipulation_targetAtFixation,jsons/v1_VE1000_randls_48.json,http://54.235.29.9/FacialAge/BNav_EC2/DepthDuration/v2_depth_duration_MTurk/v2_DepthDuration_HTML.html#259,259,1366,625,1366,768,8-29-2022,9-22-24,139,depth_duration_stimuli/001617_2014-06-20_11-35-32_260595134347_rgbf000066-resize_1/001617_2014-06-20_11-35-32_260595134347_rgbf000066-resize_1-target.png,1000,3.7910000000000004,1,2850,999,feet,jsons/v1_VE1000_randls_48.json,808619,905018,35,Woman
139,939289,DepthScenes,duration_manipulation_targetAtFixation,jsons/v1_VE1000_randls_48.json,http://54.235.29.9/FacialAge/BNav_EC2/DepthDuration/v2_depth_duration_MTurk/v2_DepthDuration_HTML.html#259,259,1366,625,1366,768,8-29-2022,9-22-24,140,depth_duration_stimuli/001150_2014-06-17_15-27-34_260595134347_rgbf000108-resize_2/001150_2014-06-17_15-27-34_260595134347_rgbf000108-resize_2-target.png,1000,4.0325,2,2595,990,feet,jsons/v1_VE1000_randls_48.json,808619,905018,35,Woman
140,939289,DepthScenes,duration_manipulation_targetAtFixation,jsons/v1_VE1000_randls_48.json,http://54.235.29.9/FacialAge/BNav_EC2/DepthDuration/v2_depth_duration_MTurk/v2_DepthDuration_HTML.html#259,259,1366,625,1366,768,8-29-2022,9-22-24,141,depth_duration_stimuli/000665_2014-06-09_20-42-35_260595134347_rgbf000110-resize_1/000665_2014-06-09_20-42-35_260595134347_rgbf000110-resize_1-target.png,1000,3.057,5,2678,991,feet,jsons/v1_VE1000_randls_48.json,808619,905018,35,Woman
141,939289,DepthScenes,duration_manipulation_targetAtFixation,jsons/v1_VE1000_randls_48.json,http://54.235.29.9/FacialAge/BNav_EC2/DepthDuration/v2_depth_duration_MTurk/v2_DepthDuration_HTML.html#259,259,1366,625,1366,768,8-29-2022,9-22-24,142,depth_duration_stimuli/000522_2014-06-08_13-35-06_260595134347_rgbf000244-resize_1/000522_2014-06-08_13-35-06_260595134347_rgbf000244-resize_1-target.png,1000,2.3715,2,2653,999,feet,jsons/v1_VE1000_randls_48.json,808619,905018,35,Woman
142,939289,DepthScenes,duration_manipulation_targetAtFixation,jsons/v1_VE1000_randls_48.json,http://54.235.29.9/FacialAge/BNav_EC2/DepthDuration/v2_depth_duration_MTurk/v2_DepthDuration_HTML.html#259,259,1366,625,1366,768,8-29-2022,9-22-24,143,depth_duration_stimuli/002949_2014-06-26_15-57-42_094959634447_rgbf000079-resize_1/002949_2014-06-26_15-57-42_094959634447_rgbf000079-resize_1-target.png,1000,1.8915,1,2604,987,feet,jsons/v1_VE1000_randls_48.json,808619,905018,35,Woman
143,939289,DepthScenes,duration_manipulation_targetAtFixation,jsons/v1_VE1000_randls_48.json,http://54.235.29.9/FacialAge/BNav_EC2/DepthDuration/v2_depth_duration_MTurk/v2_DepthDuration_HTML.html#259,259,1366,625,1366,768,8-29-2022,9-22-24,144,depth_duration_stimuli/000906_2014-06-08_13-35-43_260595134347_rgbf000155-resize_1/000906_2014-06-08_13-35-43_260595134347_rgbf000155-resize_1-target.png,1000,2.8489999999999998,2,2962,997,feet,jsons/v1_VE1000_randls_48.json,808619,905018,35,Woman
144,939289,DepthScenes,duration_manipulation_targetAtFixation,jsons/v1_VE1000_randls_48.json,http://54.235.29.9/FacialAge/BNav_EC2/DepthDuration/v2_depth_duration_MTurk/v2_DepthDuration_HTML.html#259,259,1366,625,1366,768,8-29-2022,9-22-24,145,depth_duration_stimuli/002805_2014-06-22_19-54-03_094959634447_rgbf000079-resize_1/002805_2014-06-22_19-54-03_094959634447_rgbf000079-resize_1-target.png,1000,3.1439999999999997,1,3067,1011,feet,jsons/v1_VE1000_randls_48.json,808619,905018,35,Woman
145,939289,DepthScenes,duration_manipulation_targetAtFixation,jsons/v1_VE1000_randls_48.json,http://54.235.29.9/FacialAge/BNav_EC2/DepthDuration/v2_depth_duration_MTurk/v2_DepthDuration_HTML.html#259,259,1366,625,1366,768,8-29-2022,9-22-24,146,depth_duration_stimuli/001498_2014-06-19_17-45-14_260595134347_rgbf000129-resize_4/001498_2014-06-19_17-45-14_260595134347_rgbf000129-resize-original.jpg,1000,1.4075,0,3146,973,feet,jsons/v1_VE1000_randls_48.json,808619,905018,35,Woman
146,939289,DepthScenes,duration_manipulation_targetAtFixation,jsons/v1_VE1000_randls_48.json,http://54.235.29.9/FacialAge/BNav_EC2/DepthDuration/v2_depth_duration_MTurk/v2_DepthDuration_HTML.html#259,259,1366,625,1366,768,8-29-2022,9-22-24,147,depth_duration_stimuli/001449_2014-06-19_17-01-27_260595134347_rgbf000116-resize_2/001449_2014-06-19_17-01-27_260595134347_rgbf000116-resize_2-target.png,1000,3.452,2,3050,975,feet,jsons/v1_VE1000_randls_48.json,808619,905018,35,Woman
147,939289,DepthScenes,duration_manipulation_targetAtFixation,jsons/v1_VE1000_randls_48.json,http://54.235.29.9/FacialAge/BNav_EC2/DepthDuration/v2_depth_duration_MTurk/v2_DepthDuration_HTML.html#259,259,1366,625,1366,768,8-29-2022,9-22-24,148,depth_duration_stimuli/001450_2014-06-19_17-02-03_260595134347_rgbf000203-resize_4/001450_2014-06-19_17-02-03_260595134347_rgbf000203-resize_4-target.png,1000,4.0106666666667,1,2898,1001,feet,jsons/v1_VE1000_randls_48.json,808619,905018,35,Woman
148,939289,DepthScenes,duration_manipulation_targetAtFixation,jsons/v1_VE1000_randls_48.json,http://54.235.29.9/FacialAge/BNav_EC2/DepthDuration/v2_depth_duration_MTurk/v2_DepthDuration_HTML.html#259,259,1366,625,1366,768,8-29-2022,9-22-24,149,depth_duration_stimuli/002988_2014-06-15_12-24-20_094959634447_rgbf000150-resize_1/002988_2014-06-15_12-24-20_094959634447_rgbf000150-resize_1-target.png,1000,4.7669999999999995,2,2564,1001,feet,jsons/v1_VE1000_randls_48.json,808619,905018,35,Woman
149,939289,DepthScenes,duration_manipulation_targetAtFixation,jsons/v1_VE1000_randls_48.json,http://54.235.29.9/FacialAge/BNav_EC2/DepthDuration/v2_depth_duration_MTurk/v2_DepthDuration_HTML.html#259,259,1366,625,1366,768,8-29-2022,9-22-24,150,depth_duration_stimuli/001052_2014-06-08_18-24-54_260595134347_rgbf000130-resize_1/001052_2014-06-08_18-24-54_260595134347_rgbf000130-resize_1-target.png,1000,4.1045,2,2597,1004,feet,jsons/v1_VE1000_randls_48.json,808619,905018,35,Woman
150,939289,DepthScenes,duration_manipulation_targetAtFixation,jsons/v1_VE1000_randls_48.json,http://54.235.29.9/FacialAge/BNav_EC2/DepthDuration/v2_depth_duration_MTurk/v2_DepthDuration_HTML.html#259,259,1366,625,1366,768,8-29-2022,9-22-24,151,depth_duration_stimuli/002905_2014-06-03_18-04-43_094959634447_rgbf000151-resize_2/002905_2014-06-03_18-04-43_094959634447_rgbf000151-resize_2-target.png,1000,2.0295,1,2762,994,feet,jsons/v1_VE1000_randls_48.json,808619,905018,35,Woman
151,939289,DepthScenes,duration_manipulation_targetAtFixation,jsons/v1_VE1000_randls_48.json,http://54.235.29.9/FacialAge/BNav_EC2/DepthDuration/v2_depth_duration_MTurk/v2_DepthDuration_HTML.html#259,259,1366,625,1366,768,8-29-2022,9-22-24,152,depth_duration_stimuli/003423_2014-05-21_10-23-26_094959634447_rgbf002665-resize_2/003423_2014-05-21_10-23-26_094959634447_rgbf002665-resize_2-target.png,1000,3.2575,2,3603,1005,feet,jsons/v1_VE1000_randls_48.json,808619,905018,35,Woman
152,939289,DepthScenes,duration_manipulation_targetAtFixation,jsons/v1_VE1000_randls_48.json,http://54.235.29.9/FacialAge/BNav_EC2/DepthDuration/v2_depth_duration_MTurk/v2_DepthDuration_HTML.html#259,259,1366,625,1366,768,8-29-2022,9-22-24,153,depth_duration_stimuli/002213_2014-06-28_18-37-58_260595134347_rgbf000055-resize_1/002213_2014-06-28_18-37-58_260595134347_rgbf000055-resize_1-target.png,1000,3.62,4,3119,1000,feet,jsons/v1_VE1000_randls_48.json,808619,905018,35,Woman
153,939289,DepthScenes,duration_manipulation_targetAtFixation,jsons/v1_VE1000_randls_48.json,http://54.235.29.9/FacialAge/BNav_EC2/DepthDuration/v2_depth_duration_MTurk/v2_DepthDuration_HTML.html#259,259,1366,625,1366,768,8-29-2022,9-22-24,154,depth_duration_stimuli/000691_2014-06-08_13-08-50_260595134347_rgbf000132-resize_3/000691_2014-06-08_13-08-50_260595134347_rgbf000132-resize_3-target.png,1000,4.1530000000000005,2,2678,1000,feet,jsons/v1_VE1000_randls_48.json,808619,905018,35,Woman
154,939289,DepthScenes,duration_manipulation_targetAtFixation,jsons/v1_VE1000_randls_48.json,http://54.235.29.9/FacialAge/BNav_EC2/DepthDuration/v2_depth_duration_MTurk/v2_DepthDuration_HTML.html#259,259,1366,625,1366,768,8-29-2022,9-22-24,155,depth_duration_stimuli/000447_2014-06-08_16-15-46_260595134347_rgbf000130-resize_1/000447_2014-06-08_16-15-46_260595134347_rgbf000130-resize_1-target.png,1000,4.479,2,2550,996,feet,jsons/v1_VE1000_randls_48.json,808619,905018,35,Woman
155,939289,DepthScenes,duration_manipulation_targetAtFixation,jsons/v1_VE1000_randls_48.json,http://54.235.29.9/FacialAge/BNav_EC2/DepthDuration/v2_depth_duration_MTurk/v2_DepthDuration_HTML.html#259,259,1366,625,1366,768,8-29-2022,9-22-24,156,depth_duration_stimuli/001447_2014-06-19_17-00-32_260595134347_rgbf000082-resize_5/001447_2014-06-19_17-00-32_260595134347_rgbf000082-resize_5-target.png,1000,4.13775,2,2961,1001,feet,jsons/v1_VE1000_randls_48.json,808619,905018,35,Woman
156,939289,DepthScenes,duration_manipulation_targetAtFixation,jsons/v1_VE1000_randls_48.json,http://54.235.29.9/FacialAge/BNav_EC2/DepthDuration/v2_depth_duration_MTurk/v2_DepthDuration_HTML.html#259,259,1366,625,1366,768,8-29-2022,9-22-24,157,depth_duration_stimuli/002600_2014-06-24_14-27-04_094959634447_rgbf000074-resize_2/002600_2014-06-24_14-27-04_094959634447_rgbf000074-resize_2-target.png,1000,2.7575,2,2596,998,feet,jsons/v1_VE1000_randls_48.json,808619,905018,35,Woman
157,939289,DepthScenes,duration_manipulation_targetAtFixation,jsons/v1_VE1000_randls_48.json,http://54.235.29.9/FacialAge/BNav_EC2/DepthDuration/v2_depth_duration_MTurk/v2_DepthDuration_HTML.html#259,259,1366,625,1366,768,8-29-2022,9-22-24,158,depth_duration_stimuli/003228_2014-05-14_13-42-35_094959634447_rgbf000101-resize_1/003228_2014-05-14_13-42-35_094959634447_rgbf000101-resize_1-target.png,1000,1.9680000000000002,1,2862,1007,feet,jsons/v1_VE1000_randls_48.json,808619,905018,35,Woman
158,939289,DepthScenes,duration_manipulation_targetAtFixation,jsons/v1_VE1000_randls_48.json,http://54.235.29.9/FacialAge/BNav_EC2/DepthDuration/v2_depth_duration_MTurk/v2_DepthDuration_HTML.html#259,259,1366,625,1366,768,8-29-2022,9-22-24,159,depth_duration_stimuli/002630_2014-06-24_14-47-50_094959634447_rgbf000055-resize_1/002630_2014-06-24_14-47-50_094959634447_rgbf000055-resize_1-target.png,1000,3.0095,2,2670,1010,feet,jsons/v1_VE1000_randls_48.json,808619,905018,35,Woman
159,939289,DepthScenes,duration_manipulation_targetAtFixation,jsons/v1_VE1000_randls_48.json,http://54.235.29.9/FacialAge/BNav_EC2/DepthDuration/v2_depth_duration_MTurk/v2_DepthDuration_HTML.html#259,259,1366,625,1366,768,8-29-2022,9-22-24,160,depth_duration_stimuli/002758_2014-06-22_19-11-20_094959634447_rgbf000128-resize_1/002758_2014-06-22_19-11-20_094959634447_rgbf000128-resize_1-target.png,1000,2.555,2,2641,977,feet,jsons/v1_VE1000_randls_48.json,808619,905018,35,Woman
160,939289,DepthScenes,duration_manipulation_targetAtFixation,jsons/v1_VE1000_randls_48.json,http://54.235.29.9/FacialAge/BNav_EC2/DepthDuration/v2_depth_duration_MTurk/v2_DepthDuration_HTML.html#259,259,1366,625,1366,768,8-29-2022,9-22-24,161,depth_duration_stimuli/002279_2014-06-28_18-55-32_260595134347_rgbf000040-resize_5/002279_2014-06-28_18-55-32_260595134347_rgbf000040-resize_5-target.png,1000,1.5043333333333,2,2996,1002,feet,jsons/v1_VE1000_randls_48.json,808619,905018,35,Woman
161,939289,DepthScenes,duration_manipulation_targetAtFixation,jsons/v1_VE1000_randls_48.json,http://54.235.29.9/FacialAge/BNav_EC2/DepthDuration/v2_depth_duration_MTurk/v2_DepthDuration_HTML.html#259,259,1366,625,1366,768,8-29-2022,9-22-24,162,depth_duration_stimuli/000635_2014-06-08_16-38-42_260595134347_rgbf000106-resize_1/000635_2014-06-08_16-38-42_260595134347_rgbf000106-resize_1-target.png,1000,2.074,1,2428,993,feet,jsons/v1_VE1000_randls_48.json,808619,905018,35,Woman
162,939289,DepthScenes,duration_manipulation_targetAtFixation,jsons/v1_VE1000_randls_48.json,http://54.235.29.9/FacialAge/BNav_EC2/DepthDuration/v2_depth_duration_MTurk/v2_DepthDuration_HTML.html#259,259,1366,625,1366,768,8-29-2022,9-22-24,163,depth_duration_stimuli/002057_2014-06-24_21-00-13_260595134347_rgbf000120-resize_1/002057_2014-06-24_21-00-13_260595134347_rgbf000120-resize_1-target.png,1000,2.967,2,2708,990,feet,jsons/v1_VE1000_randls_48.json,808619,905018,35,Woman
163,939289,DepthScenes,duration_manipulation_targetAtFixation,jsons/v1_VE1000_randls_48.json,http://54.235.29.9/FacialAge/BNav_EC2/DepthDuration/v2_depth_duration_MTurk/v2_DepthDuration_HTML.html#259,259,1366,625,1366,768,8-29-2022,9-22-24,164,depth_duration_stimuli/000709_2014-06-08_13-51-55_260595134347_rgbf000068-resize_3/000709_2014-06-08_13-51-55_260595134347_rgbf000068-resize_3-target.png,1000,1.8030000000000002,1,3056,1002,feet,jsons/v1_VE1000_randls_48.json,808619,905018,35,Woman
