,subjID,experimentName,versionName,sequenceName,url,selected_row,windowWidth,windowHeight,screenWidth,screenHeight,startDate,startTime,trial,stimulus,duration,actual_depth,depth_estimate,trial_RT,log_sceneDuration,unitSelection,seq_filepath,experimentTime,totalTime,age,gender
0,939925,DepthScenes,duration_manipulation_targetAtFixation,jsons/v1_VE1000_randls_9.json,http://54.235.29.9/FacialAge/BNav_EC2/DepthDuration/v2_depth_duration_MTurk/v2_DepthDuration_HTML.html#125,125,1024,625,1024,768,8-22-2022,12-0-7,1,depth_duration_stimuli/000470_2014-06-09_19-42-40_260595134347_rgbf000094-resize_1/000470_2014-06-09_19-42-40_260595134347_rgbf000094-resize_1-target.png,1000,1.831,2,5036,986,feet,jsons/v1_VE1000_randls_9.json,1973462,2298787,30,Woman
1,939925,DepthScenes,duration_manipulation_targetAtFixation,jsons/v1_VE1000_randls_9.json,http://54.235.29.9/FacialAge/BNav_EC2/DepthDuration/v2_depth_duration_MTurk/v2_DepthDuration_HTML.html#125,125,1024,625,1024,768,8-22-2022,12-0-7,2,depth_duration_stimuli/000109_2014-05-14_23-41-52_260595134347_rgbf000035-resize_9/000109_2014-05-14_23-41-52_260595134347_rgbf000035-resize_9-target.png,1000,1.3545,5,5703,1026,feet,jsons/v1_VE1000_randls_9.json,1973462,2298787,30,Woman
2,939925,DepthScenes,duration_manipulation_targetAtFixation,jsons/v1_VE1000_randls_9.json,http://54.235.29.9/FacialAge/BNav_EC2/DepthDuration/v2_depth_duration_MTurk/v2_DepthDuration_HTML.html#125,125,1024,625,1024,768,8-22-2022,12-0-7,3,depth_duration_stimuli/000758_2014-06-08_22-05-08_260595134347_rgbf000085-resize_0/000758_2014-06-08_22-05-08_260595134347_rgbf000085-resize_0-target.png,1000,3.3810000000000002,3,6038,933,feet,jsons/v1_VE1000_randls_9.json,1973462,2298787,30,Woman
3,939925,DepthScenes,duration_manipulation_targetAtFixation,jsons/v1_VE1000_randls_9.json,http://54.235.29.9/FacialAge/BNav_EC2/DepthDuration/v2_depth_duration_MTurk/v2_DepthDuration_HTML.html#125,125,1024,625,1024,768,8-22-2022,12-0-7,4,depth_duration_stimuli/000854_2014-06-09_19-43-13_260595134347_rgbf000066-resize_0/000854_2014-06-09_19-43-13_260595134347_rgbf000066-resize_0-target.png,1000,3.068,4,13490,1000,feet,jsons/v1_VE1000_randls_9.json,1973462,2298787,30,Woman
4,939925,DepthScenes,duration_manipulation_targetAtFixation,jsons/v1_VE1000_randls_9.json,http://54.235.29.9/FacialAge/BNav_EC2/DepthDuration/v2_depth_duration_MTurk/v2_DepthDuration_HTML.html#125,125,1024,625,1024,768,8-22-2022,12-0-7,5,depth_duration_stimuli/002905_2014-06-03_18-04-43_094959634447_rgbf000151-resize_2/002905_2014-06-03_18-04-43_094959634447_rgbf000151-resize_2-target.png,1000,2.0295,3,3983,997,feet,jsons/v1_VE1000_randls_9.json,1973462,2298787,30,Woman
5,939925,DepthScenes,duration_manipulation_targetAtFixation,jsons/v1_VE1000_randls_9.json,http://54.235.29.9/FacialAge/BNav_EC2/DepthDuration/v2_depth_duration_MTurk/v2_DepthDuration_HTML.html#125,125,1024,625,1024,768,8-22-2022,12-0-7,6,depth_duration_stimuli/003423_2014-05-21_10-23-26_094959634447_rgbf002665-resize_2/003423_2014-05-21_10-23-26_094959634447_rgbf002665-resize_2-target.png,1000,3.2575,4,6194,996,feet,jsons/v1_VE1000_randls_9.json,1973462,2298787,30,Woman
6,939925,DepthScenes,duration_manipulation_targetAtFixation,jsons/v1_VE1000_randls_9.json,http://54.235.29.9/FacialAge/BNav_EC2/DepthDuration/v2_depth_duration_MTurk/v2_DepthDuration_HTML.html#125,125,1024,625,1024,768,8-22-2022,12-0-7,7,depth_duration_stimuli/002118_2014-06-25_20-32-08_260595134347_rgbf000078-resize_1/002118_2014-06-25_20-32-08_260595134347_rgbf000078-resize_1-target.png,1000,2.6460000000000004,4,6979,845,feet,jsons/v1_VE1000_randls_9.json,1973462,2298787,30,Woman
7,939925,DepthScenes,duration_manipulation_targetAtFixation,jsons/v1_VE1000_randls_9.json,http://54.235.29.9/FacialAge/BNav_EC2/DepthDuration/v2_depth_duration_MTurk/v2_DepthDuration_HTML.html#125,125,1024,625,1024,768,8-22-2022,12-0-7,8,depth_duration_stimuli/001516_2014-06-20_16-25-09_260595134347_rgbf000076-resize_2/001516_2014-06-20_16-25-09_260595134347_rgbf000076-resize_2-target.png,1000,1.7445,4,9644,1006,feet,jsons/v1_VE1000_randls_9.json,1973462,2298787,30,Woman
8,939925,DepthScenes,duration_manipulation_targetAtFixation,jsons/v1_VE1000_randls_9.json,http://54.235.29.9/FacialAge/BNav_EC2/DepthDuration/v2_depth_duration_MTurk/v2_DepthDuration_HTML.html#125,125,1024,625,1024,768,8-22-2022,12-0-7,9,depth_duration_stimuli/002549_2014-06-24_13-41-39_094959634447_rgbf000022-resize_3/002549_2014-06-24_13-41-39_094959634447_rgbf000022-resize_3-target.png,1000,1.476,3,6727,1006,feet,jsons/v1_VE1000_randls_9.json,1973462,2298787,30,Woman
9,939925,DepthScenes,duration_manipulation_targetAtFixation,jsons/v1_VE1000_randls_9.json,http://54.235.29.9/FacialAge/BNav_EC2/DepthDuration/v2_depth_duration_MTurk/v2_DepthDuration_HTML.html#125,125,1024,625,1024,768,8-22-2022,12-0-7,10,depth_duration_stimuli/002750_2014-06-22_19-08-03_094959634447_rgbf000094-resize_4/002750_2014-06-22_19-08-03_094959634447_rgbf000094-resize_4-target.png,1000,2.354,6,5784,1004,feet,jsons/v1_VE1000_randls_9.json,1973462,2298787,30,Woman
10,939925,DepthScenes,duration_manipulation_targetAtFixation,jsons/v1_VE1000_randls_9.json,http://54.235.29.9/FacialAge/BNav_EC2/DepthDuration/v2_depth_duration_MTurk/v2_DepthDuration_HTML.html#125,125,1024,625,1024,768,8-22-2022,12-0-7,11,depth_duration_stimuli/000469_2014-06-09_19-42-10_260595134347_rgbf000081-resize_1/000469_2014-06-09_19-42-10_260595134347_rgbf000081-resize_1-target.png,1000,1.652,2,5409,859,feet,jsons/v1_VE1000_randls_9.json,1973462,2298787,30,Woman
11,939925,DepthScenes,duration_manipulation_targetAtFixation,jsons/v1_VE1000_randls_9.json,http://54.235.29.9/FacialAge/BNav_EC2/DepthDuration/v2_depth_duration_MTurk/v2_DepthDuration_HTML.html#125,125,1024,625,1024,768,8-22-2022,12-0-7,12,depth_duration_stimuli/000483_2014-06-09_20-41-45_260595134347_rgbf000116-resize_4/000483_2014-06-09_20-41-45_260595134347_rgbf000116-resize_4-target.png,1000,1.337,4,5751,1000,feet,jsons/v1_VE1000_randls_9.json,1973462,2298787,30,Woman
12,939925,DepthScenes,duration_manipulation_targetAtFixation,jsons/v1_VE1000_randls_9.json,http://54.235.29.9/FacialAge/BNav_EC2/DepthDuration/v2_depth_duration_MTurk/v2_DepthDuration_HTML.html#125,125,1024,625,1024,768,8-22-2022,12-0-7,13,depth_duration_stimuli/000569_2014-06-09_22-51-47_260595134347_rgbf000141-resize_3/000569_2014-06-09_22-51-47_260595134347_rgbf000141-resize-original.jpg,1000,4.512,4,7271,789,feet,jsons/v1_VE1000_randls_9.json,1973462,2298787,30,Woman
13,939925,DepthScenes,duration_manipulation_targetAtFixation,jsons/v1_VE1000_randls_9.json,http://54.235.29.9/FacialAge/BNav_EC2/DepthDuration/v2_depth_duration_MTurk/v2_DepthDuration_HTML.html#125,125,1024,625,1024,768,8-22-2022,12-0-7,14,depth_duration_stimuli/002663_2014-06-13_15-50-26_094959634447_rgbf000075-resize_1/002663_2014-06-13_15-50-26_094959634447_rgbf000075-resize_1-target.png,1000,4.7495,4,7427,765,feet,jsons/v1_VE1000_randls_9.json,1973462,2298787,30,Woman
14,939925,DepthScenes,duration_manipulation_targetAtFixation,jsons/v1_VE1000_randls_9.json,http://54.235.29.9/FacialAge/BNav_EC2/DepthDuration/v2_depth_duration_MTurk/v2_DepthDuration_HTML.html#125,125,1024,625,1024,768,8-22-2022,12-0-7,15,depth_duration_stimuli/000409_2014-06-04_19-23-33_260595134347_rgbf000067-resize_0/000409_2014-06-04_19-23-33_260595134347_rgbf000067-resize_0-target.png,1000,3.7335,4,5982,913,feet,jsons/v1_VE1000_randls_9.json,1973462,2298787,30,Woman
15,939925,DepthScenes,duration_manipulation_targetAtFixation,jsons/v1_VE1000_randls_9.json,http://54.235.29.9/FacialAge/BNav_EC2/DepthDuration/v2_depth_duration_MTurk/v2_DepthDuration_HTML.html#125,125,1024,625,1024,768,8-22-2022,12-0-7,16,depth_duration_stimuli/002964_2014-06-08_17-46-11_094959634447_rgbf000091-resize_4/002964_2014-06-08_17-46-11_094959634447_rgbf000091-resize_4-target.png,1000,1.6909999999999998,3,5127,1026,feet,jsons/v1_VE1000_randls_9.json,1973462,2298787,30,Woman
16,939925,DepthScenes,duration_manipulation_targetAtFixation,jsons/v1_VE1000_randls_9.json,http://54.235.29.9/FacialAge/BNav_EC2/DepthDuration/v2_depth_duration_MTurk/v2_DepthDuration_HTML.html#125,125,1024,625,1024,768,8-22-2022,12-0-7,17,depth_duration_stimuli/002136_2014-06-25_21-18-03_260595134347_rgbf000109-resize_3/002136_2014-06-25_21-18-03_260595134347_rgbf000109-resize_3-target.png,1000,1.9569999999999999,3,5802,1001,feet,jsons/v1_VE1000_randls_9.json,1973462,2298787,30,Woman
17,939925,DepthScenes,duration_manipulation_targetAtFixation,jsons/v1_VE1000_randls_9.json,http://54.235.29.9/FacialAge/BNav_EC2/DepthDuration/v2_depth_duration_MTurk/v2_DepthDuration_HTML.html#125,125,1024,625,1024,768,8-22-2022,12-0-7,18,depth_duration_stimuli/002763_2014-06-22_19-13-10_094959634447_rgbf000075-resize_4/002763_2014-06-22_19-13-10_094959634447_rgbf000075-resize_4-target.png,1000,1.68375,4,8400,985,feet,jsons/v1_VE1000_randls_9.json,1973462,2298787,30,Woman
18,939925,DepthScenes,duration_manipulation_targetAtFixation,jsons/v1_VE1000_randls_9.json,http://54.235.29.9/FacialAge/BNav_EC2/DepthDuration/v2_depth_duration_MTurk/v2_DepthDuration_HTML.html#125,125,1024,625,1024,768,8-22-2022,12-0-7,19,depth_duration_stimuli/002209_2014-06-28_18-36-10_260595134347_rgbf000051-resize_1/002209_2014-06-28_18-36-10_260595134347_rgbf000051-resize_1-target.png,1000,2.057,5,6022,991,feet,jsons/v1_VE1000_randls_9.json,1973462,2298787,30,Woman
19,939925,DepthScenes,duration_manipulation_targetAtFixation,jsons/v1_VE1000_randls_9.json,http://54.235.29.9/FacialAge/BNav_EC2/DepthDuration/v2_depth_duration_MTurk/v2_DepthDuration_HTML.html#125,125,1024,625,1024,768,8-22-2022,12-0-7,20,depth_duration_stimuli/003534_2014-05-22_15-06-10_094959634447_rgbf000102-resize_4/003534_2014-05-22_15-06-10_094959634447_rgbf000102-resize_4-target.png,1000,1.426,2,4211,929,feet,jsons/v1_VE1000_randls_9.json,1973462,2298787,30,Woman
20,939925,DepthScenes,duration_manipulation_targetAtFixation,jsons/v1_VE1000_randls_9.json,http://54.235.29.9/FacialAge/BNav_EC2/DepthDuration/v2_depth_duration_MTurk/v2_DepthDuration_HTML.html#125,125,1024,625,1024,768,8-22-2022,12-0-7,21,depth_duration_stimuli/002637_2014-06-24_14-51-13_094959634447_rgbf000066-resize_4/002637_2014-06-24_14-51-13_094959634447_rgbf000066-resize_4-target.png,1000,1.9955,4,9506,991,feet,jsons/v1_VE1000_randls_9.json,1973462,2298787,30,Woman
21,939925,DepthScenes,duration_manipulation_targetAtFixation,jsons/v1_VE1000_randls_9.json,http://54.235.29.9/FacialAge/BNav_EC2/DepthDuration/v2_depth_duration_MTurk/v2_DepthDuration_HTML.html#125,125,1024,625,1024,768,8-22-2022,12-0-7,22,depth_duration_stimuli/001167_2014-06-17_15-38-07_260595134347_rgbf000108-resize_0/001167_2014-06-17_15-38-07_260595134347_rgbf000108-resize_0-target.png,1000,1.8505,3,4935,998,feet,jsons/v1_VE1000_randls_9.json,1973462,2298787,30,Woman
22,939925,DepthScenes,duration_manipulation_targetAtFixation,jsons/v1_VE1000_randls_9.json,http://54.235.29.9/FacialAge/BNav_EC2/DepthDuration/v2_depth_duration_MTurk/v2_DepthDuration_HTML.html#125,125,1024,625,1024,768,8-22-2022,12-0-7,23,depth_duration_stimuli/003587_2014-05-23_16-48-02_094959634447_rgbf002384-resize_2/003587_2014-05-23_16-48-02_094959634447_rgbf002384-resize_2-target.png,1000,1.357,5,10600,1001,feet,jsons/v1_VE1000_randls_9.json,1973462,2298787,30,Woman
23,939925,DepthScenes,duration_manipulation_targetAtFixation,jsons/v1_VE1000_randls_9.json,http://54.235.29.9/FacialAge/BNav_EC2/DepthDuration/v2_depth_duration_MTurk/v2_DepthDuration_HTML.html#125,125,1024,625,1024,768,8-22-2022,12-0-7,24,depth_duration_stimuli/000878_2014-06-08_22-52-45_260595134347_rgbf000045-resize_2/000878_2014-06-08_22-52-45_260595134347_rgbf000045-resize_2-target.png,1000,2.092,4,5928,1017,feet,jsons/v1_VE1000_randls_9.json,1973462,2298787,30,Woman
24,939925,DepthScenes,duration_manipulation_targetAtFixation,jsons/v1_VE1000_randls_9.json,http://54.235.29.9/FacialAge/BNav_EC2/DepthDuration/v2_depth_duration_MTurk/v2_DepthDuration_HTML.html#125,125,1024,625,1024,768,8-22-2022,12-0-7,25,depth_duration_stimuli/002953_2014-06-08_17-32-18_094959634447_rgbf000059-resize_5/002953_2014-06-08_17-32-18_094959634447_rgbf000059-resize_5-target.png,1000,1.551,5,12988,1000,feet,jsons/v1_VE1000_randls_9.json,1973462,2298787,30,Woman
25,939925,DepthScenes,duration_manipulation_targetAtFixation,jsons/v1_VE1000_randls_9.json,http://54.235.29.9/FacialAge/BNav_EC2/DepthDuration/v2_depth_duration_MTurk/v2_DepthDuration_HTML.html#125,125,1024,625,1024,768,8-22-2022,12-0-7,26,depth_duration_stimuli/001417_2014-06-19_16-25-36_260595134347_rgbf000115-resize_5/001417_2014-06-19_16-25-36_260595134347_rgbf000115-resize_5-target.png,1000,4.6255,4,5996,955,feet,jsons/v1_VE1000_randls_9.json,1973462,2298787,30,Woman
26,939925,DepthScenes,duration_manipulation_targetAtFixation,jsons/v1_VE1000_randls_9.json,http://54.235.29.9/FacialAge/BNav_EC2/DepthDuration/v2_depth_duration_MTurk/v2_DepthDuration_HTML.html#125,125,1024,625,1024,768,8-22-2022,12-0-7,27,depth_duration_stimuli/003081_2014-06-15_15-19-16_094959634447_rgbf000150-resize_1/003081_2014-06-15_15-19-16_094959634447_rgbf000150-resize_1-target.png,1000,3.9125,4,6535,996,feet,jsons/v1_VE1000_randls_9.json,1973462,2298787,30,Woman
27,939925,DepthScenes,duration_manipulation_targetAtFixation,jsons/v1_VE1000_randls_9.json,http://54.235.29.9/FacialAge/BNav_EC2/DepthDuration/v2_depth_duration_MTurk/v2_DepthDuration_HTML.html#125,125,1024,625,1024,768,8-22-2022,12-0-7,28,depth_duration_stimuli/001092_2014-06-15_17-34-58_260595134347_rgbf000171-resize_3/001092_2014-06-15_17-34-58_260595134347_rgbf000171-resize_3-target.png,1000,2.6935,3,6779,838,feet,jsons/v1_VE1000_randls_9.json,1973462,2298787,30,Woman
28,939925,DepthScenes,duration_manipulation_targetAtFixation,jsons/v1_VE1000_randls_9.json,http://54.235.29.9/FacialAge/BNav_EC2/DepthDuration/v2_depth_duration_MTurk/v2_DepthDuration_HTML.html#125,125,1024,625,1024,768,8-22-2022,12-0-7,29,depth_duration_stimuli/002545_2014-06-24_13-38-53_094959634447_rgbf000080-resize_4/002545_2014-06-24_13-38-53_094959634447_rgbf000080-resize_4-target.png,1000,1.9205,3,5821,992,feet,jsons/v1_VE1000_randls_9.json,1973462,2298787,30,Woman
29,939925,DepthScenes,duration_manipulation_targetAtFixation,jsons/v1_VE1000_randls_9.json,http://54.235.29.9/FacialAge/BNav_EC2/DepthDuration/v2_depth_duration_MTurk/v2_DepthDuration_HTML.html#125,125,1024,625,1024,768,8-22-2022,12-0-7,30,depth_duration_stimuli/000375_2014-06-08_11-17-29_260595134347_rgbf000133-resize_2/000375_2014-06-08_11-17-29_260595134347_rgbf000133-resize-original.jpg,1000,4.718,5,7369,1416,feet,jsons/v1_VE1000_randls_9.json,1973462,2298787,30,Woman
30,939925,DepthScenes,duration_manipulation_targetAtFixation,jsons/v1_VE1000_randls_9.json,http://54.235.29.9/FacialAge/BNav_EC2/DepthDuration/v2_depth_duration_MTurk/v2_DepthDuration_HTML.html#125,125,1024,625,1024,768,8-22-2022,12-0-7,31,depth_duration_stimuli/003070_2014-06-15_14-58-27_094959634447_rgbf000150-resize_3/003070_2014-06-15_14-58-27_094959634447_rgbf000150-resize_3-target.png,1000,2.9415,6,6130,993,feet,jsons/v1_VE1000_randls_9.json,1973462,2298787,30,Woman
31,939925,DepthScenes,duration_manipulation_targetAtFixation,jsons/v1_VE1000_randls_9.json,http://54.235.29.9/FacialAge/BNav_EC2/DepthDuration/v2_depth_duration_MTurk/v2_DepthDuration_HTML.html#125,125,1024,625,1024,768,8-22-2022,12-0-7,32,depth_duration_stimuli/000943_2014-06-09_19-31-07_260595134347_rgbf000128-resize_1/000943_2014-06-09_19-31-07_260595134347_rgbf000128-resize_1-target.png,1000,1.9765,5,8768,1000,feet,jsons/v1_VE1000_randls_9.json,1973462,2298787,30,Woman
32,939925,DepthScenes,duration_manipulation_targetAtFixation,jsons/v1_VE1000_randls_9.json,http://54.235.29.9/FacialAge/BNav_EC2/DepthDuration/v2_depth_duration_MTurk/v2_DepthDuration_HTML.html#125,125,1024,625,1024,768,8-22-2022,12-0-7,33,depth_duration_stimuli/001110_2014-06-15_17-25-28_260595134347_rgbf000150-resize_1/001110_2014-06-15_17-25-28_260595134347_rgbf000150-resize_1-target.png,1000,1.7115,3,3908,995,feet,jsons/v1_VE1000_randls_9.json,1973462,2298787,30,Woman
33,939925,DepthScenes,duration_manipulation_targetAtFixation,jsons/v1_VE1000_randls_9.json,http://54.235.29.9/FacialAge/BNav_EC2/DepthDuration/v2_depth_duration_MTurk/v2_DepthDuration_HTML.html#125,125,1024,625,1024,768,8-22-2022,12-0-7,34,depth_duration_stimuli/000927_2014-06-09_16-32-30_260595134347_rgbf000123-resize_3/000927_2014-06-09_16-32-30_260595134347_rgbf000123-resize_3-target.png,1000,2.6785,3,6423,1000,feet,jsons/v1_VE1000_randls_9.json,1973462,2298787,30,Woman
34,939925,DepthScenes,duration_manipulation_targetAtFixation,jsons/v1_VE1000_randls_9.json,http://54.235.29.9/FacialAge/BNav_EC2/DepthDuration/v2_depth_duration_MTurk/v2_DepthDuration_HTML.html#125,125,1024,625,1024,768,8-22-2022,12-0-7,35,depth_duration_stimuli/001244_2014-06-17_16-47-45_260595134347_rgbf000030-resize_4/001244_2014-06-17_16-47-45_260595134347_rgbf000030-resize_4-target.png,1000,2.0425,5,5679,1132,feet,jsons/v1_VE1000_randls_9.json,1973462,2298787,30,Woman
35,939925,DepthScenes,duration_manipulation_targetAtFixation,jsons/v1_VE1000_randls_9.json,http://54.235.29.9/FacialAge/BNav_EC2/DepthDuration/v2_depth_duration_MTurk/v2_DepthDuration_HTML.html#125,125,1024,625,1024,768,8-22-2022,12-0-7,36,depth_duration_stimuli/003495_2014-05-21_16-01-51_094959634447_rgbf000100-resize_3/003495_2014-05-21_16-01-51_094959634447_rgbf000100-resize_3-target.png,1000,1.6255,4,7211,984,feet,jsons/v1_VE1000_randls_9.json,1973462,2298787,30,Woman
36,939925,DepthScenes,duration_manipulation_targetAtFixation,jsons/v1_VE1000_randls_9.json,http://54.235.29.9/FacialAge/BNav_EC2/DepthDuration/v2_depth_duration_MTurk/v2_DepthDuration_HTML.html#125,125,1024,625,1024,768,8-22-2022,12-0-7,37,depth_duration_stimuli/002039_2014-06-24_20-22-38_260595134347_rgbf000084-resize_1/002039_2014-06-24_20-22-38_260595134347_rgbf000084-resize_1-target.png,1000,4.408,6,8538,1058,feet,jsons/v1_VE1000_randls_9.json,1973462,2298787,30,Woman
37,939925,DepthScenes,duration_manipulation_targetAtFixation,jsons/v1_VE1000_randls_9.json,http://54.235.29.9/FacialAge/BNav_EC2/DepthDuration/v2_depth_duration_MTurk/v2_DepthDuration_HTML.html#125,125,1024,625,1024,768,8-22-2022,12-0-7,38,depth_duration_stimuli/002103_2014-06-25_20-00-40_260595134347_rgbf000049-resize_0/002103_2014-06-25_20-00-40_260595134347_rgbf000049-resize_0-target.png,1000,4.105,4,7067,434,feet,jsons/v1_VE1000_randls_9.json,1973462,2298787,30,Woman
38,939925,DepthScenes,duration_manipulation_targetAtFixation,jsons/v1_VE1000_randls_9.json,http://54.235.29.9/FacialAge/BNav_EC2/DepthDuration/v2_depth_duration_MTurk/v2_DepthDuration_HTML.html#125,125,1024,625,1024,768,8-22-2022,12-0-7,39,depth_duration_stimuli/001133_2014-06-17_14-49-16_260595134347_rgbf000100-resize_0/001133_2014-06-17_14-49-16_260595134347_rgbf000100-resize_0-target.png,1000,4.2115,5,6646,1003,feet,jsons/v1_VE1000_randls_9.json,1973462,2298787,30,Woman
39,939925,DepthScenes,duration_manipulation_targetAtFixation,jsons/v1_VE1000_randls_9.json,http://54.235.29.9/FacialAge/BNav_EC2/DepthDuration/v2_depth_duration_MTurk/v2_DepthDuration_HTML.html#125,125,1024,625,1024,768,8-22-2022,12-0-7,40,depth_duration_stimuli/001132_2014-06-17_14-48-54_260595134347_rgbf000100-resize_2/001132_2014-06-17_14-48-54_260595134347_rgbf000100-resize_2-target.png,1000,3.753,6,6066,974,feet,jsons/v1_VE1000_randls_9.json,1973462,2298787,30,Woman
40,939925,DepthScenes,duration_manipulation_targetAtFixation,jsons/v1_VE1000_randls_9.json,http://54.235.29.9/FacialAge/BNav_EC2/DepthDuration/v2_depth_duration_MTurk/v2_DepthDuration_HTML.html#125,125,1024,625,1024,768,8-22-2022,12-0-7,41,depth_duration_stimuli/003621_2014-05-23_18-06-08_094959634447_rgbf000101-resize_1/003621_2014-05-23_18-06-08_094959634447_rgbf000101-resize_1-target.png,1000,3.9835,7,6337,1000,feet,jsons/v1_VE1000_randls_9.json,1973462,2298787,30,Woman
41,939925,DepthScenes,duration_manipulation_targetAtFixation,jsons/v1_VE1000_randls_9.json,http://54.235.29.9/FacialAge/BNav_EC2/DepthDuration/v2_depth_duration_MTurk/v2_DepthDuration_HTML.html#125,125,1024,625,1024,768,8-22-2022,12-0-7,42,depth_duration_stimuli/001584_2014-06-20_11-07-43_260595134347_rgbf000002-resize_1/001584_2014-06-20_11-07-43_260595134347_rgbf000002-resize_1-target.png,1000,3.53,3,4466,999,feet,jsons/v1_VE1000_randls_9.json,1973462,2298787,30,Woman
42,939925,DepthScenes,duration_manipulation_targetAtFixation,jsons/v1_VE1000_randls_9.json,http://54.235.29.9/FacialAge/BNav_EC2/DepthDuration/v2_depth_duration_MTurk/v2_DepthDuration_HTML.html#125,125,1024,625,1024,768,8-22-2022,12-0-7,43,depth_duration_stimuli/001808_2014-06-26_20-50-58_260595134347_rgbf000029-resize_1/001808_2014-06-26_20-50-58_260595134347_rgbf000029-resize_1-target.png,1000,4.249,6,7118,1006,feet,jsons/v1_VE1000_randls_9.json,1973462,2298787,30,Woman
43,939925,DepthScenes,duration_manipulation_targetAtFixation,jsons/v1_VE1000_randls_9.json,http://54.235.29.9/FacialAge/BNav_EC2/DepthDuration/v2_depth_duration_MTurk/v2_DepthDuration_HTML.html#125,125,1024,625,1024,768,8-22-2022,12-0-7,44,depth_duration_stimuli/001815_2014-06-26_20-52-55_260595134347_rgbf000020-resize_0/001815_2014-06-26_20-52-55_260595134347_rgbf000020-resize_0-target.png,1000,3.3865,5,4540,907,feet,jsons/v1_VE1000_randls_9.json,1973462,2298787,30,Woman
44,939925,DepthScenes,duration_manipulation_targetAtFixation,jsons/v1_VE1000_randls_9.json,http://54.235.29.9/FacialAge/BNav_EC2/DepthDuration/v2_depth_duration_MTurk/v2_DepthDuration_HTML.html#125,125,1024,625,1024,768,8-22-2022,12-0-7,45,depth_duration_stimuli/000787_2014-06-08_22-33-53_260595134347_rgbf000175-resize_1/000787_2014-06-08_22-33-53_260595134347_rgbf000175-resize-original.jpg,1000,4.784,5,6070,998,feet,jsons/v1_VE1000_randls_9.json,1973462,2298787,30,Woman
45,939925,DepthScenes,duration_manipulation_targetAtFixation,jsons/v1_VE1000_randls_9.json,http://54.235.29.9/FacialAge/BNav_EC2/DepthDuration/v2_depth_duration_MTurk/v2_DepthDuration_HTML.html#125,125,1024,625,1024,768,8-22-2022,12-0-7,46,depth_duration_stimuli/001199_2014-06-17_16-03-48_260595134347_rgbf000077-resize_0/001199_2014-06-17_16-03-48_260595134347_rgbf000077-resize_0-target.png,1000,3.4375,4,4545,1002,feet,jsons/v1_VE1000_randls_9.json,1973462,2298787,30,Woman
46,939925,DepthScenes,duration_manipulation_targetAtFixation,jsons/v1_VE1000_randls_9.json,http://54.235.29.9/FacialAge/BNav_EC2/DepthDuration/v2_depth_duration_MTurk/v2_DepthDuration_HTML.html#125,125,1024,625,1024,768,8-22-2022,12-0-7,47,depth_duration_stimuli/000502_2014-06-08_23-02-32_260595134347_rgbf000063-resize_4/000502_2014-06-08_23-02-32_260595134347_rgbf000063-resize_4-target.png,1000,2.431,6,4516,1001,feet,jsons/v1_VE1000_randls_9.json,1973462,2298787,30,Woman
47,939925,DepthScenes,duration_manipulation_targetAtFixation,jsons/v1_VE1000_randls_9.json,http://54.235.29.9/FacialAge/BNav_EC2/DepthDuration/v2_depth_duration_MTurk/v2_DepthDuration_HTML.html#125,125,1024,625,1024,768,8-22-2022,12-0-7,48,depth_duration_stimuli/000788_2014-06-08_22-34-36_260595134347_rgbf000131-resize_1/000788_2014-06-08_22-34-36_260595134347_rgbf000131-resize_1-target.png,1000,3.359,4,5155,998,feet,jsons/v1_VE1000_randls_9.json,1973462,2298787,30,Woman
48,939925,DepthScenes,duration_manipulation_targetAtFixation,jsons/v1_VE1000_randls_9.json,http://54.235.29.9/FacialAge/BNav_EC2/DepthDuration/v2_depth_duration_MTurk/v2_DepthDuration_HTML.html#125,125,1024,625,1024,768,8-22-2022,12-0-7,49,depth_duration_stimuli/001235_2014-06-17_16-37-36_260595134347_rgbf000084-resize_4/001235_2014-06-17_16-37-36_260595134347_rgbf000084-resize_4-target.png,1000,3.6605,4,4499,1000,feet,jsons/v1_VE1000_randls_9.json,1973462,2298787,30,Woman
49,939925,DepthScenes,duration_manipulation_targetAtFixation,jsons/v1_VE1000_randls_9.json,http://54.235.29.9/FacialAge/BNav_EC2/DepthDuration/v2_depth_duration_MTurk/v2_DepthDuration_HTML.html#125,125,1024,625,1024,768,8-22-2022,12-0-7,50,depth_duration_stimuli/000493_2014-06-09_21-01-18_260595134347_rgbf000196-resize_3/000493_2014-06-09_21-01-18_260595134347_rgbf000196-resize_3-target.png,1000,3.44,5,5372,1004,feet,jsons/v1_VE1000_randls_9.json,1973462,2298787,30,Woman
50,939925,DepthScenes,duration_manipulation_targetAtFixation,jsons/v1_VE1000_randls_9.json,http://54.235.29.9/FacialAge/BNav_EC2/DepthDuration/v2_depth_duration_MTurk/v2_DepthDuration_HTML.html#125,125,1024,625,1024,768,8-22-2022,12-0-7,51,depth_duration_stimuli/000191_2014-05-12_17-07-38_260595134347_rgbf000199-resize_0/000191_2014-05-12_17-07-38_260595134347_rgbf000199-resize_0-target.png,1000,3.7995,4,37520,999,feet,jsons/v1_VE1000_randls_9.json,1973462,2298787,30,Woman
51,939925,DepthScenes,duration_manipulation_targetAtFixation,jsons/v1_VE1000_randls_9.json,http://54.235.29.9/FacialAge/BNav_EC2/DepthDuration/v2_depth_duration_MTurk/v2_DepthDuration_HTML.html#125,125,1024,625,1024,768,8-22-2022,12-0-7,52,depth_duration_stimuli/002748_2014-06-22_19-07-22_094959634447_rgbf000078-resize_1/002748_2014-06-22_19-07-22_094959634447_rgbf000078-resize_1-target.png,1000,4.6705,4,10395,806,feet,jsons/v1_VE1000_randls_9.json,1973462,2298787,30,Woman
52,939925,DepthScenes,duration_manipulation_targetAtFixation,jsons/v1_VE1000_randls_9.json,http://54.235.29.9/FacialAge/BNav_EC2/DepthDuration/v2_depth_duration_MTurk/v2_DepthDuration_HTML.html#125,125,1024,625,1024,768,8-22-2022,12-0-7,53,depth_duration_stimuli/002995_2014-06-15_12-31-26_094959634447_rgbf000150-resize_1/002995_2014-06-15_12-31-26_094959634447_rgbf000150-resize_1-target.png,1000,3.8360000000000003,4,4174,1053,feet,jsons/v1_VE1000_randls_9.json,1973462,2298787,30,Woman
53,939925,DepthScenes,duration_manipulation_targetAtFixation,jsons/v1_VE1000_randls_9.json,http://54.235.29.9/FacialAge/BNav_EC2/DepthDuration/v2_depth_duration_MTurk/v2_DepthDuration_HTML.html#125,125,1024,625,1024,768,8-22-2022,12-0-7,54,depth_duration_stimuli/001059_2014-06-08_21-53-27_260595134347_rgbf000061-resize_4/001059_2014-06-08_21-53-27_260595134347_rgbf000061-resize_4-target.png,1000,2.4185,6,8032,991,feet,jsons/v1_VE1000_randls_9.json,1973462,2298787,30,Woman
54,939925,DepthScenes,duration_manipulation_targetAtFixation,jsons/v1_VE1000_randls_9.json,http://54.235.29.9/FacialAge/BNav_EC2/DepthDuration/v2_depth_duration_MTurk/v2_DepthDuration_HTML.html#125,125,1024,625,1024,768,8-22-2022,12-0-7,55,depth_duration_stimuli/001032_2014-06-08_13-23-17_260595134347_rgbf000021-resize_3/001032_2014-06-08_13-23-17_260595134347_rgbf000021-resize_3-target.png,1000,3.2725,3,6435,999,feet,jsons/v1_VE1000_randls_9.json,1973462,2298787,30,Woman
55,939925,DepthScenes,duration_manipulation_targetAtFixation,jsons/v1_VE1000_randls_9.json,http://54.235.29.9/FacialAge/BNav_EC2/DepthDuration/v2_depth_duration_MTurk/v2_DepthDuration_HTML.html#125,125,1024,625,1024,768,8-22-2022,12-0-7,56,depth_duration_stimuli/002600_2014-06-24_14-27-04_094959634447_rgbf000074-resize_2/002600_2014-06-24_14-27-04_094959634447_rgbf000074-resize_2-target.png,1000,2.7575,2,6014,998,feet,jsons/v1_VE1000_randls_9.json,1973462,2298787,30,Woman
56,939925,DepthScenes,duration_manipulation_targetAtFixation,jsons/v1_VE1000_randls_9.json,http://54.235.29.9/FacialAge/BNav_EC2/DepthDuration/v2_depth_duration_MTurk/v2_DepthDuration_HTML.html#125,125,1024,625,1024,768,8-22-2022,12-0-7,57,depth_duration_stimuli/003228_2014-05-14_13-42-35_094959634447_rgbf000101-resize_1/003228_2014-05-14_13-42-35_094959634447_rgbf000101-resize_1-target.png,1000,1.9680000000000002,2,3770,1485,feet,jsons/v1_VE1000_randls_9.json,1973462,2298787,30,Woman
57,939925,DepthScenes,duration_manipulation_targetAtFixation,jsons/v1_VE1000_randls_9.json,http://54.235.29.9/FacialAge/BNav_EC2/DepthDuration/v2_depth_duration_MTurk/v2_DepthDuration_HTML.html#125,125,1024,625,1024,768,8-22-2022,12-0-7,58,depth_duration_stimuli/001150_2014-06-17_15-27-34_260595134347_rgbf000108-resize_2/001150_2014-06-17_15-27-34_260595134347_rgbf000108-resize_2-target.png,1000,4.0325,0,7736,996,feet,jsons/v1_VE1000_randls_9.json,1973462,2298787,30,Woman
58,939925,DepthScenes,duration_manipulation_targetAtFixation,jsons/v1_VE1000_randls_9.json,http://54.235.29.9/FacialAge/BNav_EC2/DepthDuration/v2_depth_duration_MTurk/v2_DepthDuration_HTML.html#125,125,1024,625,1024,768,8-22-2022,12-0-7,59,depth_duration_stimuli/000665_2014-06-09_20-42-35_260595134347_rgbf000110-resize_1/000665_2014-06-09_20-42-35_260595134347_rgbf000110-resize_1-target.png,1000,3.057,0,5627,1015,feet,jsons/v1_VE1000_randls_9.json,1973462,2298787,30,Woman
59,939925,DepthScenes,duration_manipulation_targetAtFixation,jsons/v1_VE1000_randls_9.json,http://54.235.29.9/FacialAge/BNav_EC2/DepthDuration/v2_depth_duration_MTurk/v2_DepthDuration_HTML.html#125,125,1024,625,1024,768,8-22-2022,12-0-7,60,depth_duration_stimuli/002445_2014-06-28_20-32-16_260595134347_rgbf000029-resize_4/002445_2014-06-28_20-32-16_260595134347_rgbf000029-resize_4-target.png,1000,2.5315,2,4507,1004,feet,jsons/v1_VE1000_randls_9.json,1973462,2298787,30,Woman
60,939925,DepthScenes,duration_manipulation_targetAtFixation,jsons/v1_VE1000_randls_9.json,http://54.235.29.9/FacialAge/BNav_EC2/DepthDuration/v2_depth_duration_MTurk/v2_DepthDuration_HTML.html#125,125,1024,625,1024,768,8-22-2022,12-0-7,61,depth_duration_stimuli/000780_2014-06-08_22-28-29_260595134347_rgbf000126-resize_1/000780_2014-06-08_22-28-29_260595134347_rgbf000126-resize_1-target.png,1000,3.3825,6,4746,871,feet,jsons/v1_VE1000_randls_9.json,1973462,2298787,30,Woman
61,939925,DepthScenes,duration_manipulation_targetAtFixation,jsons/v1_VE1000_randls_9.json,http://54.235.29.9/FacialAge/BNav_EC2/DepthDuration/v2_depth_duration_MTurk/v2_DepthDuration_HTML.html#125,125,1024,625,1024,768,8-22-2022,12-0-7,62,depth_duration_stimuli/001164_2014-06-17_15-35-46_260595134347_rgbf000085-resize_3/001164_2014-06-17_15-35-46_260595134347_rgbf000085-resize_3-target.png,1000,2.354,4,4003,997,feet,jsons/v1_VE1000_randls_9.json,1973462,2298787,30,Woman
62,939925,DepthScenes,duration_manipulation_targetAtFixation,jsons/v1_VE1000_randls_9.json,http://54.235.29.9/FacialAge/BNav_EC2/DepthDuration/v2_depth_duration_MTurk/v2_DepthDuration_HTML.html#125,125,1024,625,1024,768,8-22-2022,12-0-7,63,depth_duration_stimuli/001136_2014-06-17_15-19-41_260595134347_rgbf000076-resize_3/001136_2014-06-17_15-19-41_260595134347_rgbf000076-resize_3-target.png,1000,1.8655,4,468974,1037,feet,jsons/v1_VE1000_randls_9.json,1973462,2298787,30,Woman
63,939925,DepthScenes,duration_manipulation_targetAtFixation,jsons/v1_VE1000_randls_9.json,http://54.235.29.9/FacialAge/BNav_EC2/DepthDuration/v2_depth_duration_MTurk/v2_DepthDuration_HTML.html#125,125,1024,625,1024,768,8-22-2022,12-0-7,64,depth_duration_stimuli/002375_2014-06-28_20-13-44_260595134347_rgbf000032-resize_1/002375_2014-06-28_20-13-44_260595134347_rgbf000032-resize_1-target.png,1000,4.0175,3,35720,1018,feet,jsons/v1_VE1000_randls_9.json,1973462,2298787,30,Woman
64,939925,DepthScenes,duration_manipulation_targetAtFixation,jsons/v1_VE1000_randls_9.json,http://54.235.29.9/FacialAge/BNav_EC2/DepthDuration/v2_depth_duration_MTurk/v2_DepthDuration_HTML.html#125,125,1024,625,1024,768,8-22-2022,12-0-7,65,depth_duration_stimuli/002657_2014-06-13_15-29-54_094959634447_rgbf000150-resize_1/002657_2014-06-13_15-29-54_094959634447_rgbf000150-resize_1-target.png,1000,4.919,4,4090,1012,feet,jsons/v1_VE1000_randls_9.json,1973462,2298787,30,Woman
65,939925,DepthScenes,duration_manipulation_targetAtFixation,jsons/v1_VE1000_randls_9.json,http://54.235.29.9/FacialAge/BNav_EC2/DepthDuration/v2_depth_duration_MTurk/v2_DepthDuration_HTML.html#125,125,1024,625,1024,768,8-22-2022,12-0-7,66,depth_duration_stimuli/001222_2014-06-17_16-24-06_260595134347_rgbf000073-resize_0/001222_2014-06-17_16-24-06_260595134347_rgbf000073-resize-original.jpg,1000,1.4385,4,10375,1063,feet,jsons/v1_VE1000_randls_9.json,1973462,2298787,30,Woman
66,939925,DepthScenes,duration_manipulation_targetAtFixation,jsons/v1_VE1000_randls_9.json,http://54.235.29.9/FacialAge/BNav_EC2/DepthDuration/v2_depth_duration_MTurk/v2_DepthDuration_HTML.html#125,125,1024,625,1024,768,8-22-2022,12-0-7,67,depth_duration_stimuli/000692_2014-06-08_13-09-42_260595134347_rgbf000199-resize_2/000692_2014-06-08_13-09-42_260595134347_rgbf000199-resize_2-target.png,1000,3.661,3,4873,1004,feet,jsons/v1_VE1000_randls_9.json,1973462,2298787,30,Woman
67,939925,DepthScenes,duration_manipulation_targetAtFixation,jsons/v1_VE1000_randls_9.json,http://54.235.29.9/FacialAge/BNav_EC2/DepthDuration/v2_depth_duration_MTurk/v2_DepthDuration_HTML.html#125,125,1024,625,1024,768,8-22-2022,12-0-7,68,depth_duration_stimuli/001094_2014-06-15_17-36-00_260595134347_rgbf000205-resize_0/001094_2014-06-15_17-36-00_260595134347_rgbf000205-resize_0-target.png,1000,4.2175,2,3504,999,feet,jsons/v1_VE1000_randls_9.json,1973462,2298787,30,Woman
68,939925,DepthScenes,duration_manipulation_targetAtFixation,jsons/v1_VE1000_randls_9.json,http://54.235.29.9/FacialAge/BNav_EC2/DepthDuration/v2_depth_duration_MTurk/v2_DepthDuration_HTML.html#125,125,1024,625,1024,768,8-22-2022,12-0-7,69,depth_duration_stimuli/000486_2014-06-09_20-47-20_260595134347_rgbf000143-resize_2/000486_2014-06-09_20-47-20_260595134347_rgbf000143-resize_2-target.png,1000,4.8325,4,4182,1151,feet,jsons/v1_VE1000_randls_9.json,1973462,2298787,30,Woman
69,939925,DepthScenes,duration_manipulation_targetAtFixation,jsons/v1_VE1000_randls_9.json,http://54.235.29.9/FacialAge/BNav_EC2/DepthDuration/v2_depth_duration_MTurk/v2_DepthDuration_HTML.html#125,125,1024,625,1024,768,8-22-2022,12-0-7,70,depth_duration_stimuli/003083_2014-06-15_15-21-03_094959634447_rgbf000063-resize_1/003083_2014-06-15_15-21-03_094959634447_rgbf000063-resize_1-target.png,1000,4.1405,3,3598,985,feet,jsons/v1_VE1000_randls_9.json,1973462,2298787,30,Woman
70,939925,DepthScenes,duration_manipulation_targetAtFixation,jsons/v1_VE1000_randls_9.json,http://54.235.29.9/FacialAge/BNav_EC2/DepthDuration/v2_depth_duration_MTurk/v2_DepthDuration_HTML.html#125,125,1024,625,1024,768,8-22-2022,12-0-7,71,depth_duration_stimuli/000522_2014-06-08_13-35-06_260595134347_rgbf000244-resize_1/000522_2014-06-08_13-35-06_260595134347_rgbf000244-resize_1-target.png,1000,2.3715,2,3471,1017,feet,jsons/v1_VE1000_randls_9.json,1973462,2298787,30,Woman
71,939925,DepthScenes,duration_manipulation_targetAtFixation,jsons/v1_VE1000_randls_9.json,http://54.235.29.9/FacialAge/BNav_EC2/DepthDuration/v2_depth_duration_MTurk/v2_DepthDuration_HTML.html#125,125,1024,625,1024,768,8-22-2022,12-0-7,72,depth_duration_stimuli/002949_2014-06-26_15-57-42_094959634447_rgbf000079-resize_1/002949_2014-06-26_15-57-42_094959634447_rgbf000079-resize_1-target.png,1000,1.8915,3,3216,1001,feet,jsons/v1_VE1000_randls_9.json,1973462,2298787,30,Woman
72,939925,DepthScenes,duration_manipulation_targetAtFixation,jsons/v1_VE1000_randls_9.json,http://54.235.29.9/FacialAge/BNav_EC2/DepthDuration/v2_depth_duration_MTurk/v2_DepthDuration_HTML.html#125,125,1024,625,1024,768,8-22-2022,12-0-7,73,depth_duration_stimuli/003492_2014-05-21_15-50-55_094959634447_rgbf000828-resize_1/003492_2014-05-21_15-50-55_094959634447_rgbf000828-resize_1-target.png,1000,4.06875,5,3118,1018,feet,jsons/v1_VE1000_randls_9.json,1973462,2298787,30,Woman
73,939925,DepthScenes,duration_manipulation_targetAtFixation,jsons/v1_VE1000_randls_9.json,http://54.235.29.9/FacialAge/BNav_EC2/DepthDuration/v2_depth_duration_MTurk/v2_DepthDuration_HTML.html#125,125,1024,625,1024,768,8-22-2022,12-0-7,74,depth_duration_stimuli/002568_2014-06-24_13-59-21_094959634447_rgbf000062-resize_4/002568_2014-06-24_13-59-21_094959634447_rgbf000062-resize_4-target.png,1000,3.015,3,12855,993,feet,jsons/v1_VE1000_randls_9.json,1973462,2298787,30,Woman
74,939925,DepthScenes,duration_manipulation_targetAtFixation,jsons/v1_VE1000_randls_9.json,http://54.235.29.9/FacialAge/BNav_EC2/DepthDuration/v2_depth_duration_MTurk/v2_DepthDuration_HTML.html#125,125,1024,625,1024,768,8-22-2022,12-0-7,75,depth_duration_stimuli/001029_2014-06-08_13-17-57_260595134347_rgbf000065-resize_1/001029_2014-06-08_13-17-57_260595134347_rgbf000065-resize_1-target.png,1000,3.0835,5,3502,998,feet,jsons/v1_VE1000_randls_9.json,1973462,2298787,30,Woman
75,939925,DepthScenes,duration_manipulation_targetAtFixation,jsons/v1_VE1000_randls_9.json,http://54.235.29.9/FacialAge/BNav_EC2/DepthDuration/v2_depth_duration_MTurk/v2_DepthDuration_HTML.html#125,125,1024,625,1024,768,8-22-2022,12-0-7,76,depth_duration_stimuli/000677_2014-06-08_23-10-32_260595134347_rgbf000158-resize_6/000677_2014-06-08_23-10-32_260595134347_rgbf000158-resize_6-target.png,1000,3.556,6,4132,1002,feet,jsons/v1_VE1000_randls_9.json,1973462,2298787,30,Woman
76,939925,DepthScenes,duration_manipulation_targetAtFixation,jsons/v1_VE1000_randls_9.json,http://54.235.29.9/FacialAge/BNav_EC2/DepthDuration/v2_depth_duration_MTurk/v2_DepthDuration_HTML.html#125,125,1024,625,1024,768,8-22-2022,12-0-7,77,depth_duration_stimuli/002788_2014-06-22_19-36-03_094959634447_rgbf000088-resize_2/002788_2014-06-22_19-36-03_094959634447_rgbf000088-resize_2-target.png,1000,1.6465,5,10377,1001,feet,jsons/v1_VE1000_randls_9.json,1973462,2298787,30,Woman
77,939925,DepthScenes,duration_manipulation_targetAtFixation,jsons/v1_VE1000_randls_9.json,http://54.235.29.9/FacialAge/BNav_EC2/DepthDuration/v2_depth_duration_MTurk/v2_DepthDuration_HTML.html#125,125,1024,625,1024,768,8-22-2022,12-0-7,78,depth_duration_stimuli/000749_2014-06-08_21-55-06_260595134347_rgbf000070-resize_2/000749_2014-06-08_21-55-06_260595134347_rgbf000070-resize_2-target.png,1000,2.331,5,11755,1003,feet,jsons/v1_VE1000_randls_9.json,1973462,2298787,30,Woman
78,939925,DepthScenes,duration_manipulation_targetAtFixation,jsons/v1_VE1000_randls_9.json,http://54.235.29.9/FacialAge/BNav_EC2/DepthDuration/v2_depth_duration_MTurk/v2_DepthDuration_HTML.html#125,125,1024,625,1024,768,8-22-2022,12-0-7,79,depth_duration_stimuli/002272_2014-06-28_18-53-56_260595134347_rgbf000067-resize_2/002272_2014-06-28_18-53-56_260595134347_rgbf000067-resize_2-target.png,1000,1.138,6,7952,1100,feet,jsons/v1_VE1000_randls_9.json,1973462,2298787,30,Woman
79,939925,DepthScenes,duration_manipulation_targetAtFixation,jsons/v1_VE1000_randls_9.json,http://54.235.29.9/FacialAge/BNav_EC2/DepthDuration/v2_depth_duration_MTurk/v2_DepthDuration_HTML.html#125,125,1024,625,1024,768,8-22-2022,12-0-7,80,depth_duration_stimuli/001571_2014-06-20_17-21-32_260595134347_rgbf000089-resize_1/001571_2014-06-20_17-21-32_260595134347_rgbf000089-resize_1-target.png,1000,1.86,3,3808,1019,feet,jsons/v1_VE1000_randls_9.json,1973462,2298787,30,Woman
80,939925,DepthScenes,duration_manipulation_targetAtFixation,jsons/v1_VE1000_randls_9.json,http://54.235.29.9/FacialAge/BNav_EC2/DepthDuration/v2_depth_duration_MTurk/v2_DepthDuration_HTML.html#125,125,1024,625,1024,768,8-22-2022,12-0-7,81,depth_duration_stimuli/001055_2014-06-08_18-45-35_260595134347_rgbf000111-resize_4/001055_2014-06-08_18-45-35_260595134347_rgbf000111-resize_4-target.png,1000,2.4290000000000003,4,3704,1004,feet,jsons/v1_VE1000_randls_9.json,1973462,2298787,30,Woman
81,939925,DepthScenes,duration_manipulation_targetAtFixation,jsons/v1_VE1000_randls_9.json,http://54.235.29.9/FacialAge/BNav_EC2/DepthDuration/v2_depth_duration_MTurk/v2_DepthDuration_HTML.html#125,125,1024,625,1024,768,8-22-2022,12-0-7,82,depth_duration_stimuli/000549_2014-06-08_22-10-24_260595134347_rgbf000247-resize_3/000549_2014-06-08_22-10-24_260595134347_rgbf000247-resize_3-target.png,1000,1.841,4,9500,971,feet,jsons/v1_VE1000_randls_9.json,1973462,2298787,30,Woman
82,939925,DepthScenes,duration_manipulation_targetAtFixation,jsons/v1_VE1000_randls_9.json,http://54.235.29.9/FacialAge/BNav_EC2/DepthDuration/v2_depth_duration_MTurk/v2_DepthDuration_HTML.html#125,125,1024,625,1024,768,8-22-2022,12-0-7,83,depth_duration_stimuli/002784_2014-06-22_19-26-30_094959634447_rgbf000083-resize_3/002784_2014-06-22_19-26-30_094959634447_rgbf000083-resize_3-target.png,1000,1.8046666666667,3,4465,1003,feet,jsons/v1_VE1000_randls_9.json,1973462,2298787,30,Woman
83,939925,DepthScenes,duration_manipulation_targetAtFixation,jsons/v1_VE1000_randls_9.json,http://54.235.29.9/FacialAge/BNav_EC2/DepthDuration/v2_depth_duration_MTurk/v2_DepthDuration_HTML.html#125,125,1024,625,1024,768,8-22-2022,12-0-7,84,depth_duration_stimuli/001100_2014-06-15_17-46-26_260595134347_rgbf000225-resize_2/001100_2014-06-15_17-46-26_260595134347_rgbf000225-resize_2-target.png,1000,2.24,3,3755,862,feet,jsons/v1_VE1000_randls_9.json,1973462,2298787,30,Woman
84,939925,DepthScenes,duration_manipulation_targetAtFixation,jsons/v1_VE1000_randls_9.json,http://54.235.29.9/FacialAge/BNav_EC2/DepthDuration/v2_depth_duration_MTurk/v2_DepthDuration_HTML.html#125,125,1024,625,1024,768,8-22-2022,12-0-7,85,depth_duration_stimuli/001016_2014-06-09_16-16-10_260595134347_rgbf000112-resize_5/001016_2014-06-09_16-16-10_260595134347_rgbf000112-resize_5-target.png,1000,1.6565,4,4218,999,feet,jsons/v1_VE1000_randls_9.json,1973462,2298787,30,Woman
85,939925,DepthScenes,duration_manipulation_targetAtFixation,jsons/v1_VE1000_randls_9.json,http://54.235.29.9/FacialAge/BNav_EC2/DepthDuration/v2_depth_duration_MTurk/v2_DepthDuration_HTML.html#125,125,1024,625,1024,768,8-22-2022,12-0-7,86,depth_duration_stimuli/002340_2014-06-28_20-05-46_260595134347_rgbf000113-resize_0/002340_2014-06-28_20-05-46_260595134347_rgbf000113-resize_0-target.png,1000,2.4735,6,3424,1000,feet,jsons/v1_VE1000_randls_9.json,1973462,2298787,30,Woman
86,939925,DepthScenes,duration_manipulation_targetAtFixation,jsons/v1_VE1000_randls_9.json,http://54.235.29.9/FacialAge/BNav_EC2/DepthDuration/v2_depth_duration_MTurk/v2_DepthDuration_HTML.html#125,125,1024,625,1024,768,8-22-2022,12-0-7,87,depth_duration_stimuli/002043_2014-06-24_20-29-38_260595134347_rgbf000039-resize_4/002043_2014-06-24_20-29-38_260595134347_rgbf000039-resize_4-target.png,1000,2.8435,5,3308,986,feet,jsons/v1_VE1000_randls_9.json,1973462,2298787,30,Woman
87,939925,DepthScenes,duration_manipulation_targetAtFixation,jsons/v1_VE1000_randls_9.json,http://54.235.29.9/FacialAge/BNav_EC2/DepthDuration/v2_depth_duration_MTurk/v2_DepthDuration_HTML.html#125,125,1024,625,1024,768,8-22-2022,12-0-7,88,depth_duration_stimuli/003048_2014-06-15_13-49-43_094959634447_rgbf000150-resize_1/003048_2014-06-15_13-49-43_094959634447_rgbf000150-resize_1-target.png,1000,4.0035,6,3829,996,feet,jsons/v1_VE1000_randls_9.json,1973462,2298787,30,Woman
88,939925,DepthScenes,duration_manipulation_targetAtFixation,jsons/v1_VE1000_randls_9.json,http://54.235.29.9/FacialAge/BNav_EC2/DepthDuration/v2_depth_duration_MTurk/v2_DepthDuration_HTML.html#125,125,1024,625,1024,768,8-22-2022,12-0-7,89,depth_duration_stimuli/002570_2014-06-24_13-59-54_094959634447_rgbf000059-resize_0/002570_2014-06-24_13-59-54_094959634447_rgbf000059-resize_0-target.png,1000,4.037,0,3978,1559,feet,jsons/v1_VE1000_randls_9.json,1973462,2298787,30,Woman
89,939925,DepthScenes,duration_manipulation_targetAtFixation,jsons/v1_VE1000_randls_9.json,http://54.235.29.9/FacialAge/BNav_EC2/DepthDuration/v2_depth_duration_MTurk/v2_DepthDuration_HTML.html#125,125,1024,625,1024,768,8-22-2022,12-0-7,90,depth_duration_stimuli/002467_2014-06-28_20-38-07_260595134347_rgbf000026-resize_2/002467_2014-06-28_20-38-07_260595134347_rgbf000026-resize_2-target.png,1000,4.742,3,4124,1013,feet,jsons/v1_VE1000_randls_9.json,1973462,2298787,30,Woman
90,939925,DepthScenes,duration_manipulation_targetAtFixation,jsons/v1_VE1000_randls_9.json,http://54.235.29.9/FacialAge/BNav_EC2/DepthDuration/v2_depth_duration_MTurk/v2_DepthDuration_HTML.html#125,125,1024,625,1024,768,8-22-2022,12-0-7,91,depth_duration_stimuli/000736_2014-06-08_18-24-15_260595134347_rgbf000206-resize_3/000736_2014-06-08_18-24-15_260595134347_rgbf000206-resize_3-target.png,1000,3.515,6,3739,1000,feet,jsons/v1_VE1000_randls_9.json,1973462,2298787,30,Woman
91,939925,DepthScenes,duration_manipulation_targetAtFixation,jsons/v1_VE1000_randls_9.json,http://54.235.29.9/FacialAge/BNav_EC2/DepthDuration/v2_depth_duration_MTurk/v2_DepthDuration_HTML.html#125,125,1024,625,1024,768,8-22-2022,12-0-7,92,depth_duration_stimuli/000137_2014-05-20_17-04-49_260595134347_rgbf000120-resize_1/000137_2014-05-20_17-04-49_260595134347_rgbf000120-resize_1-target.png,1000,3.786,3,3552,1006,feet,jsons/v1_VE1000_randls_9.json,1973462,2298787,30,Woman
92,939925,DepthScenes,duration_manipulation_targetAtFixation,jsons/v1_VE1000_randls_9.json,http://54.235.29.9/FacialAge/BNav_EC2/DepthDuration/v2_depth_duration_MTurk/v2_DepthDuration_HTML.html#125,125,1024,625,1024,768,8-22-2022,12-0-7,93,depth_duration_stimuli/001806_2014-06-26_20-50-20_260595134347_rgbf000091-resize_1/001806_2014-06-26_20-50-20_260595134347_rgbf000091-resize_1-target.png,1000,2.7305,3,4250,998,feet,jsons/v1_VE1000_randls_9.json,1973462,2298787,30,Woman
93,939925,DepthScenes,duration_manipulation_targetAtFixation,jsons/v1_VE1000_randls_9.json,http://54.235.29.9/FacialAge/BNav_EC2/DepthDuration/v2_depth_duration_MTurk/v2_DepthDuration_HTML.html#125,125,1024,625,1024,768,8-22-2022,12-0-7,94,depth_duration_stimuli/001617_2014-06-20_11-35-32_260595134347_rgbf000066-resize_1/001617_2014-06-20_11-35-32_260595134347_rgbf000066-resize_1-target.png,1000,3.7910000000000004,4,121533,1085,feet,jsons/v1_VE1000_randls_9.json,1973462,2298787,30,Woman
94,939925,DepthScenes,duration_manipulation_targetAtFixation,jsons/v1_VE1000_randls_9.json,http://54.235.29.9/FacialAge/BNav_EC2/DepthDuration/v2_depth_duration_MTurk/v2_DepthDuration_HTML.html#125,125,1024,625,1024,768,8-22-2022,12-0-7,95,depth_duration_stimuli/001810_2014-06-26_20-51-35_260595134347_rgbf000040-resize_3/001810_2014-06-26_20-51-35_260595134347_rgbf000040-resize_3-target.png,1000,2.2525,3,3244,1000,feet,jsons/v1_VE1000_randls_9.json,1973462,2298787,30,Woman
95,939925,DepthScenes,duration_manipulation_targetAtFixation,jsons/v1_VE1000_randls_9.json,http://54.235.29.9/FacialAge/BNav_EC2/DepthDuration/v2_depth_duration_MTurk/v2_DepthDuration_HTML.html#125,125,1024,625,1024,768,8-22-2022,12-0-7,96,depth_duration_stimuli/003010_2014-06-15_12-54-35_094959634447_rgbf000112-resize_0/003010_2014-06-15_12-54-35_094959634447_rgbf000112-resize_0-target.png,1000,3.1185,3,4778,1038,feet,jsons/v1_VE1000_randls_9.json,1973462,2298787,30,Woman
96,939925,DepthScenes,duration_manipulation_targetAtFixation,jsons/v1_VE1000_randls_9.json,http://54.235.29.9/FacialAge/BNav_EC2/DepthDuration/v2_depth_duration_MTurk/v2_DepthDuration_HTML.html#125,125,1024,625,1024,768,8-22-2022,12-0-7,97,depth_duration_stimuli/000009_2014-05-26_14-32-05_260595134347_rgbf000034-resize_3/000009_2014-05-26_14-32-05_260595134347_rgbf000034-resize_3-target.png,1000,3.8715,4,3815,999,feet,jsons/v1_VE1000_randls_9.json,1973462,2298787,30,Woman
97,939925,DepthScenes,duration_manipulation_targetAtFixation,jsons/v1_VE1000_randls_9.json,http://54.235.29.9/FacialAge/BNav_EC2/DepthDuration/v2_depth_duration_MTurk/v2_DepthDuration_HTML.html#125,125,1024,625,1024,768,8-22-2022,12-0-7,98,depth_duration_stimuli/001828_2014-06-26_21-40-03_260595134347_rgbf000024-resize_0/001828_2014-06-26_21-40-03_260595134347_rgbf000024-resize_0-target.png,1000,4.8260000000000005,5,91961,979,feet,jsons/v1_VE1000_randls_9.json,1973462,2298787,30,Woman
98,939925,DepthScenes,duration_manipulation_targetAtFixation,jsons/v1_VE1000_randls_9.json,http://54.235.29.9/FacialAge/BNav_EC2/DepthDuration/v2_depth_duration_MTurk/v2_DepthDuration_HTML.html#125,125,1024,625,1024,768,8-22-2022,12-0-7,99,depth_duration_stimuli/001540_2014-06-20_17-01-05_260595134347_rgbf000086-resize_2/001540_2014-06-20_17-01-05_260595134347_rgbf000086-resize-original.jpg,1000,1.459,0,3379,996,feet,jsons/v1_VE1000_randls_9.json,1973462,2298787,30,Woman
99,939925,DepthScenes,duration_manipulation_targetAtFixation,jsons/v1_VE1000_randls_9.json,http://54.235.29.9/FacialAge/BNav_EC2/DepthDuration/v2_depth_duration_MTurk/v2_DepthDuration_HTML.html#125,125,1024,625,1024,768,8-22-2022,12-0-7,100,depth_duration_stimuli/000917_2014-06-09_22-45-29_260595134347_rgbf000149-resize_3/000917_2014-06-09_22-45-29_260595134347_rgbf000149-resize_3-target.png,1000,4.1865,4,3426,993,feet,jsons/v1_VE1000_randls_9.json,1973462,2298787,30,Woman
100,939925,DepthScenes,duration_manipulation_targetAtFixation,jsons/v1_VE1000_randls_9.json,http://54.235.29.9/FacialAge/BNav_EC2/DepthDuration/v2_depth_duration_MTurk/v2_DepthDuration_HTML.html#125,125,1024,625,1024,768,8-22-2022,12-0-7,101,depth_duration_stimuli/002323_2014-06-28_20-01-54_260595134347_rgbf000051-resize_4/002323_2014-06-28_20-01-54_260595134347_rgbf000051-resize_4-target.png,1000,3.7310000000000003,3,4598,1212,feet,jsons/v1_VE1000_randls_9.json,1973462,2298787,30,Woman
101,939925,DepthScenes,duration_manipulation_targetAtFixation,jsons/v1_VE1000_randls_9.json,http://54.235.29.9/FacialAge/BNav_EC2/DepthDuration/v2_depth_duration_MTurk/v2_DepthDuration_HTML.html#125,125,1024,625,1024,768,8-22-2022,12-0-7,102,depth_duration_stimuli/002509_2014-06-24_13-19-22_094959634447_rgbf000077-resize_0/002509_2014-06-24_13-19-22_094959634447_rgbf000077-resize_0-target.png,1000,1.3065,4,4874,1018,feet,jsons/v1_VE1000_randls_9.json,1973462,2298787,30,Woman
102,939925,DepthScenes,duration_manipulation_targetAtFixation,jsons/v1_VE1000_randls_9.json,http://54.235.29.9/FacialAge/BNav_EC2/DepthDuration/v2_depth_duration_MTurk/v2_DepthDuration_HTML.html#125,125,1024,625,1024,768,8-22-2022,12-0-7,103,depth_duration_stimuli/003338_2014-05-20_11-01-23_094959634447_rgbf000051-resize_6/003338_2014-05-20_11-01-23_094959634447_rgbf000051-resize_6-target.png,1000,1.693,3,7953,984,feet,jsons/v1_VE1000_randls_9.json,1973462,2298787,30,Woman
103,939925,DepthScenes,duration_manipulation_targetAtFixation,jsons/v1_VE1000_randls_9.json,http://54.235.29.9/FacialAge/BNav_EC2/DepthDuration/v2_depth_duration_MTurk/v2_DepthDuration_HTML.html#125,125,1024,625,1024,768,8-22-2022,12-0-7,104,depth_duration_stimuli/002988_2014-06-15_12-24-20_094959634447_rgbf000150-resize_1/002988_2014-06-15_12-24-20_094959634447_rgbf000150-resize_1-target.png,1000,4.7669999999999995,3,4992,999,feet,jsons/v1_VE1000_randls_9.json,1973462,2298787,30,Woman
104,939925,DepthScenes,duration_manipulation_targetAtFixation,jsons/v1_VE1000_randls_9.json,http://54.235.29.9/FacialAge/BNav_EC2/DepthDuration/v2_depth_duration_MTurk/v2_DepthDuration_HTML.html#125,125,1024,625,1024,768,8-22-2022,12-0-7,105,depth_duration_stimuli/001052_2014-06-08_18-24-54_260595134347_rgbf000130-resize_1/001052_2014-06-08_18-24-54_260595134347_rgbf000130-resize_1-target.png,1000,4.1045,5,4654,1032,feet,jsons/v1_VE1000_randls_9.json,1973462,2298787,30,Woman
105,939925,DepthScenes,duration_manipulation_targetAtFixation,jsons/v1_VE1000_randls_9.json,http://54.235.29.9/FacialAge/BNav_EC2/DepthDuration/v2_depth_duration_MTurk/v2_DepthDuration_HTML.html#125,125,1024,625,1024,768,8-22-2022,12-0-7,106,depth_duration_stimuli/001555_2014-06-20_17-12-10_260595134347_rgbf000065-resize_4/001555_2014-06-20_17-12-10_260595134347_rgbf000065-resize_4-target.png,1000,1.633,4,234550,1013,feet,jsons/v1_VE1000_randls_9.json,1973462,2298787,30,Woman
106,939925,DepthScenes,duration_manipulation_targetAtFixation,jsons/v1_VE1000_randls_9.json,http://54.235.29.9/FacialAge/BNav_EC2/DepthDuration/v2_depth_duration_MTurk/v2_DepthDuration_HTML.html#125,125,1024,625,1024,768,8-22-2022,12-0-7,107,depth_duration_stimuli/000103_2014-05-14_22-01-17_260595134347_rgbf000152-resize_5/000103_2014-05-14_22-01-17_260595134347_rgbf000152-resize_5-target.png,1000,1.993,6,3287,1001,feet,jsons/v1_VE1000_randls_9.json,1973462,2298787,30,Woman
107,939925,DepthScenes,duration_manipulation_targetAtFixation,jsons/v1_VE1000_randls_9.json,http://54.235.29.9/FacialAge/BNav_EC2/DepthDuration/v2_depth_duration_MTurk/v2_DepthDuration_HTML.html#125,125,1024,625,1024,768,8-22-2022,12-0-7,108,depth_duration_stimuli/000929_2014-06-09_16-33-19_260595134347_rgbf000139-resize_0/000929_2014-06-09_16-33-19_260595134347_rgbf000139-resize_0-target.png,1000,2.8680000000000003,5,3077,1004,feet,jsons/v1_VE1000_randls_9.json,1973462,2298787,30,Woman
108,939925,DepthScenes,duration_manipulation_targetAtFixation,jsons/v1_VE1000_randls_9.json,http://54.235.29.9/FacialAge/BNav_EC2/DepthDuration/v2_depth_duration_MTurk/v2_DepthDuration_HTML.html#125,125,1024,625,1024,768,8-22-2022,12-0-7,109,depth_duration_stimuli/000457_2014-06-08_16-52-43_260595134347_rgbf000199-resize_1/000457_2014-06-08_16-52-43_260595134347_rgbf000199-resize_1-target.png,1000,3.6489999999999996,5,4771,1004,feet,jsons/v1_VE1000_randls_9.json,1973462,2298787,30,Woman
109,939925,DepthScenes,duration_manipulation_targetAtFixation,jsons/v1_VE1000_randls_9.json,http://54.235.29.9/FacialAge/BNav_EC2/DepthDuration/v2_depth_duration_MTurk/v2_DepthDuration_HTML.html#125,125,1024,625,1024,768,8-22-2022,12-0-7,110,depth_duration_stimuli/002213_2014-06-28_18-37-58_260595134347_rgbf000055-resize_1/002213_2014-06-28_18-37-58_260595134347_rgbf000055-resize_1-target.png,1000,3.62,3,3485,1099,feet,jsons/v1_VE1000_randls_9.json,1973462,2298787,30,Woman
110,939925,DepthScenes,duration_manipulation_targetAtFixation,jsons/v1_VE1000_randls_9.json,http://54.235.29.9/FacialAge/BNav_EC2/DepthDuration/v2_depth_duration_MTurk/v2_DepthDuration_HTML.html#125,125,1024,625,1024,768,8-22-2022,12-0-7,111,depth_duration_stimuli/000691_2014-06-08_13-08-50_260595134347_rgbf000132-resize_3/000691_2014-06-08_13-08-50_260595134347_rgbf000132-resize_3-target.png,1000,4.1530000000000005,5,3126,1001,feet,jsons/v1_VE1000_randls_9.json,1973462,2298787,30,Woman
111,939925,DepthScenes,duration_manipulation_targetAtFixation,jsons/v1_VE1000_randls_9.json,http://54.235.29.9/FacialAge/BNav_EC2/DepthDuration/v2_depth_duration_MTurk/v2_DepthDuration_HTML.html#125,125,1024,625,1024,768,8-22-2022,12-0-7,112,depth_duration_stimuli/002153_2014-06-25_21-27-18_260595134347_rgbf000038-resize_5/002153_2014-06-25_21-27-18_260595134347_rgbf000038-resize_5-target.png,1000,2.505,1,4245,990,feet,jsons/v1_VE1000_randls_9.json,1973462,2298787,30,Woman
112,939925,DepthScenes,duration_manipulation_targetAtFixation,jsons/v1_VE1000_randls_9.json,http://54.235.29.9/FacialAge/BNav_EC2/DepthDuration/v2_depth_duration_MTurk/v2_DepthDuration_HTML.html#125,125,1024,625,1024,768,8-22-2022,12-0-7,113,depth_duration_stimuli/002660_2014-06-13_15-44-18_094959634447_rgbf001878-resize_2/002660_2014-06-13_15-44-18_094959634447_rgbf001878-resize_2-target.png,1000,3.576,3,3069,901,feet,jsons/v1_VE1000_randls_9.json,1973462,2298787,30,Woman
113,939925,DepthScenes,duration_manipulation_targetAtFixation,jsons/v1_VE1000_randls_9.json,http://54.235.29.9/FacialAge/BNav_EC2/DepthDuration/v2_depth_duration_MTurk/v2_DepthDuration_HTML.html#125,125,1024,625,1024,768,8-22-2022,12-0-7,114,depth_duration_stimuli/000810_2014-06-08_17-20-01_260595134347_rgbf000105-resize_0/000810_2014-06-08_17-20-01_260595134347_rgbf000105-resize_0-target.png,1000,1.4865,4,3198,999,feet,jsons/v1_VE1000_randls_9.json,1973462,2298787,30,Woman
114,939925,DepthScenes,duration_manipulation_targetAtFixation,jsons/v1_VE1000_randls_9.json,http://54.235.29.9/FacialAge/BNav_EC2/DepthDuration/v2_depth_duration_MTurk/v2_DepthDuration_HTML.html#125,125,1024,625,1024,768,8-22-2022,12-0-7,115,depth_duration_stimuli/001214_2014-06-17_16-13-55_260595134347_rgbf000111-resize_0/001214_2014-06-17_16-13-55_260595134347_rgbf000111-resize_0-target.png,1000,2.6505,3,3375,1001,feet,jsons/v1_VE1000_randls_9.json,1973462,2298787,30,Woman
115,939925,DepthScenes,duration_manipulation_targetAtFixation,jsons/v1_VE1000_randls_9.json,http://54.235.29.9/FacialAge/BNav_EC2/DepthDuration/v2_depth_duration_MTurk/v2_DepthDuration_HTML.html#125,125,1024,625,1024,768,8-22-2022,12-0-7,116,depth_duration_stimuli/001170_2014-06-17_15-43-44_260595134347_rgbf000096-resize_6/001170_2014-06-17_15-43-44_260595134347_rgbf000096-resize-original.jpg,1000,1.1909999999999998,0,5612,1005,feet,jsons/v1_VE1000_randls_9.json,1973462,2298787,30,Woman
116,939925,DepthScenes,duration_manipulation_targetAtFixation,jsons/v1_VE1000_randls_9.json,http://54.235.29.9/FacialAge/BNav_EC2/DepthDuration/v2_depth_duration_MTurk/v2_DepthDuration_HTML.html#125,125,1024,625,1024,768,8-22-2022,12-0-7,117,depth_duration_stimuli/000642_2014-06-08_16-59-25_260595134347_rgbf000098-resize_2/000642_2014-06-08_16-59-25_260595134347_rgbf000098-resize_2-target.png,1000,2.8815,5,3288,1025,feet,jsons/v1_VE1000_randls_9.json,1973462,2298787,30,Woman
117,939925,DepthScenes,duration_manipulation_targetAtFixation,jsons/v1_VE1000_randls_9.json,http://54.235.29.9/FacialAge/BNav_EC2/DepthDuration/v2_depth_duration_MTurk/v2_DepthDuration_HTML.html#125,125,1024,625,1024,768,8-22-2022,12-0-7,118,depth_duration_stimuli/002425_2014-06-28_20-27-29_260595134347_rgbf000031-resize_8/002425_2014-06-28_20-27-29_260595134347_rgbf000031-resize_8-target.png,1000,3.8960000000000004,3,7650,1019,feet,jsons/v1_VE1000_randls_9.json,1973462,2298787,30,Woman
118,939925,DepthScenes,duration_manipulation_targetAtFixation,jsons/v1_VE1000_randls_9.json,http://54.235.29.9/FacialAge/BNav_EC2/DepthDuration/v2_depth_duration_MTurk/v2_DepthDuration_HTML.html#125,125,1024,625,1024,768,8-22-2022,12-0-7,119,depth_duration_stimuli/002057_2014-06-24_21-00-13_260595134347_rgbf000120-resize_1/002057_2014-06-24_21-00-13_260595134347_rgbf000120-resize_1-target.png,1000,2.967,3,4361,948,feet,jsons/v1_VE1000_randls_9.json,1973462,2298787,30,Woman
119,939925,DepthScenes,duration_manipulation_targetAtFixation,jsons/v1_VE1000_randls_9.json,http://54.235.29.9/FacialAge/BNav_EC2/DepthDuration/v2_depth_duration_MTurk/v2_DepthDuration_HTML.html#125,125,1024,625,1024,768,8-22-2022,12-0-7,120,depth_duration_stimuli/000709_2014-06-08_13-51-55_260595134347_rgbf000068-resize_3/000709_2014-06-08_13-51-55_260595134347_rgbf000068-resize_3-target.png,1000,1.8030000000000002,5,3314,1000,feet,jsons/v1_VE1000_randls_9.json,1973462,2298787,30,Woman
120,939925,DepthScenes,duration_manipulation_targetAtFixation,jsons/v1_VE1000_randls_9.json,http://54.235.29.9/FacialAge/BNav_EC2/DepthDuration/v2_depth_duration_MTurk/v2_DepthDuration_HTML.html#125,125,1024,625,1024,768,8-22-2022,12-0-7,121,depth_duration_stimuli/001011_2014-06-08_23-18-54_260595134347_rgbf000044-resize_4/001011_2014-06-08_23-18-54_260595134347_rgbf000044-resize_4-target.png,1000,2.4730000000000003,3,4335,999,feet,jsons/v1_VE1000_randls_9.json,1973462,2298787,30,Woman
121,939925,DepthScenes,duration_manipulation_targetAtFixation,jsons/v1_VE1000_randls_9.json,http://54.235.29.9/FacialAge/BNav_EC2/DepthDuration/v2_depth_duration_MTurk/v2_DepthDuration_HTML.html#125,125,1024,625,1024,768,8-22-2022,12-0-7,122,depth_duration_stimuli/002875_2014-06-01_15-19-00_094959634447_rgbf000151-resize_1/002875_2014-06-01_15-19-00_094959634447_rgbf000151-resize_1-target.png,1000,1.9675,5,3225,1014,feet,jsons/v1_VE1000_randls_9.json,1973462,2298787,30,Woman
122,939925,DepthScenes,duration_manipulation_targetAtFixation,jsons/v1_VE1000_randls_9.json,http://54.235.29.9/FacialAge/BNav_EC2/DepthDuration/v2_depth_duration_MTurk/v2_DepthDuration_HTML.html#125,125,1024,625,1024,768,8-22-2022,12-0-7,123,depth_duration_stimuli/001056_2014-06-08_18-46-44_260595134347_rgbf000068-resize_0/001056_2014-06-08_18-46-44_260595134347_rgbf000068-resize_0-target.png,1000,2.6625,3,5250,1039,feet,jsons/v1_VE1000_randls_9.json,1973462,2298787,30,Woman
123,939925,DepthScenes,duration_manipulation_targetAtFixation,jsons/v1_VE1000_randls_9.json,http://54.235.29.9/FacialAge/BNav_EC2/DepthDuration/v2_depth_duration_MTurk/v2_DepthDuration_HTML.html#125,125,1024,625,1024,768,8-22-2022,12-0-7,124,depth_duration_stimuli/002199_2014-06-28_18-33-56_260595134347_rgbf000074-resize_0/002199_2014-06-28_18-33-56_260595134347_rgbf000074-resize_0-target.png,1000,1.996,4,4425,1003,feet,jsons/v1_VE1000_randls_9.json,1973462,2298787,30,Woman
124,939925,DepthScenes,duration_manipulation_targetAtFixation,jsons/v1_VE1000_randls_9.json,http://54.235.29.9/FacialAge/BNav_EC2/DepthDuration/v2_depth_duration_MTurk/v2_DepthDuration_HTML.html#125,125,1024,768,1024,768,8-22-2022,12-0-7,125,depth_duration_stimuli/000436_2014-06-09_22-25-11_260595134347_rgbf000137-resize_1/000436_2014-06-09_22-25-11_260595134347_rgbf000137-resize_1-target.png,1000,4.0705,3,5338,983,feet,jsons/v1_VE1000_randls_9.json,1973462,2298787,30,Woman
125,939925,DepthScenes,duration_manipulation_targetAtFixation,jsons/v1_VE1000_randls_9.json,http://54.235.29.9/FacialAge/BNav_EC2/DepthDuration/v2_depth_duration_MTurk/v2_DepthDuration_HTML.html#125,125,1024,768,1024,768,8-22-2022,12-0-7,126,depth_duration_stimuli/002444_2014-06-28_20-32-08_260595134347_rgbf000027-resize_0/002444_2014-06-28_20-32-08_260595134347_rgbf000027-resize_0-target.png,1000,4.388999999999999,0,5921,925,feet,jsons/v1_VE1000_randls_9.json,1973462,2298787,30,Woman
126,939925,DepthScenes,duration_manipulation_targetAtFixation,jsons/v1_VE1000_randls_9.json,http://54.235.29.9/FacialAge/BNav_EC2/DepthDuration/v2_depth_duration_MTurk/v2_DepthDuration_HTML.html#125,125,1024,768,1024,768,8-22-2022,12-0-7,127,depth_duration_stimuli/000739_2014-06-08_18-45-58_260595134347_rgbf000068-resize_1/000739_2014-06-08_18-45-58_260595134347_rgbf000068-resize_1-target.png,1000,3.534,3,9614,805,feet,jsons/v1_VE1000_randls_9.json,1973462,2298787,30,Woman
127,939925,DepthScenes,duration_manipulation_targetAtFixation,jsons/v1_VE1000_randls_9.json,http://54.235.29.9/FacialAge/BNav_EC2/DepthDuration/v2_depth_duration_MTurk/v2_DepthDuration_HTML.html#125,125,1024,768,1024,768,8-22-2022,12-0-7,128,depth_duration_stimuli/000734_2014-06-08_17-39-11_260595134347_rgbf000128-resize_2/000734_2014-06-08_17-39-11_260595134347_rgbf000128-resize_2-target.png,1000,4.098,5,4188,1006,feet,jsons/v1_VE1000_randls_9.json,1973462,2298787,30,Woman
128,939925,DepthScenes,duration_manipulation_targetAtFixation,jsons/v1_VE1000_randls_9.json,http://54.235.29.9/FacialAge/BNav_EC2/DepthDuration/v2_depth_duration_MTurk/v2_DepthDuration_HTML.html#125,125,1024,768,1024,768,8-22-2022,12-0-7,129,depth_duration_stimuli/001066_2014-06-08_22-03-20_260595134347_rgbf000066-resize_4/001066_2014-06-08_22-03-20_260595134347_rgbf000066-resize_4-target.png,1000,4.2330000000000005,5,4902,984,feet,jsons/v1_VE1000_randls_9.json,1973462,2298787,30,Woman
129,939925,DepthScenes,duration_manipulation_targetAtFixation,jsons/v1_VE1000_randls_9.json,http://54.235.29.9/FacialAge/BNav_EC2/DepthDuration/v2_depth_duration_MTurk/v2_DepthDuration_HTML.html#125,125,1024,768,1024,768,8-22-2022,12-0-7,130,depth_duration_stimuli/000742_2014-06-08_18-48-09_260595134347_rgbf000164-resize_4/000742_2014-06-08_18-48-09_260595134347_rgbf000164-resize_4-target.png,1000,4.632,4,3041,1013,feet,jsons/v1_VE1000_randls_9.json,1973462,2298787,30,Woman
130,939925,DepthScenes,duration_manipulation_targetAtFixation,jsons/v1_VE1000_randls_9.json,http://54.235.29.9/FacialAge/BNav_EC2/DepthDuration/v2_depth_duration_MTurk/v2_DepthDuration_HTML.html#125,125,1024,768,1024,768,8-22-2022,12-0-7,131,depth_duration_stimuli/000368_2014-06-09_15-53-01_260595134347_rgbf000155-resize_2/000368_2014-06-09_15-53-01_260595134347_rgbf000155-resize_2-target.png,1000,2.4859999999999998,3,5326,965,feet,jsons/v1_VE1000_randls_9.json,1973462,2298787,30,Woman
131,939925,DepthScenes,duration_manipulation_targetAtFixation,jsons/v1_VE1000_randls_9.json,http://54.235.29.9/FacialAge/BNav_EC2/DepthDuration/v2_depth_duration_MTurk/v2_DepthDuration_HTML.html#125,125,1024,768,1024,768,8-22-2022,12-0-7,132,depth_duration_stimuli/002678_2014-06-13_16-15-32_094959634447_rgbf000151-resize_6/002678_2014-06-13_16-15-32_094959634447_rgbf000151-resize_6-target.png,1000,2.1830000000000003,5,8227,934,feet,jsons/v1_VE1000_randls_9.json,1973462,2298787,30,Woman
132,939925,DepthScenes,duration_manipulation_targetAtFixation,jsons/v1_VE1000_randls_9.json,http://54.235.29.9/FacialAge/BNav_EC2/DepthDuration/v2_depth_duration_MTurk/v2_DepthDuration_HTML.html#125,125,1024,768,1024,768,8-22-2022,12-0-7,133,depth_duration_stimuli/000682_2014-06-08_23-14-58_260595134347_rgbf000041-resize_5/000682_2014-06-08_23-14-58_260595134347_rgbf000041-resize_5-target.png,1000,2.7239999999999998,5,3900,1004,feet,jsons/v1_VE1000_randls_9.json,1973462,2298787,30,Woman
133,939925,DepthScenes,duration_manipulation_targetAtFixation,jsons/v1_VE1000_randls_9.json,http://54.235.29.9/FacialAge/BNav_EC2/DepthDuration/v2_depth_duration_MTurk/v2_DepthDuration_HTML.html#125,125,1024,768,1024,768,8-22-2022,12-0-7,134,depth_duration_stimuli/001650_2014-06-20_12-09-00_260595134347_rgbf000087-resize_3/001650_2014-06-20_12-09-00_260595134347_rgbf000087-resize_3-target.png,1000,1.9505,3,3033,996,feet,jsons/v1_VE1000_randls_9.json,1973462,2298787,30,Woman
134,939925,DepthScenes,duration_manipulation_targetAtFixation,jsons/v1_VE1000_randls_9.json,http://54.235.29.9/FacialAge/BNav_EC2/DepthDuration/v2_depth_duration_MTurk/v2_DepthDuration_HTML.html#125,125,1024,768,1024,768,8-22-2022,12-0-7,135,depth_duration_stimuli/002072_2014-06-24_21-48-06_260595134347_rgbf000115-resize_0/002072_2014-06-24_21-48-06_260595134347_rgbf000115-resize-original.jpg,1000,4.702,0,2922,1004,feet,jsons/v1_VE1000_randls_9.json,1973462,2298787,30,Woman
135,939925,DepthScenes,duration_manipulation_targetAtFixation,jsons/v1_VE1000_randls_9.json,http://54.235.29.9/FacialAge/BNav_EC2/DepthDuration/v2_depth_duration_MTurk/v2_DepthDuration_HTML.html#125,125,1024,768,1024,768,8-22-2022,12-0-7,136,depth_duration_stimuli/001158_2014-06-17_15-32-16_260595134347_rgbf000138-resize_2/001158_2014-06-17_15-32-16_260595134347_rgbf000138-resize_2-target.png,1000,4.5315,5,2785,983,feet,jsons/v1_VE1000_randls_9.json,1973462,2298787,30,Woman
136,939925,DepthScenes,duration_manipulation_targetAtFixation,jsons/v1_VE1000_randls_9.json,http://54.235.29.9/FacialAge/BNav_EC2/DepthDuration/v2_depth_duration_MTurk/v2_DepthDuration_HTML.html#125,125,1024,768,1024,768,8-22-2022,12-0-7,137,depth_duration_stimuli/000556_2014-06-09_22-42-56_260595134347_rgbf000214-resize_1/000556_2014-06-09_22-42-56_260595134347_rgbf000214-resize_1-target.png,1000,4.8415,5,4018,973,feet,jsons/v1_VE1000_randls_9.json,1973462,2298787,30,Woman
137,939925,DepthScenes,duration_manipulation_targetAtFixation,jsons/v1_VE1000_randls_9.json,http://54.235.29.9/FacialAge/BNav_EC2/DepthDuration/v2_depth_duration_MTurk/v2_DepthDuration_HTML.html#125,125,1024,768,1024,768,8-22-2022,12-0-7,138,depth_duration_stimuli/002279_2014-06-28_18-55-32_260595134347_rgbf000040-resize_5/002279_2014-06-28_18-55-32_260595134347_rgbf000040-resize_5-target.png,1000,1.5043333333333,2,43784,999,feet,jsons/v1_VE1000_randls_9.json,1973462,2298787,30,Woman
138,939925,DepthScenes,duration_manipulation_targetAtFixation,jsons/v1_VE1000_randls_9.json,http://54.235.29.9/FacialAge/BNav_EC2/DepthDuration/v2_depth_duration_MTurk/v2_DepthDuration_HTML.html#125,125,1024,768,1024,768,8-22-2022,12-0-7,139,depth_duration_stimuli/000635_2014-06-08_16-38-42_260595134347_rgbf000106-resize_1/000635_2014-06-08_16-38-42_260595134347_rgbf000106-resize_1-target.png,1000,2.074,3,7925,973,feet,jsons/v1_VE1000_randls_9.json,1973462,2298787,30,Woman
139,939925,DepthScenes,duration_manipulation_targetAtFixation,jsons/v1_VE1000_randls_9.json,http://54.235.29.9/FacialAge/BNav_EC2/DepthDuration/v2_depth_duration_MTurk/v2_DepthDuration_HTML.html#125,125,1024,768,1024,768,8-22-2022,12-0-7,140,depth_duration_stimuli/000906_2014-06-08_13-35-43_260595134347_rgbf000155-resize_1/000906_2014-06-08_13-35-43_260595134347_rgbf000155-resize_1-target.png,1000,2.8489999999999998,1,6601,1421,feet,jsons/v1_VE1000_randls_9.json,1973462,2298787,30,Woman
140,939925,DepthScenes,duration_manipulation_targetAtFixation,jsons/v1_VE1000_randls_9.json,http://54.235.29.9/FacialAge/BNav_EC2/DepthDuration/v2_depth_duration_MTurk/v2_DepthDuration_HTML.html#125,125,1024,768,1024,768,8-22-2022,12-0-7,141,depth_duration_stimuli/002805_2014-06-22_19-54-03_094959634447_rgbf000079-resize_1/002805_2014-06-22_19-54-03_094959634447_rgbf000079-resize_1-target.png,1000,3.1439999999999997,3,4821,994,feet,jsons/v1_VE1000_randls_9.json,1973462,2298787,30,Woman
141,939925,DepthScenes,duration_manipulation_targetAtFixation,jsons/v1_VE1000_randls_9.json,http://54.235.29.9/FacialAge/BNav_EC2/DepthDuration/v2_depth_duration_MTurk/v2_DepthDuration_HTML.html#125,125,1024,768,1024,768,8-22-2022,12-0-7,142,depth_duration_stimuli/003292_2014-05-14_21-53-49_094959634447_rgbf000100-resize_2/003292_2014-05-14_21-53-49_094959634447_rgbf000100-resize_2-target.png,1000,3.4815,0,5218,1146,feet,jsons/v1_VE1000_randls_9.json,1973462,2298787,30,Woman
142,939925,DepthScenes,duration_manipulation_targetAtFixation,jsons/v1_VE1000_randls_9.json,http://54.235.29.9/FacialAge/BNav_EC2/DepthDuration/v2_depth_duration_MTurk/v2_DepthDuration_HTML.html#125,125,1024,768,1024,768,8-22-2022,12-0-7,143,depth_duration_stimuli/002639_2014-06-24_14-51-37_094959634447_rgbf000074-resize_4/002639_2014-06-24_14-51-37_094959634447_rgbf000074-resize_4-target.png,1000,4.0375,1,4238,998,feet,jsons/v1_VE1000_randls_9.json,1973462,2298787,30,Woman
143,939925,DepthScenes,duration_manipulation_targetAtFixation,jsons/v1_VE1000_randls_9.json,http://54.235.29.9/FacialAge/BNav_EC2/DepthDuration/v2_depth_duration_MTurk/v2_DepthDuration_HTML.html#125,125,1024,768,1024,768,8-22-2022,12-0-7,144,depth_duration_stimuli/001570_2014-06-20_17-21-09_260595134347_rgbf000135-resize_4/001570_2014-06-20_17-21-09_260595134347_rgbf000135-resize_4-target.png,1000,4.467,1,3871,999,feet,jsons/v1_VE1000_randls_9.json,1973462,2298787,30,Woman
144,939925,DepthScenes,duration_manipulation_targetAtFixation,jsons/v1_VE1000_randls_9.json,http://54.235.29.9/FacialAge/BNav_EC2/DepthDuration/v2_depth_duration_MTurk/v2_DepthDuration_HTML.html#125,125,1024,768,1024,768,8-22-2022,12-0-7,145,depth_duration_stimuli/001392_2014-06-19_16-07-59_260595134347_rgbf000046-resize_1/001392_2014-06-19_16-07-59_260595134347_rgbf000046-resize_1-target.png,1000,4.135,2,4355,983,feet,jsons/v1_VE1000_randls_9.json,1973462,2298787,30,Woman
145,939925,DepthScenes,duration_manipulation_targetAtFixation,jsons/v1_VE1000_randls_9.json,http://54.235.29.9/FacialAge/BNav_EC2/DepthDuration/v2_depth_duration_MTurk/v2_DepthDuration_HTML.html#125,125,1024,768,1024,768,8-22-2022,12-0-7,146,depth_duration_stimuli/001498_2014-06-19_17-45-14_260595134347_rgbf000129-resize_4/001498_2014-06-19_17-45-14_260595134347_rgbf000129-resize-original.jpg,1000,1.4075,2,4014,999,feet,jsons/v1_VE1000_randls_9.json,1973462,2298787,30,Woman
146,939925,DepthScenes,duration_manipulation_targetAtFixation,jsons/v1_VE1000_randls_9.json,http://54.235.29.9/FacialAge/BNav_EC2/DepthDuration/v2_depth_duration_MTurk/v2_DepthDuration_HTML.html#125,125,1024,768,1024,768,8-22-2022,12-0-7,147,depth_duration_stimuli/002989_2014-06-15_12-25-03_094959634447_rgbf000150-resize_3/002989_2014-06-15_12-25-03_094959634447_rgbf000150-resize_3-target.png,1000,4.1975,1,3999,999,feet,jsons/v1_VE1000_randls_9.json,1973462,2298787,30,Woman
147,939925,DepthScenes,duration_manipulation_targetAtFixation,jsons/v1_VE1000_randls_9.json,http://54.235.29.9/FacialAge/BNav_EC2/DepthDuration/v2_depth_duration_MTurk/v2_DepthDuration_HTML.html#125,125,1024,768,1024,768,8-22-2022,12-0-7,148,depth_duration_stimuli/000866_2014-06-09_20-45-42_260595134347_rgbf000139-resize_1/000866_2014-06-09_20-45-42_260595134347_rgbf000139-resize_1-target.png,1000,3.2155,2,6684,1001,feet,jsons/v1_VE1000_randls_9.json,1973462,2298787,30,Woman
148,939925,DepthScenes,duration_manipulation_targetAtFixation,jsons/v1_VE1000_randls_9.json,http://54.235.29.9/FacialAge/BNav_EC2/DepthDuration/v2_depth_duration_MTurk/v2_DepthDuration_HTML.html#125,125,1024,768,1024,768,8-22-2022,12-0-7,149,depth_duration_stimuli/000506_2014-06-08_23-21-00_260595134347_rgbf000070-resize_7/000506_2014-06-08_23-21-00_260595134347_rgbf000070-resize_7-target.png,1000,4.0585,2,3296,820,feet,jsons/v1_VE1000_randls_9.json,1973462,2298787,30,Woman
149,939925,DepthScenes,duration_manipulation_targetAtFixation,jsons/v1_VE1000_randls_9.json,http://54.235.29.9/FacialAge/BNav_EC2/DepthDuration/v2_depth_duration_MTurk/v2_DepthDuration_HTML.html#125,125,1024,768,1024,768,8-22-2022,12-0-7,150,depth_duration_stimuli/003079_2014-06-15_15-18-20_094959634447_rgbf000152-resize_8/003079_2014-06-15_15-18-20_094959634447_rgbf000152-resize_8-target.png,1000,2.8775,3,3687,994,feet,jsons/v1_VE1000_randls_9.json,1973462,2298787,30,Woman
150,939925,DepthScenes,duration_manipulation_targetAtFixation,jsons/v1_VE1000_randls_9.json,http://54.235.29.9/FacialAge/BNav_EC2/DepthDuration/v2_depth_duration_MTurk/v2_DepthDuration_HTML.html#125,125,1024,768,1024,768,8-22-2022,12-0-7,151,depth_duration_stimuli/001449_2014-06-19_17-01-27_260595134347_rgbf000116-resize_2/001449_2014-06-19_17-01-27_260595134347_rgbf000116-resize_2-target.png,1000,3.452,4,4563,1001,feet,jsons/v1_VE1000_randls_9.json,1973462,2298787,30,Woman
151,939925,DepthScenes,duration_manipulation_targetAtFixation,jsons/v1_VE1000_randls_9.json,http://54.235.29.9/FacialAge/BNav_EC2/DepthDuration/v2_depth_duration_MTurk/v2_DepthDuration_HTML.html#125,125,1024,768,1024,768,8-22-2022,12-0-7,152,depth_duration_stimuli/001450_2014-06-19_17-02-03_260595134347_rgbf000203-resize_4/001450_2014-06-19_17-02-03_260595134347_rgbf000203-resize_4-target.png,1000,4.0106666666667,2,3877,1001,feet,jsons/v1_VE1000_randls_9.json,1973462,2298787,30,Woman
152,939925,DepthScenes,duration_manipulation_targetAtFixation,jsons/v1_VE1000_randls_9.json,http://54.235.29.9/FacialAge/BNav_EC2/DepthDuration/v2_depth_duration_MTurk/v2_DepthDuration_HTML.html#125,125,1024,768,1024,768,8-22-2022,12-0-7,153,depth_duration_stimuli/000773_2014-06-08_22-24-54_260595134347_rgbf000093-resize_1/000773_2014-06-08_22-24-54_260595134347_rgbf000093-resize_1-target.png,1000,4.973,3,4161,1003,feet,jsons/v1_VE1000_randls_9.json,1973462,2298787,30,Woman
153,939925,DepthScenes,duration_manipulation_targetAtFixation,jsons/v1_VE1000_randls_9.json,http://54.235.29.9/FacialAge/BNav_EC2/DepthDuration/v2_depth_duration_MTurk/v2_DepthDuration_HTML.html#125,125,1024,768,1024,768,8-22-2022,12-0-7,154,depth_duration_stimuli/002414_2014-06-28_20-24-58_260595134347_rgbf000067-resize_4/002414_2014-06-28_20-24-58_260595134347_rgbf000067-resize_4-target.png,1000,4.363,3,5095,1000,feet,jsons/v1_VE1000_randls_9.json,1973462,2298787,30,Woman
154,939925,DepthScenes,duration_manipulation_targetAtFixation,jsons/v1_VE1000_randls_9.json,http://54.235.29.9/FacialAge/BNav_EC2/DepthDuration/v2_depth_duration_MTurk/v2_DepthDuration_HTML.html#125,125,1024,768,1024,768,8-22-2022,12-0-7,155,depth_duration_stimuli/002630_2014-06-24_14-47-50_094959634447_rgbf000055-resize_1/002630_2014-06-24_14-47-50_094959634447_rgbf000055-resize_1-target.png,1000,3.0095,3,3856,1008,feet,jsons/v1_VE1000_randls_9.json,1973462,2298787,30,Woman
155,939925,DepthScenes,duration_manipulation_targetAtFixation,jsons/v1_VE1000_randls_9.json,http://54.235.29.9/FacialAge/BNav_EC2/DepthDuration/v2_depth_duration_MTurk/v2_DepthDuration_HTML.html#125,125,1024,768,1024,768,8-22-2022,12-0-7,156,depth_duration_stimuli/002758_2014-06-22_19-11-20_094959634447_rgbf000128-resize_1/002758_2014-06-22_19-11-20_094959634447_rgbf000128-resize_1-target.png,1000,2.555,2,4456,1002,feet,jsons/v1_VE1000_randls_9.json,1973462,2298787,30,Woman
156,939925,DepthScenes,duration_manipulation_targetAtFixation,jsons/v1_VE1000_randls_9.json,http://54.235.29.9/FacialAge/BNav_EC2/DepthDuration/v2_depth_duration_MTurk/v2_DepthDuration_HTML.html#125,125,1024,768,1024,768,8-22-2022,12-0-7,157,depth_duration_stimuli/000447_2014-06-08_16-15-46_260595134347_rgbf000130-resize_1/000447_2014-06-08_16-15-46_260595134347_rgbf000130-resize_1-target.png,1000,4.479,6,4381,926,feet,jsons/v1_VE1000_randls_9.json,1973462,2298787,30,Woman
157,939925,DepthScenes,duration_manipulation_targetAtFixation,jsons/v1_VE1000_randls_9.json,http://54.235.29.9/FacialAge/BNav_EC2/DepthDuration/v2_depth_duration_MTurk/v2_DepthDuration_HTML.html#125,125,1024,768,1024,768,8-22-2022,12-0-7,158,depth_duration_stimuli/001447_2014-06-19_17-00-32_260595134347_rgbf000082-resize_5/001447_2014-06-19_17-00-32_260595134347_rgbf000082-resize_5-target.png,1000,4.13775,5,9936,999,feet,jsons/v1_VE1000_randls_9.json,1973462,2298787,30,Woman
158,939925,DepthScenes,duration_manipulation_targetAtFixation,jsons/v1_VE1000_randls_9.json,http://54.235.29.9/FacialAge/BNav_EC2/DepthDuration/v2_depth_duration_MTurk/v2_DepthDuration_HTML.html#125,125,1024,768,1024,768,8-22-2022,12-0-7,159,depth_duration_stimuli/000414_2014-06-04_19-49-13_260595134347_rgbf000044-resize_0/000414_2014-06-04_19-49-13_260595134347_rgbf000044-resize_0-target.png,1000,4.329,3,4375,998,feet,jsons/v1_VE1000_randls_9.json,1973462,2298787,30,Woman
159,939925,DepthScenes,duration_manipulation_targetAtFixation,jsons/v1_VE1000_randls_9.json,http://54.235.29.9/FacialAge/BNav_EC2/DepthDuration/v2_depth_duration_MTurk/v2_DepthDuration_HTML.html#125,125,1024,768,1024,768,8-22-2022,12-0-7,160,depth_duration_stimuli/003129_2014-05-12_10-48-10_094959634447_rgbf000100-resize_0/003129_2014-05-12_10-48-10_094959634447_rgbf000100-resize_0-target.png,1000,4.9305,5,5806,1001,feet,jsons/v1_VE1000_randls_9.json,1973462,2298787,30,Woman
160,939925,DepthScenes,duration_manipulation_targetAtFixation,jsons/v1_VE1000_randls_9.json,http://54.235.29.9/FacialAge/BNav_EC2/DepthDuration/v2_depth_duration_MTurk/v2_DepthDuration_HTML.html#125,125,1024,768,1024,768,8-22-2022,12-0-7,161,depth_duration_stimuli/002725_2014-06-22_11-47-51_094959634447_rgbf000070-resize_1/002725_2014-06-22_11-47-51_094959634447_rgbf000070-resize_1-target.png,1000,2.195,4,4414,976,feet,jsons/v1_VE1000_randls_9.json,1973462,2298787,30,Woman
161,939925,DepthScenes,duration_manipulation_targetAtFixation,jsons/v1_VE1000_randls_9.json,http://54.235.29.9/FacialAge/BNav_EC2/DepthDuration/v2_depth_duration_MTurk/v2_DepthDuration_HTML.html#125,125,1024,768,1024,768,8-22-2022,12-0-7,162,depth_duration_stimuli/002344_2014-06-28_20-06-29_260595134347_rgbf000030-resize_1/002344_2014-06-28_20-06-29_260595134347_rgbf000030-resize_1-target.png,1000,1.5795,3,4625,972,feet,jsons/v1_VE1000_randls_9.json,1973462,2298787,30,Woman
162,939925,DepthScenes,duration_manipulation_targetAtFixation,jsons/v1_VE1000_randls_9.json,http://54.235.29.9/FacialAge/BNav_EC2/DepthDuration/v2_depth_duration_MTurk/v2_DepthDuration_HTML.html#125,125,1024,768,1024,768,8-22-2022,12-0-7,163,depth_duration_stimuli/001175_2014-06-17_15-45-55_260595134347_rgbf000129-resize_4/001175_2014-06-17_15-45-55_260595134347_rgbf000129-resize_4-target.png,1000,4.255,2,3906,999,feet,jsons/v1_VE1000_randls_9.json,1973462,2298787,30,Woman
163,939925,DepthScenes,duration_manipulation_targetAtFixation,jsons/v1_VE1000_randls_9.json,http://54.235.29.9/FacialAge/BNav_EC2/DepthDuration/v2_depth_duration_MTurk/v2_DepthDuration_HTML.html#125,125,1024,768,1024,768,8-22-2022,12-0-7,164,depth_duration_stimuli/003490_2014-05-21_15-50-11_094959634447_rgbf000101-resize_3/003490_2014-05-21_15-50-11_094959634447_rgbf000101-resize_3-target.png,1000,3.6445,1,4365,990,feet,jsons/v1_VE1000_randls_9.json,1973462,2298787,30,Woman
