,subjID,experimentName,versionName,sequenceName,url,selected_row,windowWidth,windowHeight,screenWidth,screenHeight,startDate,startTime,trial,stimulus,duration,actual_depth,depth_estimate,trial_RT,log_sceneDuration,unitSelection,seq_filepath,experimentTime,totalTime,age,gender
0,943714,DepthScenes,duration_manipulation_targetAtFixation,jsons/VE125_randls_55.json,http://54.235.29.9/FacialAge/BNav_EC2/DepthDuration/v2_depth_duration_MTurk/v2_DepthDuration_HTML.html#102,102,1366,768,1366,768,10-2-2022,14-30-2,1,depth_duration_stimuli/001167_2014-06-17_15-38-07_260595134347_rgbf000108-resize_0/001167_2014-06-17_15-38-07_260595134347_rgbf000108-resize_0-target.png,125,1.8505,1,2767,129,feet,jsons/VE125_randls_55.json,727337,902428,58,Woman
1,943714,DepthScenes,duration_manipulation_targetAtFixation,jsons/VE125_randls_55.json,http://54.235.29.9/FacialAge/BNav_EC2/DepthDuration/v2_depth_duration_MTurk/v2_DepthDuration_HTML.html#102,102,1366,768,1366,768,10-2-2022,14-30-2,2,depth_duration_stimuli/003587_2014-05-23_16-48-02_094959634447_rgbf002384-resize_2/003587_2014-05-23_16-48-02_094959634447_rgbf002384-resize_2-target.png,125,1.357,1,2626,124,feet,jsons/VE125_randls_55.json,727337,902428,58,Woman
2,943714,DepthScenes,duration_manipulation_targetAtFixation,jsons/VE125_randls_55.json,http://54.235.29.9/FacialAge/BNav_EC2/DepthDuration/v2_depth_duration_MTurk/v2_DepthDuration_HTML.html#102,102,1366,768,1366,768,10-2-2022,14-30-2,3,depth_duration_stimuli/000447_2014-06-08_16-15-46_260595134347_rgbf000130-resize_1/000447_2014-06-08_16-15-46_260595134347_rgbf000130-resize_1-target.png,125,4.479,2,2792,117,feet,jsons/VE125_randls_55.json,727337,902428,58,Woman
3,943714,DepthScenes,duration_manipulation_targetAtFixation,jsons/VE125_randls_55.json,http://54.235.29.9/FacialAge/BNav_EC2/DepthDuration/v2_depth_duration_MTurk/v2_DepthDuration_HTML.html#102,102,1366,768,1366,768,10-2-2022,14-30-2,4,depth_duration_stimuli/001447_2014-06-19_17-00-32_260595134347_rgbf000082-resize_5/001447_2014-06-19_17-00-32_260595134347_rgbf000082-resize_5-target.png,125,4.13775,1,3109,111,feet,jsons/VE125_randls_55.json,727337,902428,58,Woman
4,943714,DepthScenes,duration_manipulation_targetAtFixation,jsons/VE125_randls_55.json,http://54.235.29.9/FacialAge/BNav_EC2/DepthDuration/v2_depth_duration_MTurk/v2_DepthDuration_HTML.html#102,102,1366,768,1366,768,10-2-2022,14-30-2,5,depth_duration_stimuli/002375_2014-06-28_20-13-44_260595134347_rgbf000032-resize_1/002375_2014-06-28_20-13-44_260595134347_rgbf000032-resize_1-target.png,125,4.0175,1,3253,115,feet,jsons/VE125_randls_55.json,727337,902428,58,Woman
5,943714,DepthScenes,duration_manipulation_targetAtFixation,jsons/VE125_randls_55.json,http://54.235.29.9/FacialAge/BNav_EC2/DepthDuration/v2_depth_duration_MTurk/v2_DepthDuration_HTML.html#102,102,1366,768,1366,768,10-2-2022,14-30-2,6,depth_duration_stimuli/002657_2014-06-13_15-29-54_094959634447_rgbf000150-resize_1/002657_2014-06-13_15-29-54_094959634447_rgbf000150-resize_1-target.png,125,4.919,1,6213,112,feet,jsons/VE125_randls_55.json,727337,902428,58,Woman
6,943714,DepthScenes,duration_manipulation_targetAtFixation,jsons/VE125_randls_55.json,http://54.235.29.9/FacialAge/BNav_EC2/DepthDuration/v2_depth_duration_MTurk/v2_DepthDuration_HTML.html#102,102,1366,768,1366,768,10-2-2022,14-30-2,7,depth_duration_stimuli/002630_2014-06-24_14-47-50_094959634447_rgbf000055-resize_1/002630_2014-06-24_14-47-50_094959634447_rgbf000055-resize_1-target.png,125,3.0095,2,2694,114,feet,jsons/VE125_randls_55.json,727337,902428,58,Woman
7,943714,DepthScenes,duration_manipulation_targetAtFixation,jsons/VE125_randls_55.json,http://54.235.29.9/FacialAge/BNav_EC2/DepthDuration/v2_depth_duration_MTurk/v2_DepthDuration_HTML.html#102,102,1366,768,1366,768,10-2-2022,14-30-2,8,depth_duration_stimuli/002758_2014-06-22_19-11-20_094959634447_rgbf000128-resize_1/002758_2014-06-22_19-11-20_094959634447_rgbf000128-resize_1-target.png,125,2.555,1,2802,119,feet,jsons/VE125_randls_55.json,727337,902428,58,Woman
8,943714,DepthScenes,duration_manipulation_targetAtFixation,jsons/VE125_randls_55.json,http://54.235.29.9/FacialAge/BNav_EC2/DepthDuration/v2_depth_duration_MTurk/v2_DepthDuration_HTML.html#102,102,1366,768,1366,768,10-2-2022,14-30-2,9,depth_duration_stimuli/000810_2014-06-08_17-20-01_260595134347_rgbf000105-resize_0/000810_2014-06-08_17-20-01_260595134347_rgbf000105-resize_0-target.png,125,1.4865,1,10401,127,feet,jsons/VE125_randls_55.json,727337,902428,58,Woman
9,943714,DepthScenes,duration_manipulation_targetAtFixation,jsons/VE125_randls_55.json,http://54.235.29.9/FacialAge/BNav_EC2/DepthDuration/v2_depth_duration_MTurk/v2_DepthDuration_HTML.html#102,102,1366,768,1366,768,10-2-2022,14-30-2,10,depth_duration_stimuli/001214_2014-06-17_16-13-55_260595134347_rgbf000111-resize_0/001214_2014-06-17_16-13-55_260595134347_rgbf000111-resize_0-target.png,125,2.6505,1,2729,135,feet,jsons/VE125_randls_55.json,727337,902428,58,Woman
10,943714,DepthScenes,duration_manipulation_targetAtFixation,jsons/VE125_randls_55.json,http://54.235.29.9/FacialAge/BNav_EC2/DepthDuration/v2_depth_duration_MTurk/v2_DepthDuration_HTML.html#102,102,1366,768,1366,768,10-2-2022,14-30-2,11,depth_duration_stimuli/003534_2014-05-22_15-06-10_094959634447_rgbf000102-resize_4/003534_2014-05-22_15-06-10_094959634447_rgbf000102-resize_4-target.png,125,1.426,1,2910,125,feet,jsons/VE125_randls_55.json,727337,902428,58,Woman
11,943714,DepthScenes,duration_manipulation_targetAtFixation,jsons/VE125_randls_55.json,http://54.235.29.9/FacialAge/BNav_EC2/DepthDuration/v2_depth_duration_MTurk/v2_DepthDuration_HTML.html#102,102,1366,768,1366,768,10-2-2022,14-30-2,12,depth_duration_stimuli/002637_2014-06-24_14-51-13_094959634447_rgbf000066-resize_4/002637_2014-06-24_14-51-13_094959634447_rgbf000066-resize_4-target.png,125,1.9955,2,2478,127,feet,jsons/VE125_randls_55.json,727337,902428,58,Woman
12,943714,DepthScenes,duration_manipulation_targetAtFixation,jsons/VE125_randls_55.json,http://54.235.29.9/FacialAge/BNav_EC2/DepthDuration/v2_depth_duration_MTurk/v2_DepthDuration_HTML.html#102,102,1366,768,1366,768,10-2-2022,14-30-2,13,depth_duration_stimuli/000569_2014-06-09_22-51-47_260595134347_rgbf000141-resize_3/000569_2014-06-09_22-51-47_260595134347_rgbf000141-resize-original.jpg,125,4.512,0,3577,123,feet,jsons/VE125_randls_55.json,727337,902428,58,Woman
13,943714,DepthScenes,duration_manipulation_targetAtFixation,jsons/VE125_randls_55.json,http://54.235.29.9/FacialAge/BNav_EC2/DepthDuration/v2_depth_duration_MTurk/v2_DepthDuration_HTML.html#102,102,1366,768,1366,768,10-2-2022,14-30-2,14,depth_duration_stimuli/000436_2014-06-09_22-25-11_260595134347_rgbf000137-resize_1/000436_2014-06-09_22-25-11_260595134347_rgbf000137-resize_1-target.png,125,4.0705,1,2639,126,feet,jsons/VE125_randls_55.json,727337,902428,58,Woman
14,943714,DepthScenes,duration_manipulation_targetAtFixation,jsons/VE125_randls_55.json,http://54.235.29.9/FacialAge/BNav_EC2/DepthDuration/v2_depth_duration_MTurk/v2_DepthDuration_HTML.html#102,102,1366,768,1366,768,10-2-2022,14-30-2,15,depth_duration_stimuli/002444_2014-06-28_20-32-08_260595134347_rgbf000027-resize_0/002444_2014-06-28_20-32-08_260595134347_rgbf000027-resize_0-target.png,125,4.388999999999999,2,2907,119,feet,jsons/VE125_randls_55.json,727337,902428,58,Woman
15,943714,DepthScenes,duration_manipulation_targetAtFixation,jsons/VE125_randls_55.json,http://54.235.29.9/FacialAge/BNav_EC2/DepthDuration/v2_depth_duration_MTurk/v2_DepthDuration_HTML.html#102,102,1366,768,1366,768,10-2-2022,14-30-2,16,depth_duration_stimuli/002600_2014-06-24_14-27-04_094959634447_rgbf000074-resize_2/002600_2014-06-24_14-27-04_094959634447_rgbf000074-resize_2-target.png,125,2.7575,1,2494,116,feet,jsons/VE125_randls_55.json,727337,902428,58,Woman
16,943714,DepthScenes,duration_manipulation_targetAtFixation,jsons/VE125_randls_55.json,http://54.235.29.9/FacialAge/BNav_EC2/DepthDuration/v2_depth_duration_MTurk/v2_DepthDuration_HTML.html#102,102,1366,768,1366,768,10-2-2022,14-30-2,17,depth_duration_stimuli/003228_2014-05-14_13-42-35_094959634447_rgbf000101-resize_1/003228_2014-05-14_13-42-35_094959634447_rgbf000101-resize_1-target.png,125,1.9680000000000002,2,2797,117,feet,jsons/VE125_randls_55.json,727337,902428,58,Woman
17,943714,DepthScenes,duration_manipulation_targetAtFixation,jsons/VE125_randls_55.json,http://54.235.29.9/FacialAge/BNav_EC2/DepthDuration/v2_depth_duration_MTurk/v2_DepthDuration_HTML.html#102,102,1366,768,1366,768,10-2-2022,14-30-2,18,depth_duration_stimuli/000758_2014-06-08_22-05-08_260595134347_rgbf000085-resize_0/000758_2014-06-08_22-05-08_260595134347_rgbf000085-resize_0-target.png,125,3.3810000000000002,3,2841,126,feet,jsons/VE125_randls_55.json,727337,902428,58,Woman
18,943714,DepthScenes,duration_manipulation_targetAtFixation,jsons/VE125_randls_55.json,http://54.235.29.9/FacialAge/BNav_EC2/DepthDuration/v2_depth_duration_MTurk/v2_DepthDuration_HTML.html#102,102,1366,768,1366,768,10-2-2022,14-30-2,19,depth_duration_stimuli/000854_2014-06-09_19-43-13_260595134347_rgbf000066-resize_0/000854_2014-06-09_19-43-13_260595134347_rgbf000066-resize_0-target.png,125,3.068,2,3228,123,feet,jsons/VE125_randls_55.json,727337,902428,58,Woman
19,943714,DepthScenes,duration_manipulation_targetAtFixation,jsons/VE125_randls_55.json,http://54.235.29.9/FacialAge/BNav_EC2/DepthDuration/v2_depth_duration_MTurk/v2_DepthDuration_HTML.html#102,102,1366,768,1366,768,10-2-2022,14-30-2,20,depth_duration_stimuli/001199_2014-06-17_16-03-48_260595134347_rgbf000077-resize_0/001199_2014-06-17_16-03-48_260595134347_rgbf000077-resize_0-target.png,125,3.4375,2,3140,113,feet,jsons/VE125_randls_55.json,727337,902428,58,Woman
20,943714,DepthScenes,duration_manipulation_targetAtFixation,jsons/VE125_randls_55.json,http://54.235.29.9/FacialAge/BNav_EC2/DepthDuration/v2_depth_duration_MTurk/v2_DepthDuration_HTML.html#102,102,1366,768,1366,768,10-2-2022,14-30-2,21,depth_duration_stimuli/000502_2014-06-08_23-02-32_260595134347_rgbf000063-resize_4/000502_2014-06-08_23-02-32_260595134347_rgbf000063-resize_4-target.png,125,2.431,1,2496,124,feet,jsons/VE125_randls_55.json,727337,902428,58,Woman
21,943714,DepthScenes,duration_manipulation_targetAtFixation,jsons/VE125_randls_55.json,http://54.235.29.9/FacialAge/BNav_EC2/DepthDuration/v2_depth_duration_MTurk/v2_DepthDuration_HTML.html#102,102,1366,768,1366,768,10-2-2022,14-30-2,22,depth_duration_stimuli/000692_2014-06-08_13-09-42_260595134347_rgbf000199-resize_2/000692_2014-06-08_13-09-42_260595134347_rgbf000199-resize_2-target.png,125,3.661,3,2963,126,feet,jsons/VE125_randls_55.json,727337,902428,58,Woman
22,943714,DepthScenes,duration_manipulation_targetAtFixation,jsons/VE125_randls_55.json,http://54.235.29.9/FacialAge/BNav_EC2/DepthDuration/v2_depth_duration_MTurk/v2_DepthDuration_HTML.html#102,102,1366,768,1366,768,10-2-2022,14-30-2,23,depth_duration_stimuli/001094_2014-06-15_17-36-00_260595134347_rgbf000205-resize_0/001094_2014-06-15_17-36-00_260595134347_rgbf000205-resize_0-target.png,125,4.2175,2,2703,102,feet,jsons/VE125_randls_55.json,727337,902428,58,Woman
23,943714,DepthScenes,duration_manipulation_targetAtFixation,jsons/VE125_randls_55.json,http://54.235.29.9/FacialAge/BNav_EC2/DepthDuration/v2_depth_duration_MTurk/v2_DepthDuration_HTML.html#102,102,1366,768,1366,768,10-2-2022,14-30-2,24,depth_duration_stimuli/000917_2014-06-09_22-45-29_260595134347_rgbf000149-resize_3/000917_2014-06-09_22-45-29_260595134347_rgbf000149-resize_3-target.png,125,4.1865,3,2882,121,feet,jsons/VE125_randls_55.json,727337,902428,58,Woman
24,943714,DepthScenes,duration_manipulation_targetAtFixation,jsons/VE125_randls_55.json,http://54.235.29.9/FacialAge/BNav_EC2/DepthDuration/v2_depth_duration_MTurk/v2_DepthDuration_HTML.html#102,102,1366,768,1366,768,10-2-2022,14-30-2,25,depth_duration_stimuli/002323_2014-06-28_20-01-54_260595134347_rgbf000051-resize_4/002323_2014-06-28_20-01-54_260595134347_rgbf000051-resize_4-target.png,125,3.7310000000000003,3,3007,122,feet,jsons/VE125_randls_55.json,727337,902428,58,Woman
25,943714,DepthScenes,duration_manipulation_targetAtFixation,jsons/VE125_randls_55.json,http://54.235.29.9/FacialAge/BNav_EC2/DepthDuration/v2_depth_duration_MTurk/v2_DepthDuration_HTML.html#102,102,1366,768,1366,768,10-2-2022,14-30-2,26,depth_duration_stimuli/002509_2014-06-24_13-19-22_094959634447_rgbf000077-resize_0/002509_2014-06-24_13-19-22_094959634447_rgbf000077-resize_0-target.png,125,1.3065,2,2925,120,feet,jsons/VE125_randls_55.json,727337,902428,58,Woman
26,943714,DepthScenes,duration_manipulation_targetAtFixation,jsons/VE125_randls_55.json,http://54.235.29.9/FacialAge/BNav_EC2/DepthDuration/v2_depth_duration_MTurk/v2_DepthDuration_HTML.html#102,102,1366,768,1366,768,10-2-2022,14-30-2,27,depth_duration_stimuli/003338_2014-05-20_11-01-23_094959634447_rgbf000051-resize_6/003338_2014-05-20_11-01-23_094959634447_rgbf000051-resize_6-target.png,125,1.693,1,2550,116,feet,jsons/VE125_randls_55.json,727337,902428,58,Woman
27,943714,DepthScenes,duration_manipulation_targetAtFixation,jsons/VE125_randls_55.json,http://54.235.29.9/FacialAge/BNav_EC2/DepthDuration/v2_depth_duration_MTurk/v2_DepthDuration_HTML.html#102,102,1366,768,1366,768,10-2-2022,14-30-2,28,depth_duration_stimuli/002057_2014-06-24_21-00-13_260595134347_rgbf000120-resize_1/002057_2014-06-24_21-00-13_260595134347_rgbf000120-resize_1-target.png,125,2.967,3,12297,124,feet,jsons/VE125_randls_55.json,727337,902428,58,Woman
28,943714,DepthScenes,duration_manipulation_targetAtFixation,jsons/VE125_randls_55.json,http://54.235.29.9/FacialAge/BNav_EC2/DepthDuration/v2_depth_duration_MTurk/v2_DepthDuration_HTML.html#102,102,1366,768,1366,768,10-2-2022,14-30-2,29,depth_duration_stimuli/000709_2014-06-08_13-51-55_260595134347_rgbf000068-resize_3/000709_2014-06-08_13-51-55_260595134347_rgbf000068-resize_3-target.png,125,1.8030000000000002,3,2816,114,feet,jsons/VE125_randls_55.json,727337,902428,58,Woman
29,943714,DepthScenes,duration_manipulation_targetAtFixation,jsons/VE125_randls_55.json,http://54.235.29.9/FacialAge/BNav_EC2/DepthDuration/v2_depth_duration_MTurk/v2_DepthDuration_HTML.html#102,102,1366,768,1366,768,10-2-2022,14-30-2,30,depth_duration_stimuli/000375_2014-06-08_11-17-29_260595134347_rgbf000133-resize_2/000375_2014-06-08_11-17-29_260595134347_rgbf000133-resize-original.jpg,125,4.718,0,14706,127,feet,jsons/VE125_randls_55.json,727337,902428,58,Woman
30,943714,DepthScenes,duration_manipulation_targetAtFixation,jsons/VE125_randls_55.json,http://54.235.29.9/FacialAge/BNav_EC2/DepthDuration/v2_depth_duration_MTurk/v2_DepthDuration_HTML.html#102,102,1366,768,1366,768,10-2-2022,14-30-2,31,depth_duration_stimuli/000682_2014-06-08_23-14-58_260595134347_rgbf000041-resize_5/000682_2014-06-08_23-14-58_260595134347_rgbf000041-resize_5-target.png,125,2.7239999999999998,1,3371,119,feet,jsons/VE125_randls_55.json,727337,902428,58,Woman
31,943714,DepthScenes,duration_manipulation_targetAtFixation,jsons/VE125_randls_55.json,http://54.235.29.9/FacialAge/BNav_EC2/DepthDuration/v2_depth_duration_MTurk/v2_DepthDuration_HTML.html#102,102,1366,768,1366,768,10-2-2022,14-30-2,32,depth_duration_stimuli/001650_2014-06-20_12-09-00_260595134347_rgbf000087-resize_3/001650_2014-06-20_12-09-00_260595134347_rgbf000087-resize_3-target.png,125,1.9505,2,2759,125,feet,jsons/VE125_randls_55.json,727337,902428,58,Woman
32,943714,DepthScenes,duration_manipulation_targetAtFixation,jsons/VE125_randls_55.json,http://54.235.29.9/FacialAge/BNav_EC2/DepthDuration/v2_depth_duration_MTurk/v2_DepthDuration_HTML.html#102,102,1366,768,1366,768,10-2-2022,14-30-2,33,depth_duration_stimuli/001164_2014-06-17_15-35-46_260595134347_rgbf000085-resize_3/001164_2014-06-17_15-35-46_260595134347_rgbf000085-resize_3-target.png,125,2.354,3,2870,125,feet,jsons/VE125_randls_55.json,727337,902428,58,Woman
33,943714,DepthScenes,duration_manipulation_targetAtFixation,jsons/VE125_randls_55.json,http://54.235.29.9/FacialAge/BNav_EC2/DepthDuration/v2_depth_duration_MTurk/v2_DepthDuration_HTML.html#102,102,1366,768,1366,768,10-2-2022,14-30-2,34,depth_duration_stimuli/001136_2014-06-17_15-19-41_260595134347_rgbf000076-resize_3/001136_2014-06-17_15-19-41_260595134347_rgbf000076-resize_3-target.png,125,1.8655,3,2973,117,feet,jsons/VE125_randls_55.json,727337,902428,58,Woman
34,943714,DepthScenes,duration_manipulation_targetAtFixation,jsons/VE125_randls_55.json,http://54.235.29.9/FacialAge/BNav_EC2/DepthDuration/v2_depth_duration_MTurk/v2_DepthDuration_HTML.html#102,102,1366,768,1366,768,10-2-2022,14-30-2,35,depth_duration_stimuli/001808_2014-06-26_20-50-58_260595134347_rgbf000029-resize_1/001808_2014-06-26_20-50-58_260595134347_rgbf000029-resize_1-target.png,125,4.249,3,2922,125,feet,jsons/VE125_randls_55.json,727337,902428,58,Woman
35,943714,DepthScenes,duration_manipulation_targetAtFixation,jsons/VE125_randls_55.json,http://54.235.29.9/FacialAge/BNav_EC2/DepthDuration/v2_depth_duration_MTurk/v2_DepthDuration_HTML.html#102,102,1366,768,1366,768,10-2-2022,14-30-2,36,depth_duration_stimuli/001815_2014-06-26_20-52-55_260595134347_rgbf000020-resize_0/001815_2014-06-26_20-52-55_260595134347_rgbf000020-resize_0-target.png,125,3.3865,3,11745,124,feet,jsons/VE125_randls_55.json,727337,902428,58,Woman
36,943714,DepthScenes,duration_manipulation_targetAtFixation,jsons/VE125_randls_55.json,http://54.235.29.9/FacialAge/BNav_EC2/DepthDuration/v2_depth_duration_MTurk/v2_DepthDuration_HTML.html#102,102,1366,768,1366,768,10-2-2022,14-30-2,37,depth_duration_stimuli/001570_2014-06-20_17-21-09_260595134347_rgbf000135-resize_4/001570_2014-06-20_17-21-09_260595134347_rgbf000135-resize_4-target.png,125,4.467,2,3905,128,feet,jsons/VE125_randls_55.json,727337,902428,58,Woman
37,943714,DepthScenes,duration_manipulation_targetAtFixation,jsons/VE125_randls_55.json,http://54.235.29.9/FacialAge/BNav_EC2/DepthDuration/v2_depth_duration_MTurk/v2_DepthDuration_HTML.html#102,102,1366,768,1366,768,10-2-2022,14-30-2,38,depth_duration_stimuli/001392_2014-06-19_16-07-59_260595134347_rgbf000046-resize_1/001392_2014-06-19_16-07-59_260595134347_rgbf000046-resize_1-target.png,125,4.135,2,4005,159,feet,jsons/VE125_randls_55.json,727337,902428,58,Woman
38,943714,DepthScenes,duration_manipulation_targetAtFixation,jsons/VE125_randls_55.json,http://54.235.29.9/FacialAge/BNav_EC2/DepthDuration/v2_depth_duration_MTurk/v2_DepthDuration_HTML.html#102,102,1366,768,1366,768,10-2-2022,14-30-2,39,depth_duration_stimuli/001016_2014-06-09_16-16-10_260595134347_rgbf000112-resize_5/001016_2014-06-09_16-16-10_260595134347_rgbf000112-resize_5-target.png,125,1.6565,3,2997,137,feet,jsons/VE125_randls_55.json,727337,902428,58,Woman
39,943714,DepthScenes,duration_manipulation_targetAtFixation,jsons/VE125_randls_55.json,http://54.235.29.9/FacialAge/BNav_EC2/DepthDuration/v2_depth_duration_MTurk/v2_DepthDuration_HTML.html#102,102,1366,768,1366,768,10-2-2022,14-30-2,40,depth_duration_stimuli/002340_2014-06-28_20-05-46_260595134347_rgbf000113-resize_0/002340_2014-06-28_20-05-46_260595134347_rgbf000113-resize_0-target.png,125,2.4735,2,3542,116,feet,jsons/VE125_randls_55.json,727337,902428,58,Woman
40,943714,DepthScenes,duration_manipulation_targetAtFixation,jsons/VE125_randls_55.json,http://54.235.29.9/FacialAge/BNav_EC2/DepthDuration/v2_depth_duration_MTurk/v2_DepthDuration_HTML.html#102,102,1366,768,1366,768,10-2-2022,14-30-2,41,depth_duration_stimuli/002043_2014-06-24_20-29-38_260595134347_rgbf000039-resize_4/002043_2014-06-24_20-29-38_260595134347_rgbf000039-resize_4-target.png,125,2.8435,1,3070,109,feet,jsons/VE125_randls_55.json,727337,902428,58,Woman
41,943714,DepthScenes,duration_manipulation_targetAtFixation,jsons/VE125_randls_55.json,http://54.235.29.9/FacialAge/BNav_EC2/DepthDuration/v2_depth_duration_MTurk/v2_DepthDuration_HTML.html#102,102,1366,768,1366,768,10-2-2022,14-30-2,42,depth_duration_stimuli/003048_2014-06-15_13-49-43_094959634447_rgbf000150-resize_1/003048_2014-06-15_13-49-43_094959634447_rgbf000150-resize_1-target.png,125,4.0035,4,3799,134,feet,jsons/VE125_randls_55.json,727337,902428,58,Woman
42,943714,DepthScenes,duration_manipulation_targetAtFixation,jsons/VE125_randls_55.json,http://54.235.29.9/FacialAge/BNav_EC2/DepthDuration/v2_depth_duration_MTurk/v2_DepthDuration_HTML.html#102,102,1366,768,1366,768,10-2-2022,14-30-2,43,depth_duration_stimuli/000414_2014-06-04_19-49-13_260595134347_rgbf000044-resize_0/000414_2014-06-04_19-49-13_260595134347_rgbf000044-resize_0-target.png,125,4.329,3,5018,129,feet,jsons/VE125_randls_55.json,727337,902428,58,Woman
43,943714,DepthScenes,duration_manipulation_targetAtFixation,jsons/VE125_randls_55.json,http://54.235.29.9/FacialAge/BNav_EC2/DepthDuration/v2_depth_duration_MTurk/v2_DepthDuration_HTML.html#102,102,1366,768,1366,768,10-2-2022,14-30-2,44,depth_duration_stimuli/003129_2014-05-12_10-48-10_094959634447_rgbf000100-resize_0/003129_2014-05-12_10-48-10_094959634447_rgbf000100-resize_0-target.png,125,4.9305,3,4252,110,feet,jsons/VE125_randls_55.json,727337,902428,58,Woman
44,943714,DepthScenes,duration_manipulation_targetAtFixation,jsons/VE125_randls_55.json,http://54.235.29.9/FacialAge/BNav_EC2/DepthDuration/v2_depth_duration_MTurk/v2_DepthDuration_HTML.html#102,102,1366,768,1366,768,10-2-2022,14-30-2,45,depth_duration_stimuli/000787_2014-06-08_22-33-53_260595134347_rgbf000175-resize_1/000787_2014-06-08_22-33-53_260595134347_rgbf000175-resize-original.jpg,125,4.784,1,18809,127,feet,jsons/VE125_randls_55.json,727337,902428,58,Woman
45,943714,DepthScenes,duration_manipulation_targetAtFixation,jsons/VE125_randls_55.json,http://54.235.29.9/FacialAge/BNav_EC2/DepthDuration/v2_depth_duration_MTurk/v2_DepthDuration_HTML.html#102,102,1366,768,1366,768,10-2-2022,14-30-2,46,depth_duration_stimuli/002663_2014-06-13_15-50-26_094959634447_rgbf000075-resize_1/002663_2014-06-13_15-50-26_094959634447_rgbf000075-resize_1-target.png,125,4.7495,2,3187,122,feet,jsons/VE125_randls_55.json,727337,902428,58,Woman
46,943714,DepthScenes,duration_manipulation_targetAtFixation,jsons/VE125_randls_55.json,http://54.235.29.9/FacialAge/BNav_EC2/DepthDuration/v2_depth_duration_MTurk/v2_DepthDuration_HTML.html#102,102,1366,768,1366,768,10-2-2022,14-30-2,47,depth_duration_stimuli/000409_2014-06-04_19-23-33_260595134347_rgbf000067-resize_0/000409_2014-06-04_19-23-33_260595134347_rgbf000067-resize_0-target.png,125,3.7335,1,2505,160,feet,jsons/VE125_randls_55.json,727337,902428,58,Woman
47,943714,DepthScenes,duration_manipulation_targetAtFixation,jsons/VE125_randls_55.json,http://54.235.29.9/FacialAge/BNav_EC2/DepthDuration/v2_depth_duration_MTurk/v2_DepthDuration_HTML.html#102,102,1366,768,1366,768,10-2-2022,14-30-2,48,depth_duration_stimuli/001133_2014-06-17_14-49-16_260595134347_rgbf000100-resize_0/001133_2014-06-17_14-49-16_260595134347_rgbf000100-resize_0-target.png,125,4.2115,3,10927,124,feet,jsons/VE125_randls_55.json,727337,902428,58,Woman
48,943714,DepthScenes,duration_manipulation_targetAtFixation,jsons/VE125_randls_55.json,http://54.235.29.9/FacialAge/BNav_EC2/DepthDuration/v2_depth_duration_MTurk/v2_DepthDuration_HTML.html#102,102,1366,768,1366,768,10-2-2022,14-30-2,49,depth_duration_stimuli/001132_2014-06-17_14-48-54_260595134347_rgbf000100-resize_2/001132_2014-06-17_14-48-54_260595134347_rgbf000100-resize_2-target.png,125,3.753,2,3200,123,feet,jsons/VE125_randls_55.json,727337,902428,58,Woman
49,943714,DepthScenes,duration_manipulation_targetAtFixation,jsons/VE125_randls_55.json,http://54.235.29.9/FacialAge/BNav_EC2/DepthDuration/v2_depth_duration_MTurk/v2_DepthDuration_HTML.html#102,102,1366,768,1366,768,10-2-2022,14-30-2,50,depth_duration_stimuli/001066_2014-06-08_22-03-20_260595134347_rgbf000066-resize_4/001066_2014-06-08_22-03-20_260595134347_rgbf000066-resize_4-target.png,125,4.2330000000000005,2,2591,122,feet,jsons/VE125_randls_55.json,727337,902428,58,Woman
50,943714,DepthScenes,duration_manipulation_targetAtFixation,jsons/VE125_randls_55.json,http://54.235.29.9/FacialAge/BNav_EC2/DepthDuration/v2_depth_duration_MTurk/v2_DepthDuration_HTML.html#102,102,1366,768,1366,768,10-2-2022,14-30-2,51,depth_duration_stimuli/000742_2014-06-08_18-48-09_260595134347_rgbf000164-resize_4/000742_2014-06-08_18-48-09_260595134347_rgbf000164-resize_4-target.png,125,4.632,1,2565,125,feet,jsons/VE125_randls_55.json,727337,902428,58,Woman
51,943714,DepthScenes,duration_manipulation_targetAtFixation,jsons/VE125_randls_55.json,http://54.235.29.9/FacialAge/BNav_EC2/DepthDuration/v2_depth_duration_MTurk/v2_DepthDuration_HTML.html#102,102,1366,768,1366,768,10-2-2022,14-30-2,52,depth_duration_stimuli/001417_2014-06-19_16-25-36_260595134347_rgbf000115-resize_5/001417_2014-06-19_16-25-36_260595134347_rgbf000115-resize_5-target.png,125,4.6255,2,19973,116,feet,jsons/VE125_randls_55.json,727337,902428,58,Woman
52,943714,DepthScenes,duration_manipulation_targetAtFixation,jsons/VE125_randls_55.json,http://54.235.29.9/FacialAge/BNav_EC2/DepthDuration/v2_depth_duration_MTurk/v2_DepthDuration_HTML.html#102,102,1366,768,1366,768,10-2-2022,14-30-2,53,depth_duration_stimuli/003081_2014-06-15_15-19-16_094959634447_rgbf000150-resize_1/003081_2014-06-15_15-19-16_094959634447_rgbf000150-resize_1-target.png,125,3.9125,3,5514,150,feet,jsons/VE125_randls_55.json,727337,902428,58,Woman
53,943714,DepthScenes,duration_manipulation_targetAtFixation,jsons/VE125_randls_55.json,http://54.235.29.9/FacialAge/BNav_EC2/DepthDuration/v2_depth_duration_MTurk/v2_DepthDuration_HTML.html#102,102,1366,768,1366,768,10-2-2022,14-30-2,54,depth_duration_stimuli/001055_2014-06-08_18-45-35_260595134347_rgbf000111-resize_4/001055_2014-06-08_18-45-35_260595134347_rgbf000111-resize_4-target.png,125,2.4290000000000003,1,3746,115,feet,jsons/VE125_randls_55.json,727337,902428,58,Woman
54,943714,DepthScenes,duration_manipulation_targetAtFixation,jsons/VE125_randls_55.json,http://54.235.29.9/FacialAge/BNav_EC2/DepthDuration/v2_depth_duration_MTurk/v2_DepthDuration_HTML.html#102,102,1366,768,1366,768,10-2-2022,14-30-2,55,depth_duration_stimuli/000549_2014-06-08_22-10-24_260595134347_rgbf000247-resize_3/000549_2014-06-08_22-10-24_260595134347_rgbf000247-resize_3-target.png,125,1.841,1,2605,126,feet,jsons/VE125_randls_55.json,727337,902428,58,Woman
55,943714,DepthScenes,duration_manipulation_targetAtFixation,jsons/VE125_randls_55.json,http://54.235.29.9/FacialAge/BNav_EC2/DepthDuration/v2_depth_duration_MTurk/v2_DepthDuration_HTML.html#102,102,1366,768,1366,768,10-2-2022,14-30-2,56,depth_duration_stimuli/002748_2014-06-22_19-07-22_094959634447_rgbf000078-resize_1/002748_2014-06-22_19-07-22_094959634447_rgbf000078-resize_1-target.png,125,4.6705,4,3267,119,feet,jsons/VE125_randls_55.json,727337,902428,58,Woman
56,943714,DepthScenes,duration_manipulation_targetAtFixation,jsons/VE125_randls_55.json,http://54.235.29.9/FacialAge/BNav_EC2/DepthDuration/v2_depth_duration_MTurk/v2_DepthDuration_HTML.html#102,102,1366,768,1366,768,10-2-2022,14-30-2,57,depth_duration_stimuli/002995_2014-06-15_12-31-26_094959634447_rgbf000150-resize_1/002995_2014-06-15_12-31-26_094959634447_rgbf000150-resize_1-target.png,125,3.8360000000000003,4,2548,136,feet,jsons/VE125_randls_55.json,727337,902428,58,Woman
57,943714,DepthScenes,duration_manipulation_targetAtFixation,jsons/VE125_randls_55.json,http://54.235.29.9/FacialAge/BNav_EC2/DepthDuration/v2_depth_duration_MTurk/v2_DepthDuration_HTML.html#102,102,1366,768,1366,768,10-2-2022,14-30-2,58,depth_duration_stimuli/003492_2014-05-21_15-50-55_094959634447_rgbf000828-resize_1/003492_2014-05-21_15-50-55_094959634447_rgbf000828-resize_1-target.png,125,4.06875,3,10733,128,feet,jsons/VE125_randls_55.json,727337,902428,58,Woman
58,943714,DepthScenes,duration_manipulation_targetAtFixation,jsons/VE125_randls_55.json,http://54.235.29.9/FacialAge/BNav_EC2/DepthDuration/v2_depth_duration_MTurk/v2_DepthDuration_HTML.html#102,102,1366,768,1366,768,10-2-2022,14-30-2,59,depth_duration_stimuli/002568_2014-06-24_13-59-21_094959634447_rgbf000062-resize_4/002568_2014-06-24_13-59-21_094959634447_rgbf000062-resize_4-target.png,125,3.015,5,3304,161,feet,jsons/VE125_randls_55.json,727337,902428,58,Woman
59,943714,DepthScenes,duration_manipulation_targetAtFixation,jsons/VE125_randls_55.json,http://54.235.29.9/FacialAge/BNav_EC2/DepthDuration/v2_depth_duration_MTurk/v2_DepthDuration_HTML.html#102,102,1366,768,1366,768,10-2-2022,14-30-2,60,depth_duration_stimuli/000486_2014-06-09_20-47-20_260595134347_rgbf000143-resize_2/000486_2014-06-09_20-47-20_260595134347_rgbf000143-resize_2-target.png,125,4.8325,1,3637,133,feet,jsons/VE125_randls_55.json,727337,902428,58,Woman
60,943714,DepthScenes,duration_manipulation_targetAtFixation,jsons/VE125_randls_55.json,http://54.235.29.9/FacialAge/BNav_EC2/DepthDuration/v2_depth_duration_MTurk/v2_DepthDuration_HTML.html#102,102,1366,768,1366,768,10-2-2022,14-30-2,61,depth_duration_stimuli/003083_2014-06-15_15-21-03_094959634447_rgbf000063-resize_1/003083_2014-06-15_15-21-03_094959634447_rgbf000063-resize_1-target.png,125,4.1405,5,3662,129,feet,jsons/VE125_randls_55.json,727337,902428,58,Woman
61,943714,DepthScenes,duration_manipulation_targetAtFixation,jsons/VE125_randls_55.json,http://54.235.29.9/FacialAge/BNav_EC2/DepthDuration/v2_depth_duration_MTurk/v2_DepthDuration_HTML.html#102,102,1366,768,1366,768,10-2-2022,14-30-2,62,depth_duration_stimuli/001555_2014-06-20_17-12-10_260595134347_rgbf000065-resize_4/001555_2014-06-20_17-12-10_260595134347_rgbf000065-resize_4-target.png,125,1.633,1,6038,139,feet,jsons/VE125_randls_55.json,727337,902428,58,Woman
62,943714,DepthScenes,duration_manipulation_targetAtFixation,jsons/VE125_randls_55.json,http://54.235.29.9/FacialAge/BNav_EC2/DepthDuration/v2_depth_duration_MTurk/v2_DepthDuration_HTML.html#102,102,1366,768,1366,768,10-2-2022,14-30-2,63,depth_duration_stimuli/000103_2014-05-14_22-01-17_260595134347_rgbf000152-resize_5/000103_2014-05-14_22-01-17_260595134347_rgbf000152-resize_5-target.png,125,1.993,2,3116,133,feet,jsons/VE125_randls_55.json,727337,902428,58,Woman
63,943714,DepthScenes,duration_manipulation_targetAtFixation,jsons/VE125_randls_55.json,http://54.235.29.9/FacialAge/BNav_EC2/DepthDuration/v2_depth_duration_MTurk/v2_DepthDuration_HTML.html#102,102,1366,768,1366,768,10-2-2022,14-30-2,64,depth_duration_stimuli/001175_2014-06-17_15-45-55_260595134347_rgbf000129-resize_4/001175_2014-06-17_15-45-55_260595134347_rgbf000129-resize_4-target.png,125,4.255,3,3281,114,feet,jsons/VE125_randls_55.json,727337,902428,58,Woman
64,943714,DepthScenes,duration_manipulation_targetAtFixation,jsons/VE125_randls_55.json,http://54.235.29.9/FacialAge/BNav_EC2/DepthDuration/v2_depth_duration_MTurk/v2_DepthDuration_HTML.html#102,102,1366,768,1366,768,10-2-2022,14-30-2,65,depth_duration_stimuli/003490_2014-05-21_15-50-11_094959634447_rgbf000101-resize_3/003490_2014-05-21_15-50-11_094959634447_rgbf000101-resize_3-target.png,125,3.6445,2,3149,127,feet,jsons/VE125_randls_55.json,727337,902428,58,Woman
65,943714,DepthScenes,duration_manipulation_targetAtFixation,jsons/VE125_randls_55.json,http://54.235.29.9/FacialAge/BNav_EC2/DepthDuration/v2_depth_duration_MTurk/v2_DepthDuration_HTML.html#102,102,1366,768,1366,768,10-2-2022,14-30-2,66,depth_duration_stimuli/001222_2014-06-17_16-24-06_260595134347_rgbf000073-resize_0/001222_2014-06-17_16-24-06_260595134347_rgbf000073-resize-original.jpg,125,1.4385,5,3062,124,feet,jsons/VE125_randls_55.json,727337,902428,58,Woman
66,943714,DepthScenes,duration_manipulation_targetAtFixation,jsons/VE125_randls_55.json,http://54.235.29.9/FacialAge/BNav_EC2/DepthDuration/v2_depth_duration_MTurk/v2_DepthDuration_HTML.html#102,102,1366,768,1366,768,10-2-2022,14-30-2,67,depth_duration_stimuli/002445_2014-06-28_20-32-16_260595134347_rgbf000029-resize_4/002445_2014-06-28_20-32-16_260595134347_rgbf000029-resize_4-target.png,125,2.5315,2,4251,126,feet,jsons/VE125_randls_55.json,727337,902428,58,Woman
67,943714,DepthScenes,duration_manipulation_targetAtFixation,jsons/VE125_randls_55.json,http://54.235.29.9/FacialAge/BNav_EC2/DepthDuration/v2_depth_duration_MTurk/v2_DepthDuration_HTML.html#102,102,1366,768,1366,768,10-2-2022,14-30-2,68,depth_duration_stimuli/000780_2014-06-08_22-28-29_260595134347_rgbf000126-resize_1/000780_2014-06-08_22-28-29_260595134347_rgbf000126-resize_1-target.png,125,3.3825,5,3095,134,feet,jsons/VE125_randls_55.json,727337,902428,58,Woman
68,943714,DepthScenes,duration_manipulation_targetAtFixation,jsons/VE125_randls_55.json,http://54.235.29.9/FacialAge/BNav_EC2/DepthDuration/v2_depth_duration_MTurk/v2_DepthDuration_HTML.html#102,102,1366,768,1366,768,10-2-2022,14-30-2,69,depth_duration_stimuli/001244_2014-06-17_16-47-45_260595134347_rgbf000030-resize_4/001244_2014-06-17_16-47-45_260595134347_rgbf000030-resize_4-target.png,125,2.0425,4,3110,110,feet,jsons/VE125_randls_55.json,727337,902428,58,Woman
69,943714,DepthScenes,duration_manipulation_targetAtFixation,jsons/VE125_randls_55.json,http://54.235.29.9/FacialAge/BNav_EC2/DepthDuration/v2_depth_duration_MTurk/v2_DepthDuration_HTML.html#102,102,1366,768,1366,768,10-2-2022,14-30-2,70,depth_duration_stimuli/003495_2014-05-21_16-01-51_094959634447_rgbf000100-resize_3/003495_2014-05-21_16-01-51_094959634447_rgbf000100-resize_3-target.png,125,1.6255,1,3681,132,feet,jsons/VE125_randls_55.json,727337,902428,58,Woman
70,943714,DepthScenes,duration_manipulation_targetAtFixation,jsons/VE125_randls_55.json,http://54.235.29.9/FacialAge/BNav_EC2/DepthDuration/v2_depth_duration_MTurk/v2_DepthDuration_HTML.html#102,102,1366,768,1366,768,10-2-2022,14-30-2,71,depth_duration_stimuli/002272_2014-06-28_18-53-56_260595134347_rgbf000067-resize_2/002272_2014-06-28_18-53-56_260595134347_rgbf000067-resize_2-target.png,125,1.138,2,3541,124,feet,jsons/VE125_randls_55.json,727337,902428,58,Woman
71,943714,DepthScenes,duration_manipulation_targetAtFixation,jsons/VE125_randls_55.json,http://54.235.29.9/FacialAge/BNav_EC2/DepthDuration/v2_depth_duration_MTurk/v2_DepthDuration_HTML.html#102,102,1366,768,1366,768,10-2-2022,14-30-2,72,depth_duration_stimuli/001571_2014-06-20_17-21-32_260595134347_rgbf000089-resize_1/001571_2014-06-20_17-21-32_260595134347_rgbf000089-resize_1-target.png,125,1.86,4,3178,124,feet,jsons/VE125_randls_55.json,727337,902428,58,Woman
72,943714,DepthScenes,duration_manipulation_targetAtFixation,jsons/VE125_randls_55.json,http://54.235.29.9/FacialAge/BNav_EC2/DepthDuration/v2_depth_duration_MTurk/v2_DepthDuration_HTML.html#102,102,1366,768,1366,768,10-2-2022,14-30-2,73,depth_duration_stimuli/000493_2014-06-09_21-01-18_260595134347_rgbf000196-resize_3/000493_2014-06-09_21-01-18_260595134347_rgbf000196-resize_3-target.png,125,3.44,1,3058,53,feet,jsons/VE125_randls_55.json,727337,902428,58,Woman
73,943714,DepthScenes,duration_manipulation_targetAtFixation,jsons/VE125_randls_55.json,http://54.235.29.9/FacialAge/BNav_EC2/DepthDuration/v2_depth_duration_MTurk/v2_DepthDuration_HTML.html#102,102,1366,768,1366,768,10-2-2022,14-30-2,74,depth_duration_stimuli/000191_2014-05-12_17-07-38_260595134347_rgbf000199-resize_0/000191_2014-05-12_17-07-38_260595134347_rgbf000199-resize_0-target.png,125,3.7995,5,2810,125,feet,jsons/VE125_randls_55.json,727337,902428,58,Woman
74,943714,DepthScenes,duration_manipulation_targetAtFixation,jsons/VE125_randls_55.json,http://54.235.29.9/FacialAge/BNav_EC2/DepthDuration/v2_depth_duration_MTurk/v2_DepthDuration_HTML.html#102,102,1366,768,1366,768,10-2-2022,14-30-2,75,depth_duration_stimuli/002788_2014-06-22_19-36-03_094959634447_rgbf000088-resize_2/002788_2014-06-22_19-36-03_094959634447_rgbf000088-resize_2-target.png,125,1.6465,4,2738,111,feet,jsons/VE125_randls_55.json,727337,902428,58,Woman
75,943714,DepthScenes,duration_manipulation_targetAtFixation,jsons/VE125_randls_55.json,http://54.235.29.9/FacialAge/BNav_EC2/DepthDuration/v2_depth_duration_MTurk/v2_DepthDuration_HTML.html#102,102,1366,768,1366,768,10-2-2022,14-30-2,76,depth_duration_stimuli/000749_2014-06-08_21-55-06_260595134347_rgbf000070-resize_2/000749_2014-06-08_21-55-06_260595134347_rgbf000070-resize_2-target.png,125,2.331,3,8423,118,feet,jsons/VE125_randls_55.json,727337,902428,58,Woman
76,943714,DepthScenes,duration_manipulation_targetAtFixation,jsons/VE125_randls_55.json,http://54.235.29.9/FacialAge/BNav_EC2/DepthDuration/v2_depth_duration_MTurk/v2_DepthDuration_HTML.html#102,102,1366,768,1366,768,10-2-2022,14-30-2,77,depth_duration_stimuli/000009_2014-05-26_14-32-05_260595134347_rgbf000034-resize_3/000009_2014-05-26_14-32-05_260595134347_rgbf000034-resize_3-target.png,125,3.8715,4,3126,83,feet,jsons/VE125_randls_55.json,727337,902428,58,Woman
77,943714,DepthScenes,duration_manipulation_targetAtFixation,jsons/VE125_randls_55.json,http://54.235.29.9/FacialAge/BNav_EC2/DepthDuration/v2_depth_duration_MTurk/v2_DepthDuration_HTML.html#102,102,1366,768,1366,768,10-2-2022,14-30-2,78,depth_duration_stimuli/001828_2014-06-26_21-40-03_260595134347_rgbf000024-resize_0/001828_2014-06-26_21-40-03_260595134347_rgbf000024-resize_0-target.png,125,4.8260000000000005,1,2765,131,feet,jsons/VE125_randls_55.json,727337,902428,58,Woman
78,943714,DepthScenes,duration_manipulation_targetAtFixation,jsons/VE125_randls_55.json,http://54.235.29.9/FacialAge/BNav_EC2/DepthDuration/v2_depth_duration_MTurk/v2_DepthDuration_HTML.html#102,102,1366,768,1366,768,10-2-2022,14-30-2,79,depth_duration_stimuli/003292_2014-05-14_21-53-49_094959634447_rgbf000100-resize_2/003292_2014-05-14_21-53-49_094959634447_rgbf000100-resize_2-target.png,125,3.4815,2,3411,128,feet,jsons/VE125_randls_55.json,727337,902428,58,Woman
79,943714,DepthScenes,duration_manipulation_targetAtFixation,jsons/VE125_randls_55.json,http://54.235.29.9/FacialAge/BNav_EC2/DepthDuration/v2_depth_duration_MTurk/v2_DepthDuration_HTML.html#102,102,1366,768,1366,768,10-2-2022,14-30-2,80,depth_duration_stimuli/002639_2014-06-24_14-51-37_094959634447_rgbf000074-resize_4/002639_2014-06-24_14-51-37_094959634447_rgbf000074-resize_4-target.png,125,4.0375,2,3334,121,feet,jsons/VE125_randls_55.json,727337,902428,58,Woman
80,943714,DepthScenes,duration_manipulation_targetAtFixation,jsons/VE125_randls_55.json,http://54.235.29.9/FacialAge/BNav_EC2/DepthDuration/v2_depth_duration_MTurk/v2_DepthDuration_HTML.html#102,102,1366,768,1366,768,10-2-2022,14-30-2,81,depth_duration_stimuli/002964_2014-06-08_17-46-11_094959634447_rgbf000091-resize_4/002964_2014-06-08_17-46-11_094959634447_rgbf000091-resize_4-target.png,125,1.6909999999999998,1,2844,122,feet,jsons/VE125_randls_55.json,727337,902428,58,Woman
81,943714,DepthScenes,duration_manipulation_targetAtFixation,jsons/VE125_randls_55.json,http://54.235.29.9/FacialAge/BNav_EC2/DepthDuration/v2_depth_duration_MTurk/v2_DepthDuration_HTML.html#102,102,1366,768,1366,768,10-2-2022,14-30-2,82,depth_duration_stimuli/002136_2014-06-25_21-18-03_260595134347_rgbf000109-resize_3/002136_2014-06-25_21-18-03_260595134347_rgbf000109-resize_3-target.png,125,1.9569999999999999,3,3313,126,feet,jsons/VE125_randls_55.json,727337,902428,58,Woman
82,943714,DepthScenes,duration_manipulation_targetAtFixation,jsons/VE125_randls_55.json,http://54.235.29.9/FacialAge/BNav_EC2/DepthDuration/v2_depth_duration_MTurk/v2_DepthDuration_HTML.html#102,102,1366,768,1366,768,10-2-2022,14-30-2,83,depth_duration_stimuli/002549_2014-06-24_13-41-39_094959634447_rgbf000022-resize_3/002549_2014-06-24_13-41-39_094959634447_rgbf000022-resize_3-target.png,125,1.476,4,2832,121,feet,jsons/VE125_randls_55.json,727337,902428,58,Woman
83,943714,DepthScenes,duration_manipulation_targetAtFixation,jsons/VE125_randls_55.json,http://54.235.29.9/FacialAge/BNav_EC2/DepthDuration/v2_depth_duration_MTurk/v2_DepthDuration_HTML.html#102,102,1366,768,1366,768,10-2-2022,14-30-2,84,depth_duration_stimuli/002750_2014-06-22_19-08-03_094959634447_rgbf000094-resize_4/002750_2014-06-22_19-08-03_094959634447_rgbf000094-resize_4-target.png,125,2.354,3,4736,109,feet,jsons/VE125_randls_55.json,727337,902428,58,Woman
84,943714,DepthScenes,duration_manipulation_targetAtFixation,jsons/VE125_randls_55.json,http://54.235.29.9/FacialAge/BNav_EC2/DepthDuration/v2_depth_duration_MTurk/v2_DepthDuration_HTML.html#102,102,1366,768,1366,768,10-2-2022,14-30-2,85,depth_duration_stimuli/000736_2014-06-08_18-24-15_260595134347_rgbf000206-resize_3/000736_2014-06-08_18-24-15_260595134347_rgbf000206-resize_3-target.png,125,3.515,2,3329,131,feet,jsons/VE125_randls_55.json,727337,902428,58,Woman
85,943714,DepthScenes,duration_manipulation_targetAtFixation,jsons/VE125_randls_55.json,http://54.235.29.9/FacialAge/BNav_EC2/DepthDuration/v2_depth_duration_MTurk/v2_DepthDuration_HTML.html#102,102,1366,768,1366,768,10-2-2022,14-30-2,86,depth_duration_stimuli/000137_2014-05-20_17-04-49_260595134347_rgbf000120-resize_1/000137_2014-05-20_17-04-49_260595134347_rgbf000120-resize_1-target.png,125,3.786,2,3135,119,feet,jsons/VE125_randls_55.json,727337,902428,58,Woman
86,943714,DepthScenes,duration_manipulation_targetAtFixation,jsons/VE125_randls_55.json,http://54.235.29.9/FacialAge/BNav_EC2/DepthDuration/v2_depth_duration_MTurk/v2_DepthDuration_HTML.html#102,102,1366,768,1366,768,10-2-2022,14-30-2,87,depth_duration_stimuli/001110_2014-06-15_17-25-28_260595134347_rgbf000150-resize_1/001110_2014-06-15_17-25-28_260595134347_rgbf000150-resize_1-target.png,125,1.7115,2,3564,124,feet,jsons/VE125_randls_55.json,727337,902428,58,Woman
87,943714,DepthScenes,duration_manipulation_targetAtFixation,jsons/VE125_randls_55.json,http://54.235.29.9/FacialAge/BNav_EC2/DepthDuration/v2_depth_duration_MTurk/v2_DepthDuration_HTML.html#102,102,1366,768,1366,768,10-2-2022,14-30-2,88,depth_duration_stimuli/000927_2014-06-09_16-32-30_260595134347_rgbf000123-resize_3/000927_2014-06-09_16-32-30_260595134347_rgbf000123-resize_3-target.png,125,2.6785,1,3065,114,feet,jsons/VE125_randls_55.json,727337,902428,58,Woman
88,943714,DepthScenes,duration_manipulation_targetAtFixation,jsons/VE125_randls_55.json,http://54.235.29.9/FacialAge/BNav_EC2/DepthDuration/v2_depth_duration_MTurk/v2_DepthDuration_HTML.html#102,102,1366,768,1366,768,10-2-2022,14-30-2,89,depth_duration_stimuli/000739_2014-06-08_18-45-58_260595134347_rgbf000068-resize_1/000739_2014-06-08_18-45-58_260595134347_rgbf000068-resize_1-target.png,125,3.534,4,2939,121,feet,jsons/VE125_randls_55.json,727337,902428,58,Woman
89,943714,DepthScenes,duration_manipulation_targetAtFixation,jsons/VE125_randls_55.json,http://54.235.29.9/FacialAge/BNav_EC2/DepthDuration/v2_depth_duration_MTurk/v2_DepthDuration_HTML.html#102,102,1366,768,1366,768,10-2-2022,14-30-2,90,depth_duration_stimuli/000734_2014-06-08_17-39-11_260595134347_rgbf000128-resize_2/000734_2014-06-08_17-39-11_260595134347_rgbf000128-resize_2-target.png,125,4.098,4,2550,126,feet,jsons/VE125_randls_55.json,727337,902428,58,Woman
90,943714,DepthScenes,duration_manipulation_targetAtFixation,jsons/VE125_randls_55.json,http://54.235.29.9/FacialAge/BNav_EC2/DepthDuration/v2_depth_duration_MTurk/v2_DepthDuration_HTML.html#102,102,1366,768,1366,768,10-2-2022,14-30-2,91,depth_duration_stimuli/001092_2014-06-15_17-34-58_260595134347_rgbf000171-resize_3/001092_2014-06-15_17-34-58_260595134347_rgbf000171-resize_3-target.png,125,2.6935,2,4426,109,feet,jsons/VE125_randls_55.json,727337,902428,58,Woman
91,943714,DepthScenes,duration_manipulation_targetAtFixation,jsons/VE125_randls_55.json,http://54.235.29.9/FacialAge/BNav_EC2/DepthDuration/v2_depth_duration_MTurk/v2_DepthDuration_HTML.html#102,102,1366,768,1366,768,10-2-2022,14-30-2,92,depth_duration_stimuli/002545_2014-06-24_13-38-53_094959634447_rgbf000080-resize_4/002545_2014-06-24_13-38-53_094959634447_rgbf000080-resize_4-target.png,125,1.9205,1,3921,74,feet,jsons/VE125_randls_55.json,727337,902428,58,Woman
92,943714,DepthScenes,duration_manipulation_targetAtFixation,jsons/VE125_randls_55.json,http://54.235.29.9/FacialAge/BNav_EC2/DepthDuration/v2_depth_duration_MTurk/v2_DepthDuration_HTML.html#102,102,1366,768,1366,768,10-2-2022,14-30-2,93,depth_duration_stimuli/001449_2014-06-19_17-01-27_260595134347_rgbf000116-resize_2/001449_2014-06-19_17-01-27_260595134347_rgbf000116-resize_2-target.png,125,3.452,2,3216,111,feet,jsons/VE125_randls_55.json,727337,902428,58,Woman
93,943714,DepthScenes,duration_manipulation_targetAtFixation,jsons/VE125_randls_55.json,http://54.235.29.9/FacialAge/BNav_EC2/DepthDuration/v2_depth_duration_MTurk/v2_DepthDuration_HTML.html#102,102,1366,768,1366,768,10-2-2022,14-30-2,94,depth_duration_stimuli/001450_2014-06-19_17-02-03_260595134347_rgbf000203-resize_4/001450_2014-06-19_17-02-03_260595134347_rgbf000203-resize_4-target.png,125,4.0106666666667,3,3039,111,feet,jsons/VE125_randls_55.json,727337,902428,58,Woman
94,943714,DepthScenes,duration_manipulation_targetAtFixation,jsons/VE125_randls_55.json,http://54.235.29.9/FacialAge/BNav_EC2/DepthDuration/v2_depth_duration_MTurk/v2_DepthDuration_HTML.html#102,102,1366,768,1366,768,10-2-2022,14-30-2,95,depth_duration_stimuli/001150_2014-06-17_15-27-34_260595134347_rgbf000108-resize_2/001150_2014-06-17_15-27-34_260595134347_rgbf000108-resize_2-target.png,125,4.0325,2,2609,124,feet,jsons/VE125_randls_55.json,727337,902428,58,Woman
95,943714,DepthScenes,duration_manipulation_targetAtFixation,jsons/VE125_randls_55.json,http://54.235.29.9/FacialAge/BNav_EC2/DepthDuration/v2_depth_duration_MTurk/v2_DepthDuration_HTML.html#102,102,1366,768,1366,768,10-2-2022,14-30-2,96,depth_duration_stimuli/000665_2014-06-09_20-42-35_260595134347_rgbf000110-resize_1/000665_2014-06-09_20-42-35_260595134347_rgbf000110-resize_1-target.png,125,3.057,5,4020,129,feet,jsons/VE125_randls_55.json,727337,902428,58,Woman
96,943714,DepthScenes,duration_manipulation_targetAtFixation,jsons/VE125_randls_55.json,http://54.235.29.9/FacialAge/BNav_EC2/DepthDuration/v2_depth_duration_MTurk/v2_DepthDuration_HTML.html#102,102,1366,768,1366,768,10-2-2022,14-30-2,97,depth_duration_stimuli/000906_2014-06-08_13-35-43_260595134347_rgbf000155-resize_1/000906_2014-06-08_13-35-43_260595134347_rgbf000155-resize_1-target.png,125,2.8489999999999998,2,3418,132,feet,jsons/VE125_randls_55.json,727337,902428,58,Woman
97,943714,DepthScenes,duration_manipulation_targetAtFixation,jsons/VE125_randls_55.json,http://54.235.29.9/FacialAge/BNav_EC2/DepthDuration/v2_depth_duration_MTurk/v2_DepthDuration_HTML.html#102,102,1366,768,1366,768,10-2-2022,14-30-2,98,depth_duration_stimuli/002805_2014-06-22_19-54-03_094959634447_rgbf000079-resize_1/002805_2014-06-22_19-54-03_094959634447_rgbf000079-resize_1-target.png,125,3.1439999999999997,5,3627,124,feet,jsons/VE125_randls_55.json,727337,902428,58,Woman
98,943714,DepthScenes,duration_manipulation_targetAtFixation,jsons/VE125_randls_55.json,http://54.235.29.9/FacialAge/BNav_EC2/DepthDuration/v2_depth_duration_MTurk/v2_DepthDuration_HTML.html#102,102,1366,768,1366,768,10-2-2022,14-30-2,99,depth_duration_stimuli/001540_2014-06-20_17-01-05_260595134347_rgbf000086-resize_2/001540_2014-06-20_17-01-05_260595134347_rgbf000086-resize-original.jpg,125,1.459,1,3126,117,feet,jsons/VE125_randls_55.json,727337,902428,58,Woman
99,943714,DepthScenes,duration_manipulation_targetAtFixation,jsons/VE125_randls_55.json,http://54.235.29.9/FacialAge/BNav_EC2/DepthDuration/v2_depth_duration_MTurk/v2_DepthDuration_HTML.html#102,102,1366,768,1366,768,10-2-2022,14-30-2,100,depth_duration_stimuli/000469_2014-06-09_19-42-10_260595134347_rgbf000081-resize_1/000469_2014-06-09_19-42-10_260595134347_rgbf000081-resize_1-target.png,125,1.652,2,3283,78,feet,jsons/VE125_randls_55.json,727337,902428,58,Woman
100,943714,DepthScenes,duration_manipulation_targetAtFixation,jsons/VE125_randls_55.json,http://54.235.29.9/FacialAge/BNav_EC2/DepthDuration/v2_depth_duration_MTurk/v2_DepthDuration_HTML.html#102,102,1366,768,1366,768,10-2-2022,14-30-2,101,depth_duration_stimuli/000483_2014-06-09_20-41-45_260595134347_rgbf000116-resize_4/000483_2014-06-09_20-41-45_260595134347_rgbf000116-resize_4-target.png,125,1.337,1,2335,132,feet,jsons/VE125_randls_55.json,727337,902428,58,Woman
101,943714,DepthScenes,duration_manipulation_targetAtFixation,jsons/VE125_randls_55.json,http://54.235.29.9/FacialAge/BNav_EC2/DepthDuration/v2_depth_duration_MTurk/v2_DepthDuration_HTML.html#102,102,1366,768,1366,768,10-2-2022,14-30-2,102,depth_duration_stimuli/002118_2014-06-25_20-32-08_260595134347_rgbf000078-resize_1/002118_2014-06-25_20-32-08_260595134347_rgbf000078-resize_1-target.png,125,2.6460000000000004,2,2462,125,feet,jsons/VE125_randls_55.json,727337,902428,58,Woman
102,943714,DepthScenes,duration_manipulation_targetAtFixation,jsons/VE125_randls_55.json,http://54.235.29.9/FacialAge/BNav_EC2/DepthDuration/v2_depth_duration_MTurk/v2_DepthDuration_HTML.html#102,102,1366,768,1366,768,10-2-2022,14-30-2,103,depth_duration_stimuli/001516_2014-06-20_16-25-09_260595134347_rgbf000076-resize_2/001516_2014-06-20_16-25-09_260595134347_rgbf000076-resize_2-target.png,125,1.7445,3,4153,122,feet,jsons/VE125_randls_55.json,727337,902428,58,Woman
103,943714,DepthScenes,duration_manipulation_targetAtFixation,jsons/VE125_randls_55.json,http://54.235.29.9/FacialAge/BNav_EC2/DepthDuration/v2_depth_duration_MTurk/v2_DepthDuration_HTML.html#102,102,1366,768,1366,768,10-2-2022,14-30-2,104,depth_duration_stimuli/000773_2014-06-08_22-24-54_260595134347_rgbf000093-resize_1/000773_2014-06-08_22-24-54_260595134347_rgbf000093-resize_1-target.png,125,4.973,2,2606,132,feet,jsons/VE125_randls_55.json,727337,902428,58,Woman
104,943714,DepthScenes,duration_manipulation_targetAtFixation,jsons/VE125_randls_55.json,http://54.235.29.9/FacialAge/BNav_EC2/DepthDuration/v2_depth_duration_MTurk/v2_DepthDuration_HTML.html#102,102,1366,768,1366,768,10-2-2022,14-30-2,105,depth_duration_stimuli/002414_2014-06-28_20-24-58_260595134347_rgbf000067-resize_4/002414_2014-06-28_20-24-58_260595134347_rgbf000067-resize_4-target.png,125,4.363,4,2849,123,feet,jsons/VE125_randls_55.json,727337,902428,58,Woman
105,943714,DepthScenes,duration_manipulation_targetAtFixation,jsons/VE125_randls_55.json,http://54.235.29.9/FacialAge/BNav_EC2/DepthDuration/v2_depth_duration_MTurk/v2_DepthDuration_HTML.html#102,102,1366,768,1366,768,10-2-2022,14-30-2,106,depth_duration_stimuli/002725_2014-06-22_11-47-51_094959634447_rgbf000070-resize_1/002725_2014-06-22_11-47-51_094959634447_rgbf000070-resize_1-target.png,125,2.195,4,2608,135,feet,jsons/VE125_randls_55.json,727337,902428,58,Woman
106,943714,DepthScenes,duration_manipulation_targetAtFixation,jsons/VE125_randls_55.json,http://54.235.29.9/FacialAge/BNav_EC2/DepthDuration/v2_depth_duration_MTurk/v2_DepthDuration_HTML.html#102,102,1366,768,1366,768,10-2-2022,14-30-2,107,depth_duration_stimuli/002344_2014-06-28_20-06-29_260595134347_rgbf000030-resize_1/002344_2014-06-28_20-06-29_260595134347_rgbf000030-resize_1-target.png,125,1.5795,1,2965,123,feet,jsons/VE125_randls_55.json,727337,902428,58,Woman
107,943714,DepthScenes,duration_manipulation_targetAtFixation,jsons/VE125_randls_55.json,http://54.235.29.9/FacialAge/BNav_EC2/DepthDuration/v2_depth_duration_MTurk/v2_DepthDuration_HTML.html#102,102,1366,768,1366,768,10-2-2022,14-30-2,108,depth_duration_stimuli/000470_2014-06-09_19-42-40_260595134347_rgbf000094-resize_1/000470_2014-06-09_19-42-40_260595134347_rgbf000094-resize_1-target.png,125,1.831,1,2692,109,feet,jsons/VE125_randls_55.json,727337,902428,58,Woman
108,943714,DepthScenes,duration_manipulation_targetAtFixation,jsons/VE125_randls_55.json,http://54.235.29.9/FacialAge/BNav_EC2/DepthDuration/v2_depth_duration_MTurk/v2_DepthDuration_HTML.html#102,102,1366,768,1366,768,10-2-2022,14-30-2,109,depth_duration_stimuli/000109_2014-05-14_23-41-52_260595134347_rgbf000035-resize_9/000109_2014-05-14_23-41-52_260595134347_rgbf000035-resize_9-target.png,125,1.3545,2,2751,106,feet,jsons/VE125_randls_55.json,727337,902428,58,Woman
109,943714,DepthScenes,duration_manipulation_targetAtFixation,jsons/VE125_randls_55.json,http://54.235.29.9/FacialAge/BNav_EC2/DepthDuration/v2_depth_duration_MTurk/v2_DepthDuration_HTML.html#102,102,1366,768,1366,768,10-2-2022,14-30-2,110,depth_duration_stimuli/002570_2014-06-24_13-59-54_094959634447_rgbf000059-resize_0/002570_2014-06-24_13-59-54_094959634447_rgbf000059-resize_0-target.png,125,4.037,2,3259,103,feet,jsons/VE125_randls_55.json,727337,902428,58,Woman
110,943714,DepthScenes,duration_manipulation_targetAtFixation,jsons/VE125_randls_55.json,http://54.235.29.9/FacialAge/BNav_EC2/DepthDuration/v2_depth_duration_MTurk/v2_DepthDuration_HTML.html#102,102,1366,768,1366,768,10-2-2022,14-30-2,111,depth_duration_stimuli/002467_2014-06-28_20-38-07_260595134347_rgbf000026-resize_2/002467_2014-06-28_20-38-07_260595134347_rgbf000026-resize_2-target.png,125,4.742,4,5197,126,feet,jsons/VE125_randls_55.json,727337,902428,58,Woman
111,943714,DepthScenes,duration_manipulation_targetAtFixation,jsons/VE125_randls_55.json,http://54.235.29.9/FacialAge/BNav_EC2/DepthDuration/v2_depth_duration_MTurk/v2_DepthDuration_HTML.html#102,102,1366,768,1366,768,10-2-2022,14-30-2,112,depth_duration_stimuli/002784_2014-06-22_19-26-30_094959634447_rgbf000083-resize_3/002784_2014-06-22_19-26-30_094959634447_rgbf000083-resize_3-target.png,125,1.8046666666667,1,2687,124,feet,jsons/VE125_randls_55.json,727337,902428,58,Woman
112,943714,DepthScenes,duration_manipulation_targetAtFixation,jsons/VE125_randls_55.json,http://54.235.29.9/FacialAge/BNav_EC2/DepthDuration/v2_depth_duration_MTurk/v2_DepthDuration_HTML.html#102,102,1366,768,1366,768,10-2-2022,14-30-2,113,depth_duration_stimuli/001100_2014-06-15_17-46-26_260595134347_rgbf000225-resize_2/001100_2014-06-15_17-46-26_260595134347_rgbf000225-resize_2-target.png,125,2.24,1,3255,48,feet,jsons/VE125_randls_55.json,727337,902428,58,Woman
113,943714,DepthScenes,duration_manipulation_targetAtFixation,jsons/VE125_randls_55.json,http://54.235.29.9/FacialAge/BNav_EC2/DepthDuration/v2_depth_duration_MTurk/v2_DepthDuration_HTML.html#102,102,1366,768,1366,768,10-2-2022,14-30-2,114,depth_duration_stimuli/000368_2014-06-09_15-53-01_260595134347_rgbf000155-resize_2/000368_2014-06-09_15-53-01_260595134347_rgbf000155-resize_2-target.png,125,2.4859999999999998,2,2733,125,feet,jsons/VE125_randls_55.json,727337,902428,58,Woman
114,943714,DepthScenes,duration_manipulation_targetAtFixation,jsons/VE125_randls_55.json,http://54.235.29.9/FacialAge/BNav_EC2/DepthDuration/v2_depth_duration_MTurk/v2_DepthDuration_HTML.html#102,102,1366,768,1366,768,10-2-2022,14-30-2,115,depth_duration_stimuli/002678_2014-06-13_16-15-32_094959634447_rgbf000151-resize_6/002678_2014-06-13_16-15-32_094959634447_rgbf000151-resize_6-target.png,125,2.1830000000000003,4,3049,112,feet,jsons/VE125_randls_55.json,727337,902428,58,Woman
115,943714,DepthScenes,duration_manipulation_targetAtFixation,jsons/VE125_randls_55.json,http://54.235.29.9/FacialAge/BNav_EC2/DepthDuration/v2_depth_duration_MTurk/v2_DepthDuration_HTML.html#102,102,1366,768,1366,768,10-2-2022,14-30-2,116,depth_duration_stimuli/001170_2014-06-17_15-43-44_260595134347_rgbf000096-resize_6/001170_2014-06-17_15-43-44_260595134347_rgbf000096-resize-original.jpg,125,1.1909999999999998,1,2501,120,feet,jsons/VE125_randls_55.json,727337,902428,58,Woman
116,943714,DepthScenes,duration_manipulation_targetAtFixation,jsons/VE125_randls_55.json,http://54.235.29.9/FacialAge/BNav_EC2/DepthDuration/v2_depth_duration_MTurk/v2_DepthDuration_HTML.html#102,102,1366,768,1366,768,10-2-2022,14-30-2,117,depth_duration_stimuli/002039_2014-06-24_20-22-38_260595134347_rgbf000084-resize_1/002039_2014-06-24_20-22-38_260595134347_rgbf000084-resize_1-target.png,125,4.408,4,3072,109,feet,jsons/VE125_randls_55.json,727337,902428,58,Woman
117,943714,DepthScenes,duration_manipulation_targetAtFixation,jsons/VE125_randls_55.json,http://54.235.29.9/FacialAge/BNav_EC2/DepthDuration/v2_depth_duration_MTurk/v2_DepthDuration_HTML.html#102,102,1366,768,1366,768,10-2-2022,14-30-2,118,depth_duration_stimuli/002103_2014-06-25_20-00-40_260595134347_rgbf000049-resize_0/002103_2014-06-25_20-00-40_260595134347_rgbf000049-resize_0-target.png,125,4.105,5,3314,123,feet,jsons/VE125_randls_55.json,727337,902428,58,Woman
118,943714,DepthScenes,duration_manipulation_targetAtFixation,jsons/VE125_randls_55.json,http://54.235.29.9/FacialAge/BNav_EC2/DepthDuration/v2_depth_duration_MTurk/v2_DepthDuration_HTML.html#102,102,1366,768,1366,768,10-2-2022,14-30-2,119,depth_duration_stimuli/000788_2014-06-08_22-34-36_260595134347_rgbf000131-resize_1/000788_2014-06-08_22-34-36_260595134347_rgbf000131-resize_1-target.png,125,3.359,1,3298,116,feet,jsons/VE125_randls_55.json,727337,902428,58,Woman
119,943714,DepthScenes,duration_manipulation_targetAtFixation,jsons/VE125_randls_55.json,http://54.235.29.9/FacialAge/BNav_EC2/DepthDuration/v2_depth_duration_MTurk/v2_DepthDuration_HTML.html#102,102,1366,768,1366,768,10-2-2022,14-30-2,120,depth_duration_stimuli/001235_2014-06-17_16-37-36_260595134347_rgbf000084-resize_4/001235_2014-06-17_16-37-36_260595134347_rgbf000084-resize_4-target.png,125,3.6605,4,3762,119,feet,jsons/VE125_randls_55.json,727337,902428,58,Woman
120,943714,DepthScenes,duration_manipulation_targetAtFixation,jsons/VE125_randls_55.json,http://54.235.29.9/FacialAge/BNav_EC2/DepthDuration/v2_depth_duration_MTurk/v2_DepthDuration_HTML.html#102,102,1366,768,1366,768,10-2-2022,14-30-2,121,depth_duration_stimuli/000506_2014-06-08_23-21-00_260595134347_rgbf000070-resize_7/000506_2014-06-08_23-21-00_260595134347_rgbf000070-resize_7-target.png,125,4.0585,4,4456,121,feet,jsons/VE125_randls_55.json,727337,902428,58,Woman
121,943714,DepthScenes,duration_manipulation_targetAtFixation,jsons/VE125_randls_55.json,http://54.235.29.9/FacialAge/BNav_EC2/DepthDuration/v2_depth_duration_MTurk/v2_DepthDuration_HTML.html#102,102,1366,768,1366,768,10-2-2022,14-30-2,122,depth_duration_stimuli/003079_2014-06-15_15-18-20_094959634447_rgbf000152-resize_8/003079_2014-06-15_15-18-20_094959634447_rgbf000152-resize_8-target.png,125,2.8775,5,3316,123,feet,jsons/VE125_randls_55.json,727337,902428,58,Woman
122,943714,DepthScenes,duration_manipulation_targetAtFixation,jsons/VE125_randls_55.json,http://54.235.29.9/FacialAge/BNav_EC2/DepthDuration/v2_depth_duration_MTurk/v2_DepthDuration_HTML.html#102,102,1366,768,1366,768,10-2-2022,14-30-2,123,depth_duration_stimuli/002153_2014-06-25_21-27-18_260595134347_rgbf000038-resize_5/002153_2014-06-25_21-27-18_260595134347_rgbf000038-resize_5-target.png,125,2.505,1,2892,108,feet,jsons/VE125_randls_55.json,727337,902428,58,Woman
123,943714,DepthScenes,duration_manipulation_targetAtFixation,jsons/VE125_randls_55.json,http://54.235.29.9/FacialAge/BNav_EC2/DepthDuration/v2_depth_duration_MTurk/v2_DepthDuration_HTML.html#102,102,1366,768,1366,768,10-2-2022,14-30-2,124,depth_duration_stimuli/002660_2014-06-13_15-44-18_094959634447_rgbf001878-resize_2/002660_2014-06-13_15-44-18_094959634447_rgbf001878-resize_2-target.png,125,3.576,2,3491,123,feet,jsons/VE125_randls_55.json,727337,902428,58,Woman
124,943714,DepthScenes,duration_manipulation_targetAtFixation,jsons/VE125_randls_55.json,http://54.235.29.9/FacialAge/BNav_EC2/DepthDuration/v2_depth_duration_MTurk/v2_DepthDuration_HTML.html#102,102,1366,768,1366,768,10-2-2022,14-30-2,125,depth_duration_stimuli/000642_2014-06-08_16-59-25_260595134347_rgbf000098-resize_2/000642_2014-06-08_16-59-25_260595134347_rgbf000098-resize_2-target.png,125,2.8815,3,10328,124,feet,jsons/VE125_randls_55.json,727337,902428,58,Woman
125,943714,DepthScenes,duration_manipulation_targetAtFixation,jsons/VE125_randls_55.json,http://54.235.29.9/FacialAge/BNav_EC2/DepthDuration/v2_depth_duration_MTurk/v2_DepthDuration_HTML.html#102,102,1366,768,1366,768,10-2-2022,14-30-2,126,depth_duration_stimuli/002425_2014-06-28_20-27-29_260595134347_rgbf000031-resize_8/002425_2014-06-28_20-27-29_260595134347_rgbf000031-resize_8-target.png,125,3.8960000000000004,4,4043,129,feet,jsons/VE125_randls_55.json,727337,902428,58,Woman
126,943714,DepthScenes,duration_manipulation_targetAtFixation,jsons/VE125_randls_55.json,http://54.235.29.9/FacialAge/BNav_EC2/DepthDuration/v2_depth_duration_MTurk/v2_DepthDuration_HTML.html#102,102,1366,768,1366,768,10-2-2022,14-30-2,127,depth_duration_stimuli/001806_2014-06-26_20-50-20_260595134347_rgbf000091-resize_1/001806_2014-06-26_20-50-20_260595134347_rgbf000091-resize_1-target.png,125,2.7305,1,3278,130,feet,jsons/VE125_randls_55.json,727337,902428,58,Woman
127,943714,DepthScenes,duration_manipulation_targetAtFixation,jsons/VE125_randls_55.json,http://54.235.29.9/FacialAge/BNav_EC2/DepthDuration/v2_depth_duration_MTurk/v2_DepthDuration_HTML.html#102,102,1366,768,1366,768,10-2-2022,14-30-2,128,depth_duration_stimuli/001617_2014-06-20_11-35-32_260595134347_rgbf000066-resize_1/001617_2014-06-20_11-35-32_260595134347_rgbf000066-resize_1-target.png,125,3.7910000000000004,4,3107,123,feet,jsons/VE125_randls_55.json,727337,902428,58,Woman
128,943714,DepthScenes,duration_manipulation_targetAtFixation,jsons/VE125_randls_55.json,http://54.235.29.9/FacialAge/BNav_EC2/DepthDuration/v2_depth_duration_MTurk/v2_DepthDuration_HTML.html#102,102,1366,768,1366,768,10-2-2022,14-30-2,129,depth_duration_stimuli/001810_2014-06-26_20-51-35_260595134347_rgbf000040-resize_3/001810_2014-06-26_20-51-35_260595134347_rgbf000040-resize_3-target.png,125,2.2525,5,3333,128,feet,jsons/VE125_randls_55.json,727337,902428,58,Woman
129,943714,DepthScenes,duration_manipulation_targetAtFixation,jsons/VE125_randls_55.json,http://54.235.29.9/FacialAge/BNav_EC2/DepthDuration/v2_depth_duration_MTurk/v2_DepthDuration_HTML.html#102,102,1366,768,1366,768,10-2-2022,14-30-2,130,depth_duration_stimuli/003010_2014-06-15_12-54-35_094959634447_rgbf000112-resize_0/003010_2014-06-15_12-54-35_094959634447_rgbf000112-resize_0-target.png,125,3.1185,5,2814,140,feet,jsons/VE125_randls_55.json,727337,902428,58,Woman
130,943714,DepthScenes,duration_manipulation_targetAtFixation,jsons/VE125_randls_55.json,http://54.235.29.9/FacialAge/BNav_EC2/DepthDuration/v2_depth_duration_MTurk/v2_DepthDuration_HTML.html#102,102,1366,768,1366,768,10-2-2022,14-30-2,131,depth_duration_stimuli/000878_2014-06-08_22-52-45_260595134347_rgbf000045-resize_2/000878_2014-06-08_22-52-45_260595134347_rgbf000045-resize_2-target.png,125,2.092,4,3708,123,feet,jsons/VE125_randls_55.json,727337,902428,58,Woman
131,943714,DepthScenes,duration_manipulation_targetAtFixation,jsons/VE125_randls_55.json,http://54.235.29.9/FacialAge/BNav_EC2/DepthDuration/v2_depth_duration_MTurk/v2_DepthDuration_HTML.html#102,102,1366,768,1366,768,10-2-2022,14-30-2,132,depth_duration_stimuli/002953_2014-06-08_17-32-18_094959634447_rgbf000059-resize_5/002953_2014-06-08_17-32-18_094959634447_rgbf000059-resize_5-target.png,125,1.551,2,3245,130,feet,jsons/VE125_randls_55.json,727337,902428,58,Woman
132,943714,DepthScenes,duration_manipulation_targetAtFixation,jsons/VE125_randls_55.json,http://54.235.29.9/FacialAge/BNav_EC2/DepthDuration/v2_depth_duration_MTurk/v2_DepthDuration_HTML.html#102,102,1366,768,1366,768,10-2-2022,14-30-2,133,depth_duration_stimuli/001011_2014-06-08_23-18-54_260595134347_rgbf000044-resize_4/001011_2014-06-08_23-18-54_260595134347_rgbf000044-resize_4-target.png,125,2.4730000000000003,5,2827,134,feet,jsons/VE125_randls_55.json,727337,902428,58,Woman
133,943714,DepthScenes,duration_manipulation_targetAtFixation,jsons/VE125_randls_55.json,http://54.235.29.9/FacialAge/BNav_EC2/DepthDuration/v2_depth_duration_MTurk/v2_DepthDuration_HTML.html#102,102,1366,768,1366,768,10-2-2022,14-30-2,134,depth_duration_stimuli/002875_2014-06-01_15-19-00_094959634447_rgbf000151-resize_1/002875_2014-06-01_15-19-00_094959634447_rgbf000151-resize_1-target.png,125,1.9675,4,3008,114,feet,jsons/VE125_randls_55.json,727337,902428,58,Woman
134,943714,DepthScenes,duration_manipulation_targetAtFixation,jsons/VE125_randls_55.json,http://54.235.29.9/FacialAge/BNav_EC2/DepthDuration/v2_depth_duration_MTurk/v2_DepthDuration_HTML.html#102,102,1366,768,1366,768,10-2-2022,14-30-2,135,depth_duration_stimuli/002072_2014-06-24_21-48-06_260595134347_rgbf000115-resize_0/002072_2014-06-24_21-48-06_260595134347_rgbf000115-resize-original.jpg,125,4.702,1,9415,118,feet,jsons/VE125_randls_55.json,727337,902428,58,Woman
135,943714,DepthScenes,duration_manipulation_targetAtFixation,jsons/VE125_randls_55.json,http://54.235.29.9/FacialAge/BNav_EC2/DepthDuration/v2_depth_duration_MTurk/v2_DepthDuration_HTML.html#102,102,1366,768,1366,768,10-2-2022,14-30-2,136,depth_duration_stimuli/002213_2014-06-28_18-37-58_260595134347_rgbf000055-resize_1/002213_2014-06-28_18-37-58_260595134347_rgbf000055-resize_1-target.png,125,3.62,2,2945,126,feet,jsons/VE125_randls_55.json,727337,902428,58,Woman
136,943714,DepthScenes,duration_manipulation_targetAtFixation,jsons/VE125_randls_55.json,http://54.235.29.9/FacialAge/BNav_EC2/DepthDuration/v2_depth_duration_MTurk/v2_DepthDuration_HTML.html#102,102,1366,768,1366,768,10-2-2022,14-30-2,137,depth_duration_stimuli/000691_2014-06-08_13-08-50_260595134347_rgbf000132-resize_3/000691_2014-06-08_13-08-50_260595134347_rgbf000132-resize_3-target.png,125,4.1530000000000005,1,2589,121,feet,jsons/VE125_randls_55.json,727337,902428,58,Woman
137,943714,DepthScenes,duration_manipulation_targetAtFixation,jsons/VE125_randls_55.json,http://54.235.29.9/FacialAge/BNav_EC2/DepthDuration/v2_depth_duration_MTurk/v2_DepthDuration_HTML.html#102,102,1366,768,1366,768,10-2-2022,14-30-2,138,depth_duration_stimuli/000929_2014-06-09_16-33-19_260595134347_rgbf000139-resize_0/000929_2014-06-09_16-33-19_260595134347_rgbf000139-resize_0-target.png,125,2.8680000000000003,1,2895,124,feet,jsons/VE125_randls_55.json,727337,902428,58,Woman
138,943714,DepthScenes,duration_manipulation_targetAtFixation,jsons/VE125_randls_55.json,http://54.235.29.9/FacialAge/BNav_EC2/DepthDuration/v2_depth_duration_MTurk/v2_DepthDuration_HTML.html#102,102,1366,768,1366,768,10-2-2022,14-30-2,139,depth_duration_stimuli/000457_2014-06-08_16-52-43_260595134347_rgbf000199-resize_1/000457_2014-06-08_16-52-43_260595134347_rgbf000199-resize_1-target.png,125,3.6489999999999996,4,3350,124,feet,jsons/VE125_randls_55.json,727337,902428,58,Woman
139,943714,DepthScenes,duration_manipulation_targetAtFixation,jsons/VE125_randls_55.json,http://54.235.29.9/FacialAge/BNav_EC2/DepthDuration/v2_depth_duration_MTurk/v2_DepthDuration_HTML.html#102,102,1366,768,1366,768,10-2-2022,14-30-2,140,depth_duration_stimuli/001158_2014-06-17_15-32-16_260595134347_rgbf000138-resize_2/001158_2014-06-17_15-32-16_260595134347_rgbf000138-resize_2-target.png,125,4.5315,4,2973,112,feet,jsons/VE125_randls_55.json,727337,902428,58,Woman
140,943714,DepthScenes,duration_manipulation_targetAtFixation,jsons/VE125_randls_55.json,http://54.235.29.9/FacialAge/BNav_EC2/DepthDuration/v2_depth_duration_MTurk/v2_DepthDuration_HTML.html#102,102,1366,768,1366,768,10-2-2022,14-30-2,141,depth_duration_stimuli/000556_2014-06-09_22-42-56_260595134347_rgbf000214-resize_1/000556_2014-06-09_22-42-56_260595134347_rgbf000214-resize_1-target.png,125,4.8415,5,3406,125,feet,jsons/VE125_randls_55.json,727337,902428,58,Woman
141,943714,DepthScenes,duration_manipulation_targetAtFixation,jsons/VE125_randls_55.json,http://54.235.29.9/FacialAge/BNav_EC2/DepthDuration/v2_depth_duration_MTurk/v2_DepthDuration_HTML.html#102,102,1366,768,1366,768,10-2-2022,14-30-2,142,depth_duration_stimuli/003621_2014-05-23_18-06-08_094959634447_rgbf000101-resize_1/003621_2014-05-23_18-06-08_094959634447_rgbf000101-resize_1-target.png,125,3.9835,5,3618,157,feet,jsons/VE125_randls_55.json,727337,902428,58,Woman
142,943714,DepthScenes,duration_manipulation_targetAtFixation,jsons/VE125_randls_55.json,http://54.235.29.9/FacialAge/BNav_EC2/DepthDuration/v2_depth_duration_MTurk/v2_DepthDuration_HTML.html#102,102,1366,768,1366,768,10-2-2022,14-30-2,143,depth_duration_stimuli/001584_2014-06-20_11-07-43_260595134347_rgbf000002-resize_1/001584_2014-06-20_11-07-43_260595134347_rgbf000002-resize_1-target.png,125,3.53,4,2868,125,feet,jsons/VE125_randls_55.json,727337,902428,58,Woman
143,943714,DepthScenes,duration_manipulation_targetAtFixation,jsons/VE125_randls_55.json,http://54.235.29.9/FacialAge/BNav_EC2/DepthDuration/v2_depth_duration_MTurk/v2_DepthDuration_HTML.html#102,102,1366,768,1366,768,10-2-2022,14-30-2,144,depth_duration_stimuli/002988_2014-06-15_12-24-20_094959634447_rgbf000150-resize_1/002988_2014-06-15_12-24-20_094959634447_rgbf000150-resize_1-target.png,125,4.7669999999999995,4,3188,115,feet,jsons/VE125_randls_55.json,727337,902428,58,Woman
144,943714,DepthScenes,duration_manipulation_targetAtFixation,jsons/VE125_randls_55.json,http://54.235.29.9/FacialAge/BNav_EC2/DepthDuration/v2_depth_duration_MTurk/v2_DepthDuration_HTML.html#102,102,1366,768,1366,768,10-2-2022,14-30-2,145,depth_duration_stimuli/001052_2014-06-08_18-24-54_260595134347_rgbf000130-resize_1/001052_2014-06-08_18-24-54_260595134347_rgbf000130-resize_1-target.png,125,4.1045,5,3793,109,feet,jsons/VE125_randls_55.json,727337,902428,58,Woman
145,943714,DepthScenes,duration_manipulation_targetAtFixation,jsons/VE125_randls_55.json,http://54.235.29.9/FacialAge/BNav_EC2/DepthDuration/v2_depth_duration_MTurk/v2_DepthDuration_HTML.html#102,102,1366,768,1366,768,10-2-2022,14-30-2,146,depth_duration_stimuli/001498_2014-06-19_17-45-14_260595134347_rgbf000129-resize_4/001498_2014-06-19_17-45-14_260595134347_rgbf000129-resize-original.jpg,125,1.4075,1,5020,127,feet,jsons/VE125_randls_55.json,727337,902428,58,Woman
146,943714,DepthScenes,duration_manipulation_targetAtFixation,jsons/VE125_randls_55.json,http://54.235.29.9/FacialAge/BNav_EC2/DepthDuration/v2_depth_duration_MTurk/v2_DepthDuration_HTML.html#102,102,1366,768,1366,768,10-2-2022,14-30-2,147,depth_duration_stimuli/003070_2014-06-15_14-58-27_094959634447_rgbf000150-resize_3/003070_2014-06-15_14-58-27_094959634447_rgbf000150-resize_3-target.png,125,2.9415,4,3358,118,feet,jsons/VE125_randls_55.json,727337,902428,58,Woman
147,943714,DepthScenes,duration_manipulation_targetAtFixation,jsons/VE125_randls_55.json,http://54.235.29.9/FacialAge/BNav_EC2/DepthDuration/v2_depth_duration_MTurk/v2_DepthDuration_HTML.html#102,102,1366,768,1366,768,10-2-2022,14-30-2,148,depth_duration_stimuli/000943_2014-06-09_19-31-07_260595134347_rgbf000128-resize_1/000943_2014-06-09_19-31-07_260595134347_rgbf000128-resize_1-target.png,125,1.9765,3,4556,122,feet,jsons/VE125_randls_55.json,727337,902428,58,Woman
148,943714,DepthScenes,duration_manipulation_targetAtFixation,jsons/VE125_randls_55.json,http://54.235.29.9/FacialAge/BNav_EC2/DepthDuration/v2_depth_duration_MTurk/v2_DepthDuration_HTML.html#102,102,1366,768,1366,768,10-2-2022,14-30-2,149,depth_duration_stimuli/001056_2014-06-08_18-46-44_260595134347_rgbf000068-resize_0/001056_2014-06-08_18-46-44_260595134347_rgbf000068-resize_0-target.png,125,2.6625,2,3162,125,feet,jsons/VE125_randls_55.json,727337,902428,58,Woman
149,943714,DepthScenes,duration_manipulation_targetAtFixation,jsons/VE125_randls_55.json,http://54.235.29.9/FacialAge/BNav_EC2/DepthDuration/v2_depth_duration_MTurk/v2_DepthDuration_HTML.html#102,102,1366,768,1366,768,10-2-2022,14-30-2,150,depth_duration_stimuli/002199_2014-06-28_18-33-56_260595134347_rgbf000074-resize_0/002199_2014-06-28_18-33-56_260595134347_rgbf000074-resize_0-target.png,125,1.996,2,5044,123,feet,jsons/VE125_randls_55.json,727337,902428,58,Woman
150,943714,DepthScenes,duration_manipulation_targetAtFixation,jsons/VE125_randls_55.json,http://54.235.29.9/FacialAge/BNav_EC2/DepthDuration/v2_depth_duration_MTurk/v2_DepthDuration_HTML.html#102,102,1366,768,1366,768,10-2-2022,14-30-2,151,depth_duration_stimuli/002763_2014-06-22_19-13-10_094959634447_rgbf000075-resize_4/002763_2014-06-22_19-13-10_094959634447_rgbf000075-resize_4-target.png,125,1.68375,2,3577,133,feet,jsons/VE125_randls_55.json,727337,902428,58,Woman
151,943714,DepthScenes,duration_manipulation_targetAtFixation,jsons/VE125_randls_55.json,http://54.235.29.9/FacialAge/BNav_EC2/DepthDuration/v2_depth_duration_MTurk/v2_DepthDuration_HTML.html#102,102,1366,768,1366,768,10-2-2022,14-30-2,152,depth_duration_stimuli/002209_2014-06-28_18-36-10_260595134347_rgbf000051-resize_1/002209_2014-06-28_18-36-10_260595134347_rgbf000051-resize_1-target.png,125,2.057,1,4486,123,feet,jsons/VE125_randls_55.json,727337,902428,58,Woman
152,943714,DepthScenes,duration_manipulation_targetAtFixation,jsons/VE125_randls_55.json,http://54.235.29.9/FacialAge/BNav_EC2/DepthDuration/v2_depth_duration_MTurk/v2_DepthDuration_HTML.html#102,102,1366,768,1366,768,10-2-2022,14-30-2,153,depth_duration_stimuli/002279_2014-06-28_18-55-32_260595134347_rgbf000040-resize_5/002279_2014-06-28_18-55-32_260595134347_rgbf000040-resize_5-target.png,125,1.5043333333333,1,2482,109,feet,jsons/VE125_randls_55.json,727337,902428,58,Woman
153,943714,DepthScenes,duration_manipulation_targetAtFixation,jsons/VE125_randls_55.json,http://54.235.29.9/FacialAge/BNav_EC2/DepthDuration/v2_depth_duration_MTurk/v2_DepthDuration_HTML.html#102,102,1366,768,1366,768,10-2-2022,14-30-2,154,depth_duration_stimuli/000635_2014-06-08_16-38-42_260595134347_rgbf000106-resize_1/000635_2014-06-08_16-38-42_260595134347_rgbf000106-resize_1-target.png,125,2.074,1,4701,111,feet,jsons/VE125_randls_55.json,727337,902428,58,Woman
154,943714,DepthScenes,duration_manipulation_targetAtFixation,jsons/VE125_randls_55.json,http://54.235.29.9/FacialAge/BNav_EC2/DepthDuration/v2_depth_duration_MTurk/v2_DepthDuration_HTML.html#102,102,1366,768,1366,768,10-2-2022,14-30-2,155,depth_duration_stimuli/000522_2014-06-08_13-35-06_260595134347_rgbf000244-resize_1/000522_2014-06-08_13-35-06_260595134347_rgbf000244-resize_1-target.png,125,2.3715,2,3176,137,feet,jsons/VE125_randls_55.json,727337,902428,58,Woman
155,943714,DepthScenes,duration_manipulation_targetAtFixation,jsons/VE125_randls_55.json,http://54.235.29.9/FacialAge/BNav_EC2/DepthDuration/v2_depth_duration_MTurk/v2_DepthDuration_HTML.html#102,102,1366,768,1366,768,10-2-2022,14-30-2,156,depth_duration_stimuli/002949_2014-06-26_15-57-42_094959634447_rgbf000079-resize_1/002949_2014-06-26_15-57-42_094959634447_rgbf000079-resize_1-target.png,125,1.8915,2,3130,116,feet,jsons/VE125_randls_55.json,727337,902428,58,Woman
156,943714,DepthScenes,duration_manipulation_targetAtFixation,jsons/VE125_randls_55.json,http://54.235.29.9/FacialAge/BNav_EC2/DepthDuration/v2_depth_duration_MTurk/v2_DepthDuration_HTML.html#102,102,1366,768,1366,768,10-2-2022,14-30-2,157,depth_duration_stimuli/002989_2014-06-15_12-25-03_094959634447_rgbf000150-resize_3/002989_2014-06-15_12-25-03_094959634447_rgbf000150-resize_3-target.png,125,4.1975,5,3699,125,feet,jsons/VE125_randls_55.json,727337,902428,58,Woman
157,943714,DepthScenes,duration_manipulation_targetAtFixation,jsons/VE125_randls_55.json,http://54.235.29.9/FacialAge/BNav_EC2/DepthDuration/v2_depth_duration_MTurk/v2_DepthDuration_HTML.html#102,102,1366,768,1366,768,10-2-2022,14-30-2,158,depth_duration_stimuli/000866_2014-06-09_20-45-42_260595134347_rgbf000139-resize_1/000866_2014-06-09_20-45-42_260595134347_rgbf000139-resize_1-target.png,125,3.2155,5,3807,156,feet,jsons/VE125_randls_55.json,727337,902428,58,Woman
158,943714,DepthScenes,duration_manipulation_targetAtFixation,jsons/VE125_randls_55.json,http://54.235.29.9/FacialAge/BNav_EC2/DepthDuration/v2_depth_duration_MTurk/v2_DepthDuration_HTML.html#102,102,1366,768,1366,768,10-2-2022,14-30-2,159,depth_duration_stimuli/002905_2014-06-03_18-04-43_094959634447_rgbf000151-resize_2/002905_2014-06-03_18-04-43_094959634447_rgbf000151-resize_2-target.png,125,2.0295,1,3043,114,feet,jsons/VE125_randls_55.json,727337,902428,58,Woman
159,943714,DepthScenes,duration_manipulation_targetAtFixation,jsons/VE125_randls_55.json,http://54.235.29.9/FacialAge/BNav_EC2/DepthDuration/v2_depth_duration_MTurk/v2_DepthDuration_HTML.html#102,102,1366,768,1366,768,10-2-2022,14-30-2,160,depth_duration_stimuli/003423_2014-05-21_10-23-26_094959634447_rgbf002665-resize_2/003423_2014-05-21_10-23-26_094959634447_rgbf002665-resize_2-target.png,125,3.2575,2,4919,121,feet,jsons/VE125_randls_55.json,727337,902428,58,Woman
160,943714,DepthScenes,duration_manipulation_targetAtFixation,jsons/VE125_randls_55.json,http://54.235.29.9/FacialAge/BNav_EC2/DepthDuration/v2_depth_duration_MTurk/v2_DepthDuration_HTML.html#102,102,1366,768,1366,768,10-2-2022,14-30-2,161,depth_duration_stimuli/001059_2014-06-08_21-53-27_260595134347_rgbf000061-resize_4/001059_2014-06-08_21-53-27_260595134347_rgbf000061-resize_4-target.png,125,2.4185,3,3545,125,feet,jsons/VE125_randls_55.json,727337,902428,58,Woman
161,943714,DepthScenes,duration_manipulation_targetAtFixation,jsons/VE125_randls_55.json,http://54.235.29.9/FacialAge/BNav_EC2/DepthDuration/v2_depth_duration_MTurk/v2_DepthDuration_HTML.html#102,102,1366,768,1366,768,10-2-2022,14-30-2,162,depth_duration_stimuli/001032_2014-06-08_13-23-17_260595134347_rgbf000021-resize_3/001032_2014-06-08_13-23-17_260595134347_rgbf000021-resize_3-target.png,125,3.2725,2,4536,121,feet,jsons/VE125_randls_55.json,727337,902428,58,Woman
162,943714,DepthScenes,duration_manipulation_targetAtFixation,jsons/VE125_randls_55.json,http://54.235.29.9/FacialAge/BNav_EC2/DepthDuration/v2_depth_duration_MTurk/v2_DepthDuration_HTML.html#102,102,1366,768,1366,768,10-2-2022,14-30-2,163,depth_duration_stimuli/001029_2014-06-08_13-17-57_260595134347_rgbf000065-resize_1/001029_2014-06-08_13-17-57_260595134347_rgbf000065-resize_1-target.png,125,3.0835,4,3280,124,feet,jsons/VE125_randls_55.json,727337,902428,58,Woman
163,943714,DepthScenes,duration_manipulation_targetAtFixation,jsons/VE125_randls_55.json,http://54.235.29.9/FacialAge/BNav_EC2/DepthDuration/v2_depth_duration_MTurk/v2_DepthDuration_HTML.html#102,102,1366,768,1366,768,10-2-2022,14-30-2,164,depth_duration_stimuli/000677_2014-06-08_23-10-32_260595134347_rgbf000158-resize_6/000677_2014-06-08_23-10-32_260595134347_rgbf000158-resize_6-target.png,125,3.556,6,3670,106,feet,jsons/VE125_randls_55.json,727337,902428,58,Woman
