,subjID,experimentName,versionName,sequenceName,url,selected_row,windowWidth,windowHeight,screenWidth,screenHeight,startDate,startTime,trial,stimulus,duration,actual_depth,depth_estimate,trial_RT,log_sceneDuration,unitSelection,seq_filepath,experimentTime,totalTime,age,gender
0,945021,DepthScenes,duration_manipulation_targetAtFixation,jsons/v1_VE1000_randls_19.json,http://54.235.29.9/FacialAge/BNav_EC2/DepthDuration/v2_depth_duration_MTurk/v2_DepthDuration_HTML.html#401,401,1241,878,1280,1024,8-29-2022,14-28-23,1,depth_duration_stimuli/002039_2014-06-24_20-22-38_260595134347_rgbf000084-resize_1/002039_2014-06-24_20-22-38_260595134347_rgbf000084-resize_1-target.png,1000,4.408,8,4402,1013,feet,jsons/v1_VE1000_randls_19.json,609375,803952,4,Woman
1,945021,DepthScenes,duration_manipulation_targetAtFixation,jsons/v1_VE1000_randls_19.json,http://54.235.29.9/FacialAge/BNav_EC2/DepthDuration/v2_depth_duration_MTurk/v2_DepthDuration_HTML.html#401,401,1241,878,1280,1024,8-29-2022,14-28-23,2,depth_duration_stimuli/002103_2014-06-25_20-00-40_260595134347_rgbf000049-resize_0/002103_2014-06-25_20-00-40_260595134347_rgbf000049-resize_0-target.png,1000,4.105,10,3140,997,feet,jsons/v1_VE1000_randls_19.json,609375,803952,4,Woman
2,945021,DepthScenes,duration_manipulation_targetAtFixation,jsons/v1_VE1000_randls_19.json,http://54.235.29.9/FacialAge/BNav_EC2/DepthDuration/v2_depth_duration_MTurk/v2_DepthDuration_HTML.html#401,401,1241,878,1280,1024,8-29-2022,14-28-23,3,depth_duration_stimuli/003292_2014-05-14_21-53-49_094959634447_rgbf000100-resize_2/003292_2014-05-14_21-53-49_094959634447_rgbf000100-resize_2-target.png,1000,3.4815,3,2880,999,feet,jsons/v1_VE1000_randls_19.json,609375,803952,4,Woman
3,945021,DepthScenes,duration_manipulation_targetAtFixation,jsons/v1_VE1000_randls_19.json,http://54.235.29.9/FacialAge/BNav_EC2/DepthDuration/v2_depth_duration_MTurk/v2_DepthDuration_HTML.html#401,401,1241,878,1280,1024,8-29-2022,14-28-23,4,depth_duration_stimuli/002639_2014-06-24_14-51-37_094959634447_rgbf000074-resize_4/002639_2014-06-24_14-51-37_094959634447_rgbf000074-resize_4-target.png,1000,4.0375,8,4142,997,feet,jsons/v1_VE1000_randls_19.json,609375,803952,4,Woman
4,945021,DepthScenes,duration_manipulation_targetAtFixation,jsons/v1_VE1000_randls_19.json,http://54.235.29.9/FacialAge/BNav_EC2/DepthDuration/v2_depth_duration_MTurk/v2_DepthDuration_HTML.html#401,401,1241,878,1280,1024,8-29-2022,14-28-23,5,depth_duration_stimuli/002153_2014-06-25_21-27-18_260595134347_rgbf000038-resize_5/002153_2014-06-25_21-27-18_260595134347_rgbf000038-resize_5-target.png,1000,2.505,3,3544,993,feet,jsons/v1_VE1000_randls_19.json,609375,803952,4,Woman
5,945021,DepthScenes,duration_manipulation_targetAtFixation,jsons/v1_VE1000_randls_19.json,http://54.235.29.9/FacialAge/BNav_EC2/DepthDuration/v2_depth_duration_MTurk/v2_DepthDuration_HTML.html#401,401,1241,878,1280,1024,8-29-2022,14-28-23,6,depth_duration_stimuli/002660_2014-06-13_15-44-18_094959634447_rgbf001878-resize_2/002660_2014-06-13_15-44-18_094959634447_rgbf001878-resize_2-target.png,1000,3.576,6,8087,1003,feet,jsons/v1_VE1000_randls_19.json,609375,803952,4,Woman
6,945021,DepthScenes,duration_manipulation_targetAtFixation,jsons/v1_VE1000_randls_19.json,http://54.235.29.9/FacialAge/BNav_EC2/DepthDuration/v2_depth_duration_MTurk/v2_DepthDuration_HTML.html#401,401,1241,878,1280,1024,8-29-2022,14-28-23,7,depth_duration_stimuli/000493_2014-06-09_21-01-18_260595134347_rgbf000196-resize_3/000493_2014-06-09_21-01-18_260595134347_rgbf000196-resize_3-target.png,1000,3.44,8,3082,1011,feet,jsons/v1_VE1000_randls_19.json,609375,803952,4,Woman
7,945021,DepthScenes,duration_manipulation_targetAtFixation,jsons/v1_VE1000_randls_19.json,http://54.235.29.9/FacialAge/BNav_EC2/DepthDuration/v2_depth_duration_MTurk/v2_DepthDuration_HTML.html#401,401,1241,878,1280,1024,8-29-2022,14-28-23,8,depth_duration_stimuli/000191_2014-05-12_17-07-38_260595134347_rgbf000199-resize_0/000191_2014-05-12_17-07-38_260595134347_rgbf000199-resize_0-target.png,1000,3.7995,10,3166,1005,feet,jsons/v1_VE1000_randls_19.json,609375,803952,4,Woman
8,945021,DepthScenes,duration_manipulation_targetAtFixation,jsons/v1_VE1000_randls_19.json,http://54.235.29.9/FacialAge/BNav_EC2/DepthDuration/v2_depth_duration_MTurk/v2_DepthDuration_HTML.html#401,401,1241,878,1280,1024,8-29-2022,14-28-23,9,depth_duration_stimuli/000470_2014-06-09_19-42-40_260595134347_rgbf000094-resize_1/000470_2014-06-09_19-42-40_260595134347_rgbf000094-resize_1-target.png,1000,1.831,2,2667,996,feet,jsons/v1_VE1000_randls_19.json,609375,803952,4,Woman
9,945021,DepthScenes,duration_manipulation_targetAtFixation,jsons/v1_VE1000_randls_19.json,http://54.235.29.9/FacialAge/BNav_EC2/DepthDuration/v2_depth_duration_MTurk/v2_DepthDuration_HTML.html#401,401,1241,878,1280,1024,8-29-2022,14-28-23,10,depth_duration_stimuli/000109_2014-05-14_23-41-52_260595134347_rgbf000035-resize_9/000109_2014-05-14_23-41-52_260595134347_rgbf000035-resize_9-target.png,1000,1.3545,1,2674,998,feet,jsons/v1_VE1000_randls_19.json,609375,803952,4,Woman
10,945021,DepthScenes,duration_manipulation_targetAtFixation,jsons/v1_VE1000_randls_19.json,http://54.235.29.9/FacialAge/BNav_EC2/DepthDuration/v2_depth_duration_MTurk/v2_DepthDuration_HTML.html#401,401,1241,878,1280,1024,8-29-2022,14-28-23,11,depth_duration_stimuli/001029_2014-06-08_13-17-57_260595134347_rgbf000065-resize_1/001029_2014-06-08_13-17-57_260595134347_rgbf000065-resize_1-target.png,1000,3.0835,4,5553,990,feet,jsons/v1_VE1000_randls_19.json,609375,803952,4,Woman
11,945021,DepthScenes,duration_manipulation_targetAtFixation,jsons/v1_VE1000_randls_19.json,http://54.235.29.9/FacialAge/BNav_EC2/DepthDuration/v2_depth_duration_MTurk/v2_DepthDuration_HTML.html#401,401,1241,878,1280,1024,8-29-2022,14-28-23,12,depth_duration_stimuli/000677_2014-06-08_23-10-32_260595134347_rgbf000158-resize_6/000677_2014-06-08_23-10-32_260595134347_rgbf000158-resize_6-target.png,1000,3.556,4,2692,994,feet,jsons/v1_VE1000_randls_19.json,609375,803952,4,Woman
12,945021,DepthScenes,duration_manipulation_targetAtFixation,jsons/v1_VE1000_randls_19.json,http://54.235.29.9/FacialAge/BNav_EC2/DepthDuration/v2_depth_duration_MTurk/v2_DepthDuration_HTML.html#401,401,1241,878,1280,1024,8-29-2022,14-28-23,13,depth_duration_stimuli/000569_2014-06-09_22-51-47_260595134347_rgbf000141-resize_3/000569_2014-06-09_22-51-47_260595134347_rgbf000141-resize-original.jpg,1000,4.512,0,2700,992,feet,jsons/v1_VE1000_randls_19.json,609375,803952,4,Woman
13,945021,DepthScenes,duration_manipulation_targetAtFixation,jsons/v1_VE1000_randls_19.json,http://54.235.29.9/FacialAge/BNav_EC2/DepthDuration/v2_depth_duration_MTurk/v2_DepthDuration_HTML.html#401,401,1241,878,1280,1024,8-29-2022,14-28-23,14,depth_duration_stimuli/002630_2014-06-24_14-47-50_094959634447_rgbf000055-resize_1/002630_2014-06-24_14-47-50_094959634447_rgbf000055-resize_1-target.png,1000,3.0095,10,3187,1004,feet,jsons/v1_VE1000_randls_19.json,609375,803952,4,Woman
14,945021,DepthScenes,duration_manipulation_targetAtFixation,jsons/v1_VE1000_randls_19.json,http://54.235.29.9/FacialAge/BNav_EC2/DepthDuration/v2_depth_duration_MTurk/v2_DepthDuration_HTML.html#401,401,1241,878,1280,1024,8-29-2022,14-28-23,15,depth_duration_stimuli/002758_2014-06-22_19-11-20_094959634447_rgbf000128-resize_1/002758_2014-06-22_19-11-20_094959634447_rgbf000128-resize_1-target.png,1000,2.555,3,2555,1010,feet,jsons/v1_VE1000_randls_19.json,609375,803952,4,Woman
15,945021,DepthScenes,duration_manipulation_targetAtFixation,jsons/v1_VE1000_randls_19.json,http://54.235.29.9/FacialAge/BNav_EC2/DepthDuration/v2_depth_duration_MTurk/v2_DepthDuration_HTML.html#401,401,1241,878,1280,1024,8-29-2022,14-28-23,16,depth_duration_stimuli/001808_2014-06-26_20-50-58_260595134347_rgbf000029-resize_1/001808_2014-06-26_20-50-58_260595134347_rgbf000029-resize_1-target.png,1000,4.249,8,3784,1004,feet,jsons/v1_VE1000_randls_19.json,609375,803952,4,Woman
16,945021,DepthScenes,duration_manipulation_targetAtFixation,jsons/v1_VE1000_randls_19.json,http://54.235.29.9/FacialAge/BNav_EC2/DepthDuration/v2_depth_duration_MTurk/v2_DepthDuration_HTML.html#401,401,1241,878,1280,1024,8-29-2022,14-28-23,17,depth_duration_stimuli/001815_2014-06-26_20-52-55_260595134347_rgbf000020-resize_0/001815_2014-06-26_20-52-55_260595134347_rgbf000020-resize_0-target.png,1000,3.3865,10,3008,993,feet,jsons/v1_VE1000_randls_19.json,609375,803952,4,Woman
17,945021,DepthScenes,duration_manipulation_targetAtFixation,jsons/v1_VE1000_randls_19.json,http://54.235.29.9/FacialAge/BNav_EC2/DepthDuration/v2_depth_duration_MTurk/v2_DepthDuration_HTML.html#401,401,1241,878,1280,1024,8-29-2022,14-28-23,18,depth_duration_stimuli/002272_2014-06-28_18-53-56_260595134347_rgbf000067-resize_2/002272_2014-06-28_18-53-56_260595134347_rgbf000067-resize_2-target.png,1000,1.138,1,2626,991,feet,jsons/v1_VE1000_randls_19.json,609375,803952,4,Woman
18,945021,DepthScenes,duration_manipulation_targetAtFixation,jsons/v1_VE1000_randls_19.json,http://54.235.29.9/FacialAge/BNav_EC2/DepthDuration/v2_depth_duration_MTurk/v2_DepthDuration_HTML.html#401,401,1241,878,1280,1024,8-29-2022,14-28-23,19,depth_duration_stimuli/001571_2014-06-20_17-21-32_260595134347_rgbf000089-resize_1/001571_2014-06-20_17-21-32_260595134347_rgbf000089-resize_1-target.png,1000,1.86,3,2828,993,feet,jsons/v1_VE1000_randls_19.json,609375,803952,4,Woman
19,945021,DepthScenes,duration_manipulation_targetAtFixation,jsons/v1_VE1000_randls_19.json,http://54.235.29.9/FacialAge/BNav_EC2/DepthDuration/v2_depth_duration_MTurk/v2_DepthDuration_HTML.html#401,401,1241,878,1280,1024,8-29-2022,14-28-23,20,depth_duration_stimuli/001150_2014-06-17_15-27-34_260595134347_rgbf000108-resize_2/001150_2014-06-17_15-27-34_260595134347_rgbf000108-resize_2-target.png,1000,4.0325,8,3095,993,feet,jsons/v1_VE1000_randls_19.json,609375,803952,4,Woman
20,945021,DepthScenes,duration_manipulation_targetAtFixation,jsons/v1_VE1000_randls_19.json,http://54.235.29.9/FacialAge/BNav_EC2/DepthDuration/v2_depth_duration_MTurk/v2_DepthDuration_HTML.html#401,401,1241,878,1280,1024,8-29-2022,14-28-23,21,depth_duration_stimuli/000665_2014-06-09_20-42-35_260595134347_rgbf000110-resize_1/000665_2014-06-09_20-42-35_260595134347_rgbf000110-resize_1-target.png,1000,3.057,7,5101,986,feet,jsons/v1_VE1000_randls_19.json,609375,803952,4,Woman
21,945021,DepthScenes,duration_manipulation_targetAtFixation,jsons/v1_VE1000_randls_19.json,http://54.235.29.9/FacialAge/BNav_EC2/DepthDuration/v2_depth_duration_MTurk/v2_DepthDuration_HTML.html#401,401,1241,878,1280,1024,8-29-2022,14-28-23,22,depth_duration_stimuli/000906_2014-06-08_13-35-43_260595134347_rgbf000155-resize_1/000906_2014-06-08_13-35-43_260595134347_rgbf000155-resize_1-target.png,1000,2.8489999999999998,8,3103,988,feet,jsons/v1_VE1000_randls_19.json,609375,803952,4,Woman
22,945021,DepthScenes,duration_manipulation_targetAtFixation,jsons/v1_VE1000_randls_19.json,http://54.235.29.9/FacialAge/BNav_EC2/DepthDuration/v2_depth_duration_MTurk/v2_DepthDuration_HTML.html#401,401,1241,878,1280,1024,8-29-2022,14-28-23,23,depth_duration_stimuli/002805_2014-06-22_19-54-03_094959634447_rgbf000079-resize_1/002805_2014-06-22_19-54-03_094959634447_rgbf000079-resize_1-target.png,1000,3.1439999999999997,10,3321,998,feet,jsons/v1_VE1000_randls_19.json,609375,803952,4,Woman
23,945021,DepthScenes,duration_manipulation_targetAtFixation,jsons/v1_VE1000_randls_19.json,http://54.235.29.9/FacialAge/BNav_EC2/DepthDuration/v2_depth_duration_MTurk/v2_DepthDuration_HTML.html#401,401,1241,878,1280,1024,8-29-2022,14-28-23,24,depth_duration_stimuli/001810_2014-06-26_20-51-35_260595134347_rgbf000040-resize_3/001810_2014-06-26_20-51-35_260595134347_rgbf000040-resize_3-target.png,1000,2.2525,2,2811,1012,feet,jsons/v1_VE1000_randls_19.json,609375,803952,4,Woman
24,945021,DepthScenes,duration_manipulation_targetAtFixation,jsons/v1_VE1000_randls_19.json,http://54.235.29.9/FacialAge/BNav_EC2/DepthDuration/v2_depth_duration_MTurk/v2_DepthDuration_HTML.html#401,401,1241,878,1280,1024,8-29-2022,14-28-23,25,depth_duration_stimuli/003010_2014-06-15_12-54-35_094959634447_rgbf000112-resize_0/003010_2014-06-15_12-54-35_094959634447_rgbf000112-resize_0-target.png,1000,3.1185,8,4967,1020,feet,jsons/v1_VE1000_randls_19.json,609375,803952,4,Woman
25,945021,DepthScenes,duration_manipulation_targetAtFixation,jsons/v1_VE1000_randls_19.json,http://54.235.29.9/FacialAge/BNav_EC2/DepthDuration/v2_depth_duration_MTurk/v2_DepthDuration_HTML.html#401,401,1241,878,1280,1024,8-29-2022,14-28-23,26,depth_duration_stimuli/003534_2014-05-22_15-06-10_094959634447_rgbf000102-resize_4/003534_2014-05-22_15-06-10_094959634447_rgbf000102-resize_4-target.png,1000,1.426,1,3709,994,feet,jsons/v1_VE1000_randls_19.json,609375,803952,4,Woman
26,945021,DepthScenes,duration_manipulation_targetAtFixation,jsons/v1_VE1000_randls_19.json,http://54.235.29.9/FacialAge/BNav_EC2/DepthDuration/v2_depth_duration_MTurk/v2_DepthDuration_HTML.html#401,401,1241,878,1280,1024,8-29-2022,14-28-23,27,depth_duration_stimuli/002637_2014-06-24_14-51-13_094959634447_rgbf000066-resize_4/002637_2014-06-24_14-51-13_094959634447_rgbf000066-resize_4-target.png,1000,1.9955,2,5105,993,feet,jsons/v1_VE1000_randls_19.json,609375,803952,4,Woman
27,945021,DepthScenes,duration_manipulation_targetAtFixation,jsons/v1_VE1000_randls_19.json,http://54.235.29.9/FacialAge/BNav_EC2/DepthDuration/v2_depth_duration_MTurk/v2_DepthDuration_HTML.html#401,401,1241,878,1280,1024,8-29-2022,14-28-23,28,depth_duration_stimuli/002905_2014-06-03_18-04-43_094959634447_rgbf000151-resize_2/002905_2014-06-03_18-04-43_094959634447_rgbf000151-resize_2-target.png,1000,2.0295,2,2987,999,feet,jsons/v1_VE1000_randls_19.json,609375,803952,4,Woman
28,945021,DepthScenes,duration_manipulation_targetAtFixation,jsons/v1_VE1000_randls_19.json,http://54.235.29.9/FacialAge/BNav_EC2/DepthDuration/v2_depth_duration_MTurk/v2_DepthDuration_HTML.html#401,401,1241,878,1280,1024,8-29-2022,14-28-23,29,depth_duration_stimuli/003423_2014-05-21_10-23-26_094959634447_rgbf002665-resize_2/003423_2014-05-21_10-23-26_094959634447_rgbf002665-resize_2-target.png,1000,3.2575,10,2835,1005,feet,jsons/v1_VE1000_randls_19.json,609375,803952,4,Woman
29,945021,DepthScenes,duration_manipulation_targetAtFixation,jsons/v1_VE1000_randls_19.json,http://54.235.29.9/FacialAge/BNav_EC2/DepthDuration/v2_depth_duration_MTurk/v2_DepthDuration_HTML.html#401,401,1241,878,1280,1024,8-29-2022,14-28-23,30,depth_duration_stimuli/000375_2014-06-08_11-17-29_260595134347_rgbf000133-resize_2/000375_2014-06-08_11-17-29_260595134347_rgbf000133-resize-original.jpg,1000,4.718,0,2482,991,feet,jsons/v1_VE1000_randls_19.json,609375,803952,4,Woman
30,945021,DepthScenes,duration_manipulation_targetAtFixation,jsons/v1_VE1000_randls_19.json,http://54.235.29.9/FacialAge/BNav_EC2/DepthDuration/v2_depth_duration_MTurk/v2_DepthDuration_HTML.html#401,401,1241,878,1280,1024,8-29-2022,14-28-23,31,depth_duration_stimuli/001092_2014-06-15_17-34-58_260595134347_rgbf000171-resize_3/001092_2014-06-15_17-34-58_260595134347_rgbf000171-resize_3-target.png,1000,2.6935,3,2417,995,feet,jsons/v1_VE1000_randls_19.json,609375,803952,4,Woman
31,945021,DepthScenes,duration_manipulation_targetAtFixation,jsons/v1_VE1000_randls_19.json,http://54.235.29.9/FacialAge/BNav_EC2/DepthDuration/v2_depth_duration_MTurk/v2_DepthDuration_HTML.html#401,401,1241,878,1280,1024,8-29-2022,14-28-23,32,depth_duration_stimuli/002545_2014-06-24_13-38-53_094959634447_rgbf000080-resize_4/002545_2014-06-24_13-38-53_094959634447_rgbf000080-resize_4-target.png,1000,1.9205,3,4748,1005,feet,jsons/v1_VE1000_randls_19.json,609375,803952,4,Woman
32,945021,DepthScenes,duration_manipulation_targetAtFixation,jsons/v1_VE1000_randls_19.json,http://54.235.29.9/FacialAge/BNav_EC2/DepthDuration/v2_depth_duration_MTurk/v2_DepthDuration_HTML.html#401,401,1241,878,1280,1024,8-29-2022,14-28-23,33,depth_duration_stimuli/000469_2014-06-09_19-42-10_260595134347_rgbf000081-resize_1/000469_2014-06-09_19-42-10_260595134347_rgbf000081-resize_1-target.png,1000,1.652,2,2456,1000,feet,jsons/v1_VE1000_randls_19.json,609375,803952,4,Woman
33,945021,DepthScenes,duration_manipulation_targetAtFixation,jsons/v1_VE1000_randls_19.json,http://54.235.29.9/FacialAge/BNav_EC2/DepthDuration/v2_depth_duration_MTurk/v2_DepthDuration_HTML.html#401,401,1241,878,1280,1024,8-29-2022,14-28-23,34,depth_duration_stimuli/000483_2014-06-09_20-41-45_260595134347_rgbf000116-resize_4/000483_2014-06-09_20-41-45_260595134347_rgbf000116-resize_4-target.png,1000,1.337,1,2417,997,feet,jsons/v1_VE1000_randls_19.json,609375,803952,4,Woman
34,945021,DepthScenes,duration_manipulation_targetAtFixation,jsons/v1_VE1000_randls_19.json,http://54.235.29.9/FacialAge/BNav_EC2/DepthDuration/v2_depth_duration_MTurk/v2_DepthDuration_HTML.html#401,401,1241,878,1280,1024,8-29-2022,14-28-23,35,depth_duration_stimuli/001806_2014-06-26_20-50-20_260595134347_rgbf000091-resize_1/001806_2014-06-26_20-50-20_260595134347_rgbf000091-resize_1-target.png,1000,2.7305,2,2395,985,feet,jsons/v1_VE1000_randls_19.json,609375,803952,4,Woman
35,945021,DepthScenes,duration_manipulation_targetAtFixation,jsons/v1_VE1000_randls_19.json,http://54.235.29.9/FacialAge/BNav_EC2/DepthDuration/v2_depth_duration_MTurk/v2_DepthDuration_HTML.html#401,401,1241,878,1280,1024,8-29-2022,14-28-23,36,depth_duration_stimuli/001617_2014-06-20_11-35-32_260595134347_rgbf000066-resize_1/001617_2014-06-20_11-35-32_260595134347_rgbf000066-resize_1-target.png,1000,3.7910000000000004,5,2544,1009,feet,jsons/v1_VE1000_randls_19.json,609375,803952,4,Woman
36,945021,DepthScenes,duration_manipulation_targetAtFixation,jsons/v1_VE1000_randls_19.json,http://54.235.29.9/FacialAge/BNav_EC2/DepthDuration/v2_depth_duration_MTurk/v2_DepthDuration_HTML.html#401,401,1241,878,1280,1024,8-29-2022,14-28-23,37,depth_duration_stimuli/000642_2014-06-08_16-59-25_260595134347_rgbf000098-resize_2/000642_2014-06-08_16-59-25_260595134347_rgbf000098-resize_2-target.png,1000,2.8815,3,2540,995,feet,jsons/v1_VE1000_randls_19.json,609375,803952,4,Woman
37,945021,DepthScenes,duration_manipulation_targetAtFixation,jsons/v1_VE1000_randls_19.json,http://54.235.29.9/FacialAge/BNav_EC2/DepthDuration/v2_depth_duration_MTurk/v2_DepthDuration_HTML.html#401,401,1241,878,1280,1024,8-29-2022,14-28-23,38,depth_duration_stimuli/002425_2014-06-28_20-27-29_260595134347_rgbf000031-resize_8/002425_2014-06-28_20-27-29_260595134347_rgbf000031-resize_8-target.png,1000,3.8960000000000004,6,4451,998,feet,jsons/v1_VE1000_randls_19.json,609375,803952,4,Woman
38,945021,DepthScenes,duration_manipulation_targetAtFixation,jsons/v1_VE1000_randls_19.json,http://54.235.29.9/FacialAge/BNav_EC2/DepthDuration/v2_depth_duration_MTurk/v2_DepthDuration_HTML.html#401,401,1241,878,1280,1024,8-29-2022,14-28-23,39,depth_duration_stimuli/002375_2014-06-28_20-13-44_260595134347_rgbf000032-resize_1/002375_2014-06-28_20-13-44_260595134347_rgbf000032-resize_1-target.png,1000,4.0175,3,2810,1000,feet,jsons/v1_VE1000_randls_19.json,609375,803952,4,Woman
39,945021,DepthScenes,duration_manipulation_targetAtFixation,jsons/v1_VE1000_randls_19.json,http://54.235.29.9/FacialAge/BNav_EC2/DepthDuration/v2_depth_duration_MTurk/v2_DepthDuration_HTML.html#401,401,1241,878,1280,1024,8-29-2022,14-28-23,40,depth_duration_stimuli/002657_2014-06-13_15-29-54_094959634447_rgbf000150-resize_1/002657_2014-06-13_15-29-54_094959634447_rgbf000150-resize_1-target.png,1000,4.919,8,3441,1010,feet,jsons/v1_VE1000_randls_19.json,609375,803952,4,Woman
40,945021,DepthScenes,duration_manipulation_targetAtFixation,jsons/v1_VE1000_randls_19.json,http://54.235.29.9/FacialAge/BNav_EC2/DepthDuration/v2_depth_duration_MTurk/v2_DepthDuration_HTML.html#401,401,1241,878,1280,1024,8-29-2022,14-28-23,41,depth_duration_stimuli/002725_2014-06-22_11-47-51_094959634447_rgbf000070-resize_1/002725_2014-06-22_11-47-51_094959634447_rgbf000070-resize_1-target.png,1000,2.195,5,2465,1007,feet,jsons/v1_VE1000_randls_19.json,609375,803952,4,Woman
41,945021,DepthScenes,duration_manipulation_targetAtFixation,jsons/v1_VE1000_randls_19.json,http://54.235.29.9/FacialAge/BNav_EC2/DepthDuration/v2_depth_duration_MTurk/v2_DepthDuration_HTML.html#401,401,1241,878,1280,1024,8-29-2022,14-28-23,42,depth_duration_stimuli/002344_2014-06-28_20-06-29_260595134347_rgbf000030-resize_1/002344_2014-06-28_20-06-29_260595134347_rgbf000030-resize_1-target.png,1000,1.5795,1,2586,999,feet,jsons/v1_VE1000_randls_19.json,609375,803952,4,Woman
42,945021,DepthScenes,duration_manipulation_targetAtFixation,jsons/v1_VE1000_randls_19.json,http://54.235.29.9/FacialAge/BNav_EC2/DepthDuration/v2_depth_duration_MTurk/v2_DepthDuration_HTML.html#401,401,1241,878,1280,1024,8-29-2022,14-28-23,43,depth_duration_stimuli/000917_2014-06-09_22-45-29_260595134347_rgbf000149-resize_3/000917_2014-06-09_22-45-29_260595134347_rgbf000149-resize_3-target.png,1000,4.1865,5,3784,1007,feet,jsons/v1_VE1000_randls_19.json,609375,803952,4,Woman
43,945021,DepthScenes,duration_manipulation_targetAtFixation,jsons/v1_VE1000_randls_19.json,http://54.235.29.9/FacialAge/BNav_EC2/DepthDuration/v2_depth_duration_MTurk/v2_DepthDuration_HTML.html#401,401,1241,878,1280,1024,8-29-2022,14-28-23,44,depth_duration_stimuli/002323_2014-06-28_20-01-54_260595134347_rgbf000051-resize_4/002323_2014-06-28_20-01-54_260595134347_rgbf000051-resize_4-target.png,1000,3.7310000000000003,10,5147,1004,feet,jsons/v1_VE1000_randls_19.json,609375,803952,4,Woman
44,945021,DepthScenes,duration_manipulation_targetAtFixation,jsons/v1_VE1000_randls_19.json,http://54.235.29.9/FacialAge/BNav_EC2/DepthDuration/v2_depth_duration_MTurk/v2_DepthDuration_HTML.html#401,401,1241,878,1280,1024,8-29-2022,14-28-23,45,depth_duration_stimuli/000787_2014-06-08_22-33-53_260595134347_rgbf000175-resize_1/000787_2014-06-08_22-33-53_260595134347_rgbf000175-resize-original.jpg,1000,4.784,0,2884,993,feet,jsons/v1_VE1000_randls_19.json,609375,803952,4,Woman
45,945021,DepthScenes,duration_manipulation_targetAtFixation,jsons/v1_VE1000_randls_19.json,http://54.235.29.9/FacialAge/BNav_EC2/DepthDuration/v2_depth_duration_MTurk/v2_DepthDuration_HTML.html#401,401,1241,878,1280,1024,8-29-2022,14-28-23,46,depth_duration_stimuli/002445_2014-06-28_20-32-16_260595134347_rgbf000029-resize_4/002445_2014-06-28_20-32-16_260595134347_rgbf000029-resize_4-target.png,1000,2.5315,2,2383,994,feet,jsons/v1_VE1000_randls_19.json,609375,803952,4,Woman
46,945021,DepthScenes,duration_manipulation_targetAtFixation,jsons/v1_VE1000_randls_19.json,http://54.235.29.9/FacialAge/BNav_EC2/DepthDuration/v2_depth_duration_MTurk/v2_DepthDuration_HTML.html#401,401,1241,878,1280,1024,8-29-2022,14-28-23,47,depth_duration_stimuli/000780_2014-06-08_22-28-29_260595134347_rgbf000126-resize_1/000780_2014-06-08_22-28-29_260595134347_rgbf000126-resize_1-target.png,1000,3.3825,8,2815,1008,feet,jsons/v1_VE1000_randls_19.json,609375,803952,4,Woman
47,945021,DepthScenes,duration_manipulation_targetAtFixation,jsons/v1_VE1000_randls_19.json,http://54.235.29.9/FacialAge/BNav_EC2/DepthDuration/v2_depth_duration_MTurk/v2_DepthDuration_HTML.html#401,401,1241,878,1280,1024,8-29-2022,14-28-23,48,depth_duration_stimuli/002988_2014-06-15_12-24-20_094959634447_rgbf000150-resize_1/002988_2014-06-15_12-24-20_094959634447_rgbf000150-resize_1-target.png,1000,4.7669999999999995,10,3291,1002,feet,jsons/v1_VE1000_randls_19.json,609375,803952,4,Woman
48,945021,DepthScenes,duration_manipulation_targetAtFixation,jsons/v1_VE1000_randls_19.json,http://54.235.29.9/FacialAge/BNav_EC2/DepthDuration/v2_depth_duration_MTurk/v2_DepthDuration_HTML.html#401,401,1241,878,1280,1024,8-29-2022,14-28-23,49,depth_duration_stimuli/001052_2014-06-08_18-24-54_260595134347_rgbf000130-resize_1/001052_2014-06-08_18-24-54_260595134347_rgbf000130-resize_1-target.png,1000,4.1045,12,3698,999,feet,jsons/v1_VE1000_randls_19.json,609375,803952,4,Woman
49,945021,DepthScenes,duration_manipulation_targetAtFixation,jsons/v1_VE1000_randls_19.json,http://54.235.29.9/FacialAge/BNav_EC2/DepthDuration/v2_depth_duration_MTurk/v2_DepthDuration_HTML.html#401,401,1241,878,1280,1024,8-29-2022,14-28-23,50,depth_duration_stimuli/001110_2014-06-15_17-25-28_260595134347_rgbf000150-resize_1/001110_2014-06-15_17-25-28_260595134347_rgbf000150-resize_1-target.png,1000,1.7115,4,2737,989,feet,jsons/v1_VE1000_randls_19.json,609375,803952,4,Woman
50,945021,DepthScenes,duration_manipulation_targetAtFixation,jsons/v1_VE1000_randls_19.json,http://54.235.29.9/FacialAge/BNav_EC2/DepthDuration/v2_depth_duration_MTurk/v2_DepthDuration_HTML.html#401,401,1241,878,1280,1024,8-29-2022,14-28-23,51,depth_duration_stimuli/000927_2014-06-09_16-32-30_260595134347_rgbf000123-resize_3/000927_2014-06-09_16-32-30_260595134347_rgbf000123-resize_3-target.png,1000,2.6785,4,3230,997,feet,jsons/v1_VE1000_randls_19.json,609375,803952,4,Woman
51,945021,DepthScenes,duration_manipulation_targetAtFixation,jsons/v1_VE1000_randls_19.json,http://54.235.29.9/FacialAge/BNav_EC2/DepthDuration/v2_depth_duration_MTurk/v2_DepthDuration_HTML.html#401,401,1241,878,1280,1024,8-29-2022,14-28-23,52,depth_duration_stimuli/002118_2014-06-25_20-32-08_260595134347_rgbf000078-resize_1/002118_2014-06-25_20-32-08_260595134347_rgbf000078-resize_1-target.png,1000,2.6460000000000004,5,2907,1006,feet,jsons/v1_VE1000_randls_19.json,609375,803952,4,Woman
52,945021,DepthScenes,duration_manipulation_targetAtFixation,jsons/v1_VE1000_randls_19.json,http://54.235.29.9/FacialAge/BNav_EC2/DepthDuration/v2_depth_duration_MTurk/v2_DepthDuration_HTML.html#401,401,1241,878,1280,1024,8-29-2022,14-28-23,53,depth_duration_stimuli/001516_2014-06-20_16-25-09_260595134347_rgbf000076-resize_2/001516_2014-06-20_16-25-09_260595134347_rgbf000076-resize_2-target.png,1000,1.7445,3,3183,1006,feet,jsons/v1_VE1000_randls_19.json,609375,803952,4,Woman
53,945021,DepthScenes,duration_manipulation_targetAtFixation,jsons/v1_VE1000_randls_19.json,http://54.235.29.9/FacialAge/BNav_EC2/DepthDuration/v2_depth_duration_MTurk/v2_DepthDuration_HTML.html#401,401,1241,878,1280,1024,8-29-2022,14-28-23,54,depth_duration_stimuli/000692_2014-06-08_13-09-42_260595134347_rgbf000199-resize_2/000692_2014-06-08_13-09-42_260595134347_rgbf000199-resize_2-target.png,1000,3.661,5,2962,999,feet,jsons/v1_VE1000_randls_19.json,609375,803952,4,Woman
54,945021,DepthScenes,duration_manipulation_targetAtFixation,jsons/v1_VE1000_randls_19.json,http://54.235.29.9/FacialAge/BNav_EC2/DepthDuration/v2_depth_duration_MTurk/v2_DepthDuration_HTML.html#401,401,1241,878,1280,1024,8-29-2022,14-28-23,55,depth_duration_stimuli/001094_2014-06-15_17-36-00_260595134347_rgbf000205-resize_0/001094_2014-06-15_17-36-00_260595134347_rgbf000205-resize_0-target.png,1000,4.2175,10,2739,1005,feet,jsons/v1_VE1000_randls_19.json,609375,803952,4,Woman
55,945021,DepthScenes,duration_manipulation_targetAtFixation,jsons/v1_VE1000_randls_19.json,http://54.235.29.9/FacialAge/BNav_EC2/DepthDuration/v2_depth_duration_MTurk/v2_DepthDuration_HTML.html#401,401,1241,878,1280,1024,8-29-2022,14-28-23,56,depth_duration_stimuli/002213_2014-06-28_18-37-58_260595134347_rgbf000055-resize_1/002213_2014-06-28_18-37-58_260595134347_rgbf000055-resize_1-target.png,1000,3.62,1,5172,999,feet,jsons/v1_VE1000_randls_19.json,609375,803952,4,Woman
56,945021,DepthScenes,duration_manipulation_targetAtFixation,jsons/v1_VE1000_randls_19.json,http://54.235.29.9/FacialAge/BNav_EC2/DepthDuration/v2_depth_duration_MTurk/v2_DepthDuration_HTML.html#401,401,1241,878,1280,1024,8-29-2022,14-28-23,57,depth_duration_stimuli/000691_2014-06-08_13-08-50_260595134347_rgbf000132-resize_3/000691_2014-06-08_13-08-50_260595134347_rgbf000132-resize_3-target.png,1000,4.1530000000000005,10,4114,1000,feet,jsons/v1_VE1000_randls_19.json,609375,803952,4,Woman
57,945021,DepthScenes,duration_manipulation_targetAtFixation,jsons/v1_VE1000_randls_19.json,http://54.235.29.9/FacialAge/BNav_EC2/DepthDuration/v2_depth_duration_MTurk/v2_DepthDuration_HTML.html#401,401,1241,878,1280,1024,8-29-2022,14-28-23,58,depth_duration_stimuli/000929_2014-06-09_16-33-19_260595134347_rgbf000139-resize_0/000929_2014-06-09_16-33-19_260595134347_rgbf000139-resize_0-target.png,1000,2.8680000000000003,5,2497,1012,feet,jsons/v1_VE1000_randls_19.json,609375,803952,4,Woman
58,945021,DepthScenes,duration_manipulation_targetAtFixation,jsons/v1_VE1000_randls_19.json,http://54.235.29.9/FacialAge/BNav_EC2/DepthDuration/v2_depth_duration_MTurk/v2_DepthDuration_HTML.html#401,401,1241,878,1280,1024,8-29-2022,14-28-23,59,depth_duration_stimuli/000457_2014-06-08_16-52-43_260595134347_rgbf000199-resize_1/000457_2014-06-08_16-52-43_260595134347_rgbf000199-resize_1-target.png,1000,3.6489999999999996,6,3315,1008,feet,jsons/v1_VE1000_randls_19.json,609375,803952,4,Woman
59,945021,DepthScenes,duration_manipulation_targetAtFixation,jsons/v1_VE1000_randls_19.json,http://54.235.29.9/FacialAge/BNav_EC2/DepthDuration/v2_depth_duration_MTurk/v2_DepthDuration_HTML.html#401,401,1241,878,1280,1024,8-29-2022,14-28-23,60,depth_duration_stimuli/002570_2014-06-24_13-59-54_094959634447_rgbf000059-resize_0/002570_2014-06-24_13-59-54_094959634447_rgbf000059-resize_0-target.png,1000,4.037,10,2750,992,feet,jsons/v1_VE1000_randls_19.json,609375,803952,4,Woman
60,945021,DepthScenes,duration_manipulation_targetAtFixation,jsons/v1_VE1000_randls_19.json,http://54.235.29.9/FacialAge/BNav_EC2/DepthDuration/v2_depth_duration_MTurk/v2_DepthDuration_HTML.html#401,401,1241,878,1280,1024,8-29-2022,14-28-23,61,depth_duration_stimuli/002467_2014-06-28_20-38-07_260595134347_rgbf000026-resize_2/002467_2014-06-28_20-38-07_260595134347_rgbf000026-resize_2-target.png,1000,4.742,8,2822,1010,feet,jsons/v1_VE1000_randls_19.json,609375,803952,4,Woman
61,945021,DepthScenes,duration_manipulation_targetAtFixation,jsons/v1_VE1000_randls_19.json,http://54.235.29.9/FacialAge/BNav_EC2/DepthDuration/v2_depth_duration_MTurk/v2_DepthDuration_HTML.html#401,401,1241,878,1280,1024,8-29-2022,14-28-23,62,depth_duration_stimuli/001244_2014-06-17_16-47-45_260595134347_rgbf000030-resize_4/001244_2014-06-17_16-47-45_260595134347_rgbf000030-resize_4-target.png,1000,2.0425,3,2634,1000,feet,jsons/v1_VE1000_randls_19.json,609375,803952,4,Woman
62,945021,DepthScenes,duration_manipulation_targetAtFixation,jsons/v1_VE1000_randls_19.json,http://54.235.29.9/FacialAge/BNav_EC2/DepthDuration/v2_depth_duration_MTurk/v2_DepthDuration_HTML.html#401,401,1241,878,1280,1024,8-29-2022,14-28-23,63,depth_duration_stimuli/003495_2014-05-21_16-01-51_094959634447_rgbf000100-resize_3/003495_2014-05-21_16-01-51_094959634447_rgbf000100-resize_3-target.png,1000,1.6255,1,4351,993,feet,jsons/v1_VE1000_randls_19.json,609375,803952,4,Woman
63,945021,DepthScenes,duration_manipulation_targetAtFixation,jsons/v1_VE1000_randls_19.json,http://54.235.29.9/FacialAge/BNav_EC2/DepthDuration/v2_depth_duration_MTurk/v2_DepthDuration_HTML.html#401,401,1241,878,1280,1024,8-29-2022,14-28-23,64,depth_duration_stimuli/000878_2014-06-08_22-52-45_260595134347_rgbf000045-resize_2/000878_2014-06-08_22-52-45_260595134347_rgbf000045-resize_2-target.png,1000,2.092,3,2862,1012,feet,jsons/v1_VE1000_randls_19.json,609375,803952,4,Woman
64,945021,DepthScenes,duration_manipulation_targetAtFixation,jsons/v1_VE1000_randls_19.json,http://54.235.29.9/FacialAge/BNav_EC2/DepthDuration/v2_depth_duration_MTurk/v2_DepthDuration_HTML.html#401,401,1241,878,1280,1024,8-29-2022,14-28-23,65,depth_duration_stimuli/002953_2014-06-08_17-32-18_094959634447_rgbf000059-resize_5/002953_2014-06-08_17-32-18_094959634447_rgbf000059-resize_5-target.png,1000,1.551,1,2534,1009,feet,jsons/v1_VE1000_randls_19.json,609375,803952,4,Woman
65,945021,DepthScenes,duration_manipulation_targetAtFixation,jsons/v1_VE1000_randls_19.json,http://54.235.29.9/FacialAge/BNav_EC2/DepthDuration/v2_depth_duration_MTurk/v2_DepthDuration_HTML.html#401,401,1241,878,1280,1024,8-29-2022,14-28-23,66,depth_duration_stimuli/001222_2014-06-17_16-24-06_260595134347_rgbf000073-resize_0/001222_2014-06-17_16-24-06_260595134347_rgbf000073-resize-original.jpg,1000,1.4385,0,2773,991,feet,jsons/v1_VE1000_randls_19.json,609375,803952,4,Woman
66,945021,DepthScenes,duration_manipulation_targetAtFixation,jsons/v1_VE1000_randls_19.json,http://54.235.29.9/FacialAge/BNav_EC2/DepthDuration/v2_depth_duration_MTurk/v2_DepthDuration_HTML.html#401,401,1241,878,1280,1024,8-29-2022,14-28-23,67,depth_duration_stimuli/001175_2014-06-17_15-45-55_260595134347_rgbf000129-resize_4/001175_2014-06-17_15-45-55_260595134347_rgbf000129-resize_4-target.png,1000,4.255,10,2923,1010,feet,jsons/v1_VE1000_randls_19.json,609375,803952,4,Woman
67,945021,DepthScenes,duration_manipulation_targetAtFixation,jsons/v1_VE1000_randls_19.json,http://54.235.29.9/FacialAge/BNav_EC2/DepthDuration/v2_depth_duration_MTurk/v2_DepthDuration_HTML.html#401,401,1241,878,1280,1024,8-29-2022,14-28-23,68,depth_duration_stimuli/003490_2014-05-21_15-50-11_094959634447_rgbf000101-resize_3/003490_2014-05-21_15-50-11_094959634447_rgbf000101-resize_3-target.png,1000,3.6445,8,3840,990,feet,jsons/v1_VE1000_randls_19.json,609375,803952,4,Woman
68,945021,DepthScenes,duration_manipulation_targetAtFixation,jsons/v1_VE1000_randls_19.json,http://54.235.29.9/FacialAge/BNav_EC2/DepthDuration/v2_depth_duration_MTurk/v2_DepthDuration_HTML.html#401,401,1241,878,1280,1024,8-29-2022,14-28-23,69,depth_duration_stimuli/003492_2014-05-21_15-50-55_094959634447_rgbf000828-resize_1/003492_2014-05-21_15-50-55_094959634447_rgbf000828-resize_1-target.png,1000,4.06875,10,2778,1001,feet,jsons/v1_VE1000_randls_19.json,609375,803952,4,Woman
69,945021,DepthScenes,duration_manipulation_targetAtFixation,jsons/v1_VE1000_randls_19.json,http://54.235.29.9/FacialAge/BNav_EC2/DepthDuration/v2_depth_duration_MTurk/v2_DepthDuration_HTML.html#401,401,1241,878,1280,1024,8-29-2022,14-28-23,70,depth_duration_stimuli/002568_2014-06-24_13-59-21_094959634447_rgbf000062-resize_4/002568_2014-06-24_13-59-21_094959634447_rgbf000062-resize_4-target.png,1000,3.015,6,2946,1001,feet,jsons/v1_VE1000_randls_19.json,609375,803952,4,Woman
70,945021,DepthScenes,duration_manipulation_targetAtFixation,jsons/v1_VE1000_randls_19.json,http://54.235.29.9/FacialAge/BNav_EC2/DepthDuration/v2_depth_duration_MTurk/v2_DepthDuration_HTML.html#401,401,1241,878,1280,1024,8-29-2022,14-28-23,71,depth_duration_stimuli/000486_2014-06-09_20-47-20_260595134347_rgbf000143-resize_2/000486_2014-06-09_20-47-20_260595134347_rgbf000143-resize_2-target.png,1000,4.8325,6,3299,1005,feet,jsons/v1_VE1000_randls_19.json,609375,803952,4,Woman
71,945021,DepthScenes,duration_manipulation_targetAtFixation,jsons/v1_VE1000_randls_19.json,http://54.235.29.9/FacialAge/BNav_EC2/DepthDuration/v2_depth_duration_MTurk/v2_DepthDuration_HTML.html#401,401,1241,878,1280,1024,8-29-2022,14-28-23,72,depth_duration_stimuli/003083_2014-06-15_15-21-03_094959634447_rgbf000063-resize_1/003083_2014-06-15_15-21-03_094959634447_rgbf000063-resize_1-target.png,1000,4.1405,10,2866,1009,feet,jsons/v1_VE1000_randls_19.json,609375,803952,4,Woman
72,945021,DepthScenes,duration_manipulation_targetAtFixation,jsons/v1_VE1000_randls_19.json,http://54.235.29.9/FacialAge/BNav_EC2/DepthDuration/v2_depth_duration_MTurk/v2_DepthDuration_HTML.html#401,401,1241,878,1280,1024,8-29-2022,14-28-23,73,depth_duration_stimuli/002057_2014-06-24_21-00-13_260595134347_rgbf000120-resize_1/002057_2014-06-24_21-00-13_260595134347_rgbf000120-resize_1-target.png,1000,2.967,10,2685,995,feet,jsons/v1_VE1000_randls_19.json,609375,803952,4,Woman
73,945021,DepthScenes,duration_manipulation_targetAtFixation,jsons/v1_VE1000_randls_19.json,http://54.235.29.9/FacialAge/BNav_EC2/DepthDuration/v2_depth_duration_MTurk/v2_DepthDuration_HTML.html#401,401,1241,878,1280,1024,8-29-2022,14-28-23,74,depth_duration_stimuli/000709_2014-06-08_13-51-55_260595134347_rgbf000068-resize_3/000709_2014-06-08_13-51-55_260595134347_rgbf000068-resize_3-target.png,1000,1.8030000000000002,3,3584,1003,feet,jsons/v1_VE1000_randls_19.json,609375,803952,4,Woman
74,945021,DepthScenes,duration_manipulation_targetAtFixation,jsons/v1_VE1000_randls_19.json,http://54.235.29.9/FacialAge/BNav_EC2/DepthDuration/v2_depth_duration_MTurk/v2_DepthDuration_HTML.html#401,401,1241,878,1280,1024,8-29-2022,14-28-23,75,depth_duration_stimuli/001570_2014-06-20_17-21-09_260595134347_rgbf000135-resize_4/001570_2014-06-20_17-21-09_260595134347_rgbf000135-resize_4-target.png,1000,4.467,8,3487,1010,feet,jsons/v1_VE1000_randls_19.json,609375,803952,4,Woman
75,945021,DepthScenes,duration_manipulation_targetAtFixation,jsons/v1_VE1000_randls_19.json,http://54.235.29.9/FacialAge/BNav_EC2/DepthDuration/v2_depth_duration_MTurk/v2_DepthDuration_HTML.html#401,401,1241,878,1280,1024,8-29-2022,14-28-23,76,depth_duration_stimuli/001392_2014-06-19_16-07-59_260595134347_rgbf000046-resize_1/001392_2014-06-19_16-07-59_260595134347_rgbf000046-resize_1-target.png,1000,4.135,8,3019,1001,feet,jsons/v1_VE1000_randls_19.json,609375,803952,4,Woman
76,945021,DepthScenes,duration_manipulation_targetAtFixation,jsons/v1_VE1000_randls_19.json,http://54.235.29.9/FacialAge/BNav_EC2/DepthDuration/v2_depth_duration_MTurk/v2_DepthDuration_HTML.html#401,401,1241,878,1280,1024,8-29-2022,14-28-23,77,depth_duration_stimuli/002663_2014-06-13_15-50-26_094959634447_rgbf000075-resize_1/002663_2014-06-13_15-50-26_094959634447_rgbf000075-resize_1-target.png,1000,4.7495,10,2938,998,feet,jsons/v1_VE1000_randls_19.json,609375,803952,4,Woman
77,945021,DepthScenes,duration_manipulation_targetAtFixation,jsons/v1_VE1000_randls_19.json,http://54.235.29.9/FacialAge/BNav_EC2/DepthDuration/v2_depth_duration_MTurk/v2_DepthDuration_HTML.html#401,401,1241,878,1280,1024,8-29-2022,14-28-23,78,depth_duration_stimuli/000409_2014-06-04_19-23-33_260595134347_rgbf000067-resize_0/000409_2014-06-04_19-23-33_260595134347_rgbf000067-resize_0-target.png,1000,3.7335,5,2997,997,feet,jsons/v1_VE1000_randls_19.json,609375,803952,4,Woman
78,945021,DepthScenes,duration_manipulation_targetAtFixation,jsons/v1_VE1000_randls_19.json,http://54.235.29.9/FacialAge/BNav_EC2/DepthDuration/v2_depth_duration_MTurk/v2_DepthDuration_HTML.html#401,401,1241,878,1280,1024,8-29-2022,14-28-23,79,depth_duration_stimuli/003070_2014-06-15_14-58-27_094959634447_rgbf000150-resize_3/003070_2014-06-15_14-58-27_094959634447_rgbf000150-resize_3-target.png,1000,2.9415,5,2995,992,feet,jsons/v1_VE1000_randls_19.json,609375,803952,4,Woman
79,945021,DepthScenes,duration_manipulation_targetAtFixation,jsons/v1_VE1000_randls_19.json,http://54.235.29.9/FacialAge/BNav_EC2/DepthDuration/v2_depth_duration_MTurk/v2_DepthDuration_HTML.html#401,401,1241,878,1280,1024,8-29-2022,14-28-23,80,depth_duration_stimuli/000943_2014-06-09_19-31-07_260595134347_rgbf000128-resize_1/000943_2014-06-09_19-31-07_260595134347_rgbf000128-resize_1-target.png,1000,1.9765,3,3311,989,feet,jsons/v1_VE1000_randls_19.json,609375,803952,4,Woman
80,945021,DepthScenes,duration_manipulation_targetAtFixation,jsons/v1_VE1000_randls_19.json,http://54.235.29.9/FacialAge/BNav_EC2/DepthDuration/v2_depth_duration_MTurk/v2_DepthDuration_HTML.html#401,401,1241,878,1280,1024,8-29-2022,14-28-23,81,depth_duration_stimuli/002600_2014-06-24_14-27-04_094959634447_rgbf000074-resize_2/002600_2014-06-24_14-27-04_094959634447_rgbf000074-resize_2-target.png,1000,2.7575,2,2564,1012,feet,jsons/v1_VE1000_randls_19.json,609375,803952,4,Woman
81,945021,DepthScenes,duration_manipulation_targetAtFixation,jsons/v1_VE1000_randls_19.json,http://54.235.29.9/FacialAge/BNav_EC2/DepthDuration/v2_depth_duration_MTurk/v2_DepthDuration_HTML.html#401,401,1241,878,1280,1024,8-29-2022,14-28-23,82,depth_duration_stimuli/003228_2014-05-14_13-42-35_094959634447_rgbf000101-resize_1/003228_2014-05-14_13-42-35_094959634447_rgbf000101-resize_1-target.png,1000,1.9680000000000002,1,2611,990,feet,jsons/v1_VE1000_randls_19.json,609375,803952,4,Woman
82,945021,DepthScenes,duration_manipulation_targetAtFixation,jsons/v1_VE1000_randls_19.json,http://54.235.29.9/FacialAge/BNav_EC2/DepthDuration/v2_depth_duration_MTurk/v2_DepthDuration_HTML.html#401,401,1241,878,1280,1024,8-29-2022,14-28-23,83,depth_duration_stimuli/000788_2014-06-08_22-34-36_260595134347_rgbf000131-resize_1/000788_2014-06-08_22-34-36_260595134347_rgbf000131-resize_1-target.png,1000,3.359,4,2864,997,feet,jsons/v1_VE1000_randls_19.json,609375,803952,4,Woman
83,945021,DepthScenes,duration_manipulation_targetAtFixation,jsons/v1_VE1000_randls_19.json,http://54.235.29.9/FacialAge/BNav_EC2/DepthDuration/v2_depth_duration_MTurk/v2_DepthDuration_HTML.html#401,401,1241,878,1280,1024,8-29-2022,14-28-23,84,depth_duration_stimuli/001235_2014-06-17_16-37-36_260595134347_rgbf000084-resize_4/001235_2014-06-17_16-37-36_260595134347_rgbf000084-resize_4-target.png,1000,3.6605,5,3249,1011,feet,jsons/v1_VE1000_randls_19.json,609375,803952,4,Woman
84,945021,DepthScenes,duration_manipulation_targetAtFixation,jsons/v1_VE1000_randls_19.json,http://54.235.29.9/FacialAge/BNav_EC2/DepthDuration/v2_depth_duration_MTurk/v2_DepthDuration_HTML.html#401,401,1241,878,1280,1024,8-29-2022,14-28-23,85,depth_duration_stimuli/000436_2014-06-09_22-25-11_260595134347_rgbf000137-resize_1/000436_2014-06-09_22-25-11_260595134347_rgbf000137-resize_1-target.png,1000,4.0705,10,2768,996,feet,jsons/v1_VE1000_randls_19.json,609375,803952,4,Woman
85,945021,DepthScenes,duration_manipulation_targetAtFixation,jsons/v1_VE1000_randls_19.json,http://54.235.29.9/FacialAge/BNav_EC2/DepthDuration/v2_depth_duration_MTurk/v2_DepthDuration_HTML.html#401,401,1241,878,1280,1024,8-29-2022,14-28-23,86,depth_duration_stimuli/002444_2014-06-28_20-32-08_260595134347_rgbf000027-resize_0/002444_2014-06-28_20-32-08_260595134347_rgbf000027-resize_0-target.png,1000,4.388999999999999,10,2824,994,feet,jsons/v1_VE1000_randls_19.json,609375,803952,4,Woman
86,945021,DepthScenes,duration_manipulation_targetAtFixation,jsons/v1_VE1000_randls_19.json,http://54.235.29.9/FacialAge/BNav_EC2/DepthDuration/v2_depth_duration_MTurk/v2_DepthDuration_HTML.html#401,401,1241,878,1280,1024,8-29-2022,14-28-23,87,depth_duration_stimuli/000773_2014-06-08_22-24-54_260595134347_rgbf000093-resize_1/000773_2014-06-08_22-24-54_260595134347_rgbf000093-resize_1-target.png,1000,4.973,8,2729,1010,feet,jsons/v1_VE1000_randls_19.json,609375,803952,4,Woman
87,945021,DepthScenes,duration_manipulation_targetAtFixation,jsons/v1_VE1000_randls_19.json,http://54.235.29.9/FacialAge/BNav_EC2/DepthDuration/v2_depth_duration_MTurk/v2_DepthDuration_HTML.html#401,401,1241,878,1280,1024,8-29-2022,14-28-23,88,depth_duration_stimuli/002414_2014-06-28_20-24-58_260595134347_rgbf000067-resize_4/002414_2014-06-28_20-24-58_260595134347_rgbf000067-resize_4-target.png,1000,4.363,8,2601,1008,feet,jsons/v1_VE1000_randls_19.json,609375,803952,4,Woman
88,945021,DepthScenes,duration_manipulation_targetAtFixation,jsons/v1_VE1000_randls_19.json,http://54.235.29.9/FacialAge/BNav_EC2/DepthDuration/v2_depth_duration_MTurk/v2_DepthDuration_HTML.html#401,401,1241,878,1280,1024,8-29-2022,14-28-23,89,depth_duration_stimuli/001133_2014-06-17_14-49-16_260595134347_rgbf000100-resize_0/001133_2014-06-17_14-49-16_260595134347_rgbf000100-resize_0-target.png,1000,4.2115,6,4323,1010,feet,jsons/v1_VE1000_randls_19.json,609375,803952,4,Woman
89,945021,DepthScenes,duration_manipulation_targetAtFixation,jsons/v1_VE1000_randls_19.json,http://54.235.29.9/FacialAge/BNav_EC2/DepthDuration/v2_depth_duration_MTurk/v2_DepthDuration_HTML.html#401,401,1241,878,1280,1024,8-29-2022,14-28-23,90,depth_duration_stimuli/001132_2014-06-17_14-48-54_260595134347_rgbf000100-resize_2/001132_2014-06-17_14-48-54_260595134347_rgbf000100-resize_2-target.png,1000,3.753,6,3714,1001,feet,jsons/v1_VE1000_randls_19.json,609375,803952,4,Woman
90,945021,DepthScenes,duration_manipulation_targetAtFixation,jsons/v1_VE1000_randls_19.json,http://54.235.29.9/FacialAge/BNav_EC2/DepthDuration/v2_depth_duration_MTurk/v2_DepthDuration_HTML.html#401,401,1241,878,1280,1024,8-29-2022,14-28-23,91,depth_duration_stimuli/001011_2014-06-08_23-18-54_260595134347_rgbf000044-resize_4/001011_2014-06-08_23-18-54_260595134347_rgbf000044-resize_4-target.png,1000,2.4730000000000003,5,2695,995,feet,jsons/v1_VE1000_randls_19.json,609375,803952,4,Woman
91,945021,DepthScenes,duration_manipulation_targetAtFixation,jsons/v1_VE1000_randls_19.json,http://54.235.29.9/FacialAge/BNav_EC2/DepthDuration/v2_depth_duration_MTurk/v2_DepthDuration_HTML.html#401,401,1241,878,1280,1024,8-29-2022,14-28-23,92,depth_duration_stimuli/002875_2014-06-01_15-19-00_094959634447_rgbf000151-resize_1/002875_2014-06-01_15-19-00_094959634447_rgbf000151-resize_1-target.png,1000,1.9675,3,2737,1006,feet,jsons/v1_VE1000_randls_19.json,609375,803952,4,Woman
92,945021,DepthScenes,duration_manipulation_targetAtFixation,jsons/v1_VE1000_randls_19.json,http://54.235.29.9/FacialAge/BNav_EC2/DepthDuration/v2_depth_duration_MTurk/v2_DepthDuration_HTML.html#401,401,1241,878,1280,1024,8-29-2022,14-28-23,93,depth_duration_stimuli/002043_2014-06-24_20-29-38_260595134347_rgbf000039-resize_4/002043_2014-06-24_20-29-38_260595134347_rgbf000039-resize_4-target.png,1000,2.8435,5,2599,996,feet,jsons/v1_VE1000_randls_19.json,609375,803952,4,Woman
93,945021,DepthScenes,duration_manipulation_targetAtFixation,jsons/v1_VE1000_randls_19.json,http://54.235.29.9/FacialAge/BNav_EC2/DepthDuration/v2_depth_duration_MTurk/v2_DepthDuration_HTML.html#401,401,1241,878,1280,1024,8-29-2022,14-28-23,94,depth_duration_stimuli/003048_2014-06-15_13-49-43_094959634447_rgbf000150-resize_1/003048_2014-06-15_13-49-43_094959634447_rgbf000150-resize_1-target.png,1000,4.0035,8,2600,988,feet,jsons/v1_VE1000_randls_19.json,609375,803952,4,Woman
94,945021,DepthScenes,duration_manipulation_targetAtFixation,jsons/v1_VE1000_randls_19.json,http://54.235.29.9/FacialAge/BNav_EC2/DepthDuration/v2_depth_duration_MTurk/v2_DepthDuration_HTML.html#401,401,1241,878,1280,1024,8-29-2022,14-28-23,95,depth_duration_stimuli/001555_2014-06-20_17-12-10_260595134347_rgbf000065-resize_4/001555_2014-06-20_17-12-10_260595134347_rgbf000065-resize_4-target.png,1000,1.633,1,2690,999,feet,jsons/v1_VE1000_randls_19.json,609375,803952,4,Woman
95,945021,DepthScenes,duration_manipulation_targetAtFixation,jsons/v1_VE1000_randls_19.json,http://54.235.29.9/FacialAge/BNav_EC2/DepthDuration/v2_depth_duration_MTurk/v2_DepthDuration_HTML.html#401,401,1241,878,1280,1024,8-29-2022,14-28-23,96,depth_duration_stimuli/000103_2014-05-14_22-01-17_260595134347_rgbf000152-resize_5/000103_2014-05-14_22-01-17_260595134347_rgbf000152-resize_5-target.png,1000,1.993,2,2850,999,feet,jsons/v1_VE1000_randls_19.json,609375,803952,4,Woman
96,945021,DepthScenes,duration_manipulation_targetAtFixation,jsons/v1_VE1000_randls_19.json,http://54.235.29.9/FacialAge/BNav_EC2/DepthDuration/v2_depth_duration_MTurk/v2_DepthDuration_HTML.html#401,401,1241,878,1280,1024,8-29-2022,14-28-23,97,depth_duration_stimuli/003621_2014-05-23_18-06-08_094959634447_rgbf000101-resize_1/003621_2014-05-23_18-06-08_094959634447_rgbf000101-resize_1-target.png,1000,3.9835,8,2780,1015,feet,jsons/v1_VE1000_randls_19.json,609375,803952,4,Woman
97,945021,DepthScenes,duration_manipulation_targetAtFixation,jsons/v1_VE1000_randls_19.json,http://54.235.29.9/FacialAge/BNav_EC2/DepthDuration/v2_depth_duration_MTurk/v2_DepthDuration_HTML.html#401,401,1241,878,1280,1024,8-29-2022,14-28-23,98,depth_duration_stimuli/001584_2014-06-20_11-07-43_260595134347_rgbf000002-resize_1/001584_2014-06-20_11-07-43_260595134347_rgbf000002-resize_1-target.png,1000,3.53,6,2851,1003,feet,jsons/v1_VE1000_randls_19.json,609375,803952,4,Woman
98,945021,DepthScenes,duration_manipulation_targetAtFixation,jsons/v1_VE1000_randls_19.json,http://54.235.29.9/FacialAge/BNav_EC2/DepthDuration/v2_depth_duration_MTurk/v2_DepthDuration_HTML.html#401,401,1241,878,1280,1024,8-29-2022,14-28-23,99,depth_duration_stimuli/001540_2014-06-20_17-01-05_260595134347_rgbf000086-resize_2/001540_2014-06-20_17-01-05_260595134347_rgbf000086-resize-original.jpg,1000,1.459,0,2594,997,feet,jsons/v1_VE1000_randls_19.json,609375,803952,4,Woman
99,945021,DepthScenes,duration_manipulation_targetAtFixation,jsons/v1_VE1000_randls_19.json,http://54.235.29.9/FacialAge/BNav_EC2/DepthDuration/v2_depth_duration_MTurk/v2_DepthDuration_HTML.html#401,401,1241,878,1280,1024,8-29-2022,14-28-23,100,depth_duration_stimuli/001066_2014-06-08_22-03-20_260595134347_rgbf000066-resize_4/001066_2014-06-08_22-03-20_260595134347_rgbf000066-resize_4-target.png,1000,4.2330000000000005,12,5434,996,feet,jsons/v1_VE1000_randls_19.json,609375,803952,4,Woman
100,945021,DepthScenes,duration_manipulation_targetAtFixation,jsons/v1_VE1000_randls_19.json,http://54.235.29.9/FacialAge/BNav_EC2/DepthDuration/v2_depth_duration_MTurk/v2_DepthDuration_HTML.html#401,401,1241,878,1280,1024,8-29-2022,14-28-23,101,depth_duration_stimuli/000742_2014-06-08_18-48-09_260595134347_rgbf000164-resize_4/000742_2014-06-08_18-48-09_260595134347_rgbf000164-resize_4-target.png,1000,4.632,10,3051,992,feet,jsons/v1_VE1000_randls_19.json,609375,803952,4,Woman
101,945021,DepthScenes,duration_manipulation_targetAtFixation,jsons/v1_VE1000_randls_19.json,http://54.235.29.9/FacialAge/BNav_EC2/DepthDuration/v2_depth_duration_MTurk/v2_DepthDuration_HTML.html#401,401,1241,878,1280,1024,8-29-2022,14-28-23,102,depth_duration_stimuli/000414_2014-06-04_19-49-13_260595134347_rgbf000044-resize_0/000414_2014-06-04_19-49-13_260595134347_rgbf000044-resize_0-target.png,1000,4.329,12,5803,998,feet,jsons/v1_VE1000_randls_19.json,609375,803952,4,Woman
102,945021,DepthScenes,duration_manipulation_targetAtFixation,jsons/v1_VE1000_randls_19.json,http://54.235.29.9/FacialAge/BNav_EC2/DepthDuration/v2_depth_duration_MTurk/v2_DepthDuration_HTML.html#401,401,1241,878,1280,1024,8-29-2022,14-28-23,103,depth_duration_stimuli/003129_2014-05-12_10-48-10_094959634447_rgbf000100-resize_0/003129_2014-05-12_10-48-10_094959634447_rgbf000100-resize_0-target.png,1000,4.9305,10,3706,998,feet,jsons/v1_VE1000_randls_19.json,609375,803952,4,Woman
103,945021,DepthScenes,duration_manipulation_targetAtFixation,jsons/v1_VE1000_randls_19.json,http://54.235.29.9/FacialAge/BNav_EC2/DepthDuration/v2_depth_duration_MTurk/v2_DepthDuration_HTML.html#401,401,1241,878,1280,1024,8-29-2022,14-28-23,104,depth_duration_stimuli/001056_2014-06-08_18-46-44_260595134347_rgbf000068-resize_0/001056_2014-06-08_18-46-44_260595134347_rgbf000068-resize_0-target.png,1000,2.6625,5,2547,1000,feet,jsons/v1_VE1000_randls_19.json,609375,803952,4,Woman
104,945021,DepthScenes,duration_manipulation_targetAtFixation,jsons/v1_VE1000_randls_19.json,http://54.235.29.9/FacialAge/BNav_EC2/DepthDuration/v2_depth_duration_MTurk/v2_DepthDuration_HTML.html#401,401,1241,878,1280,1024,8-29-2022,14-28-23,105,depth_duration_stimuli/002199_2014-06-28_18-33-56_260595134347_rgbf000074-resize_0/002199_2014-06-28_18-33-56_260595134347_rgbf000074-resize_0-target.png,1000,1.996,1,2633,990,feet,jsons/v1_VE1000_randls_19.json,609375,803952,4,Woman
105,945021,DepthScenes,duration_manipulation_targetAtFixation,jsons/v1_VE1000_randls_19.json,http://54.235.29.9/FacialAge/BNav_EC2/DepthDuration/v2_depth_duration_MTurk/v2_DepthDuration_HTML.html#401,401,1241,878,1280,1024,8-29-2022,14-28-23,106,depth_duration_stimuli/000758_2014-06-08_22-05-08_260595134347_rgbf000085-resize_0/000758_2014-06-08_22-05-08_260595134347_rgbf000085-resize_0-target.png,1000,3.3810000000000002,8,2679,1005,feet,jsons/v1_VE1000_randls_19.json,609375,803952,4,Woman
106,945021,DepthScenes,duration_manipulation_targetAtFixation,jsons/v1_VE1000_randls_19.json,http://54.235.29.9/FacialAge/BNav_EC2/DepthDuration/v2_depth_duration_MTurk/v2_DepthDuration_HTML.html#401,401,1241,878,1280,1024,8-29-2022,14-28-23,107,depth_duration_stimuli/000854_2014-06-09_19-43-13_260595134347_rgbf000066-resize_0/000854_2014-06-09_19-43-13_260595134347_rgbf000066-resize_0-target.png,1000,3.068,3,3693,993,feet,jsons/v1_VE1000_randls_19.json,609375,803952,4,Woman
107,945021,DepthScenes,duration_manipulation_targetAtFixation,jsons/v1_VE1000_randls_19.json,http://54.235.29.9/FacialAge/BNav_EC2/DepthDuration/v2_depth_duration_MTurk/v2_DepthDuration_HTML.html#401,401,1241,878,1280,1024,8-29-2022,14-28-23,108,depth_duration_stimuli/000506_2014-06-08_23-21-00_260595134347_rgbf000070-resize_7/000506_2014-06-08_23-21-00_260595134347_rgbf000070-resize_7-target.png,1000,4.0585,7,2971,1007,feet,jsons/v1_VE1000_randls_19.json,609375,803952,4,Woman
108,945021,DepthScenes,duration_manipulation_targetAtFixation,jsons/v1_VE1000_randls_19.json,http://54.235.29.9/FacialAge/BNav_EC2/DepthDuration/v2_depth_duration_MTurk/v2_DepthDuration_HTML.html#401,401,1241,878,1280,1024,8-29-2022,14-28-23,109,depth_duration_stimuli/003079_2014-06-15_15-18-20_094959634447_rgbf000152-resize_8/003079_2014-06-15_15-18-20_094959634447_rgbf000152-resize_8-target.png,1000,2.8775,7,2977,1007,feet,jsons/v1_VE1000_randls_19.json,609375,803952,4,Woman
109,945021,DepthScenes,duration_manipulation_targetAtFixation,jsons/v1_VE1000_randls_19.json,http://54.235.29.9/FacialAge/BNav_EC2/DepthDuration/v2_depth_duration_MTurk/v2_DepthDuration_HTML.html#401,401,1241,878,1280,1024,8-29-2022,14-28-23,110,depth_duration_stimuli/000810_2014-06-08_17-20-01_260595134347_rgbf000105-resize_0/000810_2014-06-08_17-20-01_260595134347_rgbf000105-resize_0-target.png,1000,1.4865,3,2401,1010,feet,jsons/v1_VE1000_randls_19.json,609375,803952,4,Woman
110,945021,DepthScenes,duration_manipulation_targetAtFixation,jsons/v1_VE1000_randls_19.json,http://54.235.29.9/FacialAge/BNav_EC2/DepthDuration/v2_depth_duration_MTurk/v2_DepthDuration_HTML.html#401,401,1241,878,1280,1024,8-29-2022,14-28-23,111,depth_duration_stimuli/001214_2014-06-17_16-13-55_260595134347_rgbf000111-resize_0/001214_2014-06-17_16-13-55_260595134347_rgbf000111-resize_0-target.png,1000,2.6505,4,2373,987,feet,jsons/v1_VE1000_randls_19.json,609375,803952,4,Woman
111,945021,DepthScenes,duration_manipulation_targetAtFixation,jsons/v1_VE1000_randls_19.json,http://54.235.29.9/FacialAge/BNav_EC2/DepthDuration/v2_depth_duration_MTurk/v2_DepthDuration_HTML.html#401,401,1241,878,1280,1024,8-29-2022,14-28-23,112,depth_duration_stimuli/002549_2014-06-24_13-41-39_094959634447_rgbf000022-resize_3/002549_2014-06-24_13-41-39_094959634447_rgbf000022-resize_3-target.png,1000,1.476,2,5151,988,feet,jsons/v1_VE1000_randls_19.json,609375,803952,4,Woman
112,945021,DepthScenes,duration_manipulation_targetAtFixation,jsons/v1_VE1000_randls_19.json,http://54.235.29.9/FacialAge/BNav_EC2/DepthDuration/v2_depth_duration_MTurk/v2_DepthDuration_HTML.html#401,401,1241,878,1280,1024,8-29-2022,14-28-23,113,depth_duration_stimuli/002750_2014-06-22_19-08-03_094959634447_rgbf000094-resize_4/002750_2014-06-22_19-08-03_094959634447_rgbf000094-resize_4-target.png,1000,2.354,4,3001,991,feet,jsons/v1_VE1000_randls_19.json,609375,803952,4,Woman
113,945021,DepthScenes,duration_manipulation_targetAtFixation,jsons/v1_VE1000_randls_19.json,http://54.235.29.9/FacialAge/BNav_EC2/DepthDuration/v2_depth_duration_MTurk/v2_DepthDuration_HTML.html#401,401,1241,878,1280,1024,8-29-2022,14-28-23,114,depth_duration_stimuli/002784_2014-06-22_19-26-30_094959634447_rgbf000083-resize_3/002784_2014-06-22_19-26-30_094959634447_rgbf000083-resize_3-target.png,1000,1.8046666666667,2,3039,997,feet,jsons/v1_VE1000_randls_19.json,609375,803952,4,Woman
114,945021,DepthScenes,duration_manipulation_targetAtFixation,jsons/v1_VE1000_randls_19.json,http://54.235.29.9/FacialAge/BNav_EC2/DepthDuration/v2_depth_duration_MTurk/v2_DepthDuration_HTML.html#401,401,1241,878,1280,1024,8-29-2022,14-28-23,115,depth_duration_stimuli/001100_2014-06-15_17-46-26_260595134347_rgbf000225-resize_2/001100_2014-06-15_17-46-26_260595134347_rgbf000225-resize_2-target.png,1000,2.24,2,2495,989,feet,jsons/v1_VE1000_randls_19.json,609375,803952,4,Woman
115,945021,DepthScenes,duration_manipulation_targetAtFixation,jsons/v1_VE1000_randls_19.json,http://54.235.29.9/FacialAge/BNav_EC2/DepthDuration/v2_depth_duration_MTurk/v2_DepthDuration_HTML.html#401,401,1241,878,1280,1024,8-29-2022,14-28-23,116,depth_duration_stimuli/001170_2014-06-17_15-43-44_260595134347_rgbf000096-resize_6/001170_2014-06-17_15-43-44_260595134347_rgbf000096-resize-original.jpg,1000,1.1909999999999998,0,2474,1008,feet,jsons/v1_VE1000_randls_19.json,609375,803952,4,Woman
116,945021,DepthScenes,duration_manipulation_targetAtFixation,jsons/v1_VE1000_randls_19.json,http://54.235.29.9/FacialAge/BNav_EC2/DepthDuration/v2_depth_duration_MTurk/v2_DepthDuration_HTML.html#401,401,1241,878,1280,1024,8-29-2022,14-28-23,117,depth_duration_stimuli/000368_2014-06-09_15-53-01_260595134347_rgbf000155-resize_2/000368_2014-06-09_15-53-01_260595134347_rgbf000155-resize_2-target.png,1000,2.4859999999999998,3,2903,1009,feet,jsons/v1_VE1000_randls_19.json,609375,803952,4,Woman
117,945021,DepthScenes,duration_manipulation_targetAtFixation,jsons/v1_VE1000_randls_19.json,http://54.235.29.9/FacialAge/BNav_EC2/DepthDuration/v2_depth_duration_MTurk/v2_DepthDuration_HTML.html#401,401,1241,878,1280,1024,8-29-2022,14-28-23,118,depth_duration_stimuli/002678_2014-06-13_16-15-32_094959634447_rgbf000151-resize_6/002678_2014-06-13_16-15-32_094959634447_rgbf000151-resize_6-target.png,1000,2.1830000000000003,4,2613,994,feet,jsons/v1_VE1000_randls_19.json,609375,803952,4,Woman
118,945021,DepthScenes,duration_manipulation_targetAtFixation,jsons/v1_VE1000_randls_19.json,http://54.235.29.9/FacialAge/BNav_EC2/DepthDuration/v2_depth_duration_MTurk/v2_DepthDuration_HTML.html#401,401,1241,878,1280,1024,8-29-2022,14-28-23,119,depth_duration_stimuli/002989_2014-06-15_12-25-03_094959634447_rgbf000150-resize_3/002989_2014-06-15_12-25-03_094959634447_rgbf000150-resize_3-target.png,1000,4.1975,10,2813,991,feet,jsons/v1_VE1000_randls_19.json,609375,803952,4,Woman
119,945021,DepthScenes,duration_manipulation_targetAtFixation,jsons/v1_VE1000_randls_19.json,http://54.235.29.9/FacialAge/BNav_EC2/DepthDuration/v2_depth_duration_MTurk/v2_DepthDuration_HTML.html#401,401,1241,878,1280,1024,8-29-2022,14-28-23,120,depth_duration_stimuli/000866_2014-06-09_20-45-42_260595134347_rgbf000139-resize_1/000866_2014-06-09_20-45-42_260595134347_rgbf000139-resize_1-target.png,1000,3.2155,6,5872,994,feet,jsons/v1_VE1000_randls_19.json,609375,803952,4,Woman
120,945021,DepthScenes,duration_manipulation_targetAtFixation,jsons/v1_VE1000_randls_19.json,http://54.235.29.9/FacialAge/BNav_EC2/DepthDuration/v2_depth_duration_MTurk/v2_DepthDuration_HTML.html#401,401,1241,878,1280,1024,8-29-2022,14-28-23,121,depth_duration_stimuli/001055_2014-06-08_18-45-35_260595134347_rgbf000111-resize_4/001055_2014-06-08_18-45-35_260595134347_rgbf000111-resize_4-target.png,1000,2.4290000000000003,5,3834,990,feet,jsons/v1_VE1000_randls_19.json,609375,803952,4,Woman
121,945021,DepthScenes,duration_manipulation_targetAtFixation,jsons/v1_VE1000_randls_19.json,http://54.235.29.9/FacialAge/BNav_EC2/DepthDuration/v2_depth_duration_MTurk/v2_DepthDuration_HTML.html#401,401,1241,878,1280,1024,8-29-2022,14-28-23,122,depth_duration_stimuli/000549_2014-06-08_22-10-24_260595134347_rgbf000247-resize_3/000549_2014-06-08_22-10-24_260595134347_rgbf000247-resize_3-target.png,1000,1.841,2,3313,998,feet,jsons/v1_VE1000_randls_19.json,609375,803952,4,Woman
122,945021,DepthScenes,duration_manipulation_targetAtFixation,jsons/v1_VE1000_randls_19.json,http://54.235.29.9/FacialAge/BNav_EC2/DepthDuration/v2_depth_duration_MTurk/v2_DepthDuration_HTML.html#401,401,1241,878,1280,1024,8-29-2022,14-28-23,123,depth_duration_stimuli/001016_2014-06-09_16-16-10_260595134347_rgbf000112-resize_5/001016_2014-06-09_16-16-10_260595134347_rgbf000112-resize_5-target.png,1000,1.6565,4,3410,1004,feet,jsons/v1_VE1000_randls_19.json,609375,803952,4,Woman
123,945021,DepthScenes,duration_manipulation_targetAtFixation,jsons/v1_VE1000_randls_19.json,http://54.235.29.9/FacialAge/BNav_EC2/DepthDuration/v2_depth_duration_MTurk/v2_DepthDuration_HTML.html#401,401,1241,878,1280,1024,8-29-2022,14-28-23,124,depth_duration_stimuli/002340_2014-06-28_20-05-46_260595134347_rgbf000113-resize_0/002340_2014-06-28_20-05-46_260595134347_rgbf000113-resize_0-target.png,1000,2.4735,6,6626,1008,feet,jsons/v1_VE1000_randls_19.json,609375,803952,4,Woman
124,945021,DepthScenes,duration_manipulation_targetAtFixation,jsons/v1_VE1000_randls_19.json,http://54.235.29.9/FacialAge/BNav_EC2/DepthDuration/v2_depth_duration_MTurk/v2_DepthDuration_HTML.html#401,401,1241,878,1280,1024,8-29-2022,14-28-23,125,depth_duration_stimuli/000009_2014-05-26_14-32-05_260595134347_rgbf000034-resize_3/000009_2014-05-26_14-32-05_260595134347_rgbf000034-resize_3-target.png,1000,3.8715,10,3050,1008,feet,jsons/v1_VE1000_randls_19.json,609375,803952,4,Woman
125,945021,DepthScenes,duration_manipulation_targetAtFixation,jsons/v1_VE1000_randls_19.json,http://54.235.29.9/FacialAge/BNav_EC2/DepthDuration/v2_depth_duration_MTurk/v2_DepthDuration_HTML.html#401,401,1241,878,1280,1024,8-29-2022,14-28-23,126,depth_duration_stimuli/001828_2014-06-26_21-40-03_260595134347_rgbf000024-resize_0/001828_2014-06-26_21-40-03_260595134347_rgbf000024-resize_0-target.png,1000,4.8260000000000005,10,3104,990,feet,jsons/v1_VE1000_randls_19.json,609375,803952,4,Woman
126,945021,DepthScenes,duration_manipulation_targetAtFixation,jsons/v1_VE1000_randls_19.json,http://54.235.29.9/FacialAge/BNav_EC2/DepthDuration/v2_depth_duration_MTurk/v2_DepthDuration_HTML.html#401,401,1241,878,1280,1024,8-29-2022,14-28-23,127,depth_duration_stimuli/002279_2014-06-28_18-55-32_260595134347_rgbf000040-resize_5/002279_2014-06-28_18-55-32_260595134347_rgbf000040-resize_5-target.png,1000,1.5043333333333,2,2650,1000,feet,jsons/v1_VE1000_randls_19.json,609375,803952,4,Woman
127,945021,DepthScenes,duration_manipulation_targetAtFixation,jsons/v1_VE1000_randls_19.json,http://54.235.29.9/FacialAge/BNav_EC2/DepthDuration/v2_depth_duration_MTurk/v2_DepthDuration_HTML.html#401,401,1241,878,1280,1024,8-29-2022,14-28-23,128,depth_duration_stimuli/000635_2014-06-08_16-38-42_260595134347_rgbf000106-resize_1/000635_2014-06-08_16-38-42_260595134347_rgbf000106-resize_1-target.png,1000,2.074,5,2497,1010,feet,jsons/v1_VE1000_randls_19.json,609375,803952,4,Woman
128,945021,DepthScenes,duration_manipulation_targetAtFixation,jsons/v1_VE1000_randls_19.json,http://54.235.29.9/FacialAge/BNav_EC2/DepthDuration/v2_depth_duration_MTurk/v2_DepthDuration_HTML.html#401,401,1241,878,1280,1024,8-29-2022,14-28-23,129,depth_duration_stimuli/001164_2014-06-17_15-35-46_260595134347_rgbf000085-resize_3/001164_2014-06-17_15-35-46_260595134347_rgbf000085-resize_3-target.png,1000,2.354,5,2480,994,feet,jsons/v1_VE1000_randls_19.json,609375,803952,4,Woman
129,945021,DepthScenes,duration_manipulation_targetAtFixation,jsons/v1_VE1000_randls_19.json,http://54.235.29.9/FacialAge/BNav_EC2/DepthDuration/v2_depth_duration_MTurk/v2_DepthDuration_HTML.html#401,401,1241,878,1280,1024,8-29-2022,14-28-23,130,depth_duration_stimuli/001136_2014-06-17_15-19-41_260595134347_rgbf000076-resize_3/001136_2014-06-17_15-19-41_260595134347_rgbf000076-resize_3-target.png,1000,1.8655,4,3038,993,feet,jsons/v1_VE1000_randls_19.json,609375,803952,4,Woman
130,945021,DepthScenes,duration_manipulation_targetAtFixation,jsons/v1_VE1000_randls_19.json,http://54.235.29.9/FacialAge/BNav_EC2/DepthDuration/v2_depth_duration_MTurk/v2_DepthDuration_HTML.html#401,401,1241,878,1280,1024,8-29-2022,14-28-23,131,depth_duration_stimuli/000739_2014-06-08_18-45-58_260595134347_rgbf000068-resize_1/000739_2014-06-08_18-45-58_260595134347_rgbf000068-resize_1-target.png,1000,3.534,7,3140,1003,feet,jsons/v1_VE1000_randls_19.json,609375,803952,4,Woman
131,945021,DepthScenes,duration_manipulation_targetAtFixation,jsons/v1_VE1000_randls_19.json,http://54.235.29.9/FacialAge/BNav_EC2/DepthDuration/v2_depth_duration_MTurk/v2_DepthDuration_HTML.html#401,401,1241,878,1280,1024,8-29-2022,14-28-23,132,depth_duration_stimuli/000734_2014-06-08_17-39-11_260595134347_rgbf000128-resize_2/000734_2014-06-08_17-39-11_260595134347_rgbf000128-resize_2-target.png,1000,4.098,4,2495,991,feet,jsons/v1_VE1000_randls_19.json,609375,803952,4,Woman
132,945021,DepthScenes,duration_manipulation_targetAtFixation,jsons/v1_VE1000_randls_19.json,http://54.235.29.9/FacialAge/BNav_EC2/DepthDuration/v2_depth_duration_MTurk/v2_DepthDuration_HTML.html#401,401,1241,878,1280,1024,8-29-2022,14-28-23,133,depth_duration_stimuli/001158_2014-06-17_15-32-16_260595134347_rgbf000138-resize_2/001158_2014-06-17_15-32-16_260595134347_rgbf000138-resize_2-target.png,1000,4.5315,10,3050,1001,feet,jsons/v1_VE1000_randls_19.json,609375,803952,4,Woman
133,945021,DepthScenes,duration_manipulation_targetAtFixation,jsons/v1_VE1000_randls_19.json,http://54.235.29.9/FacialAge/BNav_EC2/DepthDuration/v2_depth_duration_MTurk/v2_DepthDuration_HTML.html#401,401,1241,878,1280,1024,8-29-2022,14-28-23,134,depth_duration_stimuli/000556_2014-06-09_22-42-56_260595134347_rgbf000214-resize_1/000556_2014-06-09_22-42-56_260595134347_rgbf000214-resize_1-target.png,1000,4.8415,8,3424,990,feet,jsons/v1_VE1000_randls_19.json,609375,803952,4,Woman
134,945021,DepthScenes,duration_manipulation_targetAtFixation,jsons/v1_VE1000_randls_19.json,http://54.235.29.9/FacialAge/BNav_EC2/DepthDuration/v2_depth_duration_MTurk/v2_DepthDuration_HTML.html#401,401,1241,878,1280,1024,8-29-2022,14-28-23,135,depth_duration_stimuli/002072_2014-06-24_21-48-06_260595134347_rgbf000115-resize_0/002072_2014-06-24_21-48-06_260595134347_rgbf000115-resize-original.jpg,1000,4.702,0,4549,995,feet,jsons/v1_VE1000_randls_19.json,609375,803952,4,Woman
135,945021,DepthScenes,duration_manipulation_targetAtFixation,jsons/v1_VE1000_randls_19.json,http://54.235.29.9/FacialAge/BNav_EC2/DepthDuration/v2_depth_duration_MTurk/v2_DepthDuration_HTML.html#401,401,1241,878,1280,1024,8-29-2022,14-28-23,136,depth_duration_stimuli/001059_2014-06-08_21-53-27_260595134347_rgbf000061-resize_4/001059_2014-06-08_21-53-27_260595134347_rgbf000061-resize_4-target.png,1000,2.4185,4,3066,1006,feet,jsons/v1_VE1000_randls_19.json,609375,803952,4,Woman
136,945021,DepthScenes,duration_manipulation_targetAtFixation,jsons/v1_VE1000_randls_19.json,http://54.235.29.9/FacialAge/BNav_EC2/DepthDuration/v2_depth_duration_MTurk/v2_DepthDuration_HTML.html#401,401,1241,878,1280,1024,8-29-2022,14-28-23,137,depth_duration_stimuli/001032_2014-06-08_13-23-17_260595134347_rgbf000021-resize_3/001032_2014-06-08_13-23-17_260595134347_rgbf000021-resize_3-target.png,1000,3.2725,5,2718,992,feet,jsons/v1_VE1000_randls_19.json,609375,803952,4,Woman
137,945021,DepthScenes,duration_manipulation_targetAtFixation,jsons/v1_VE1000_randls_19.json,http://54.235.29.9/FacialAge/BNav_EC2/DepthDuration/v2_depth_duration_MTurk/v2_DepthDuration_HTML.html#401,401,1241,878,1280,1024,8-29-2022,14-28-23,138,depth_duration_stimuli/001417_2014-06-19_16-25-36_260595134347_rgbf000115-resize_5/001417_2014-06-19_16-25-36_260595134347_rgbf000115-resize_5-target.png,1000,4.6255,6,3552,1010,feet,jsons/v1_VE1000_randls_19.json,609375,803952,4,Woman
138,945021,DepthScenes,duration_manipulation_targetAtFixation,jsons/v1_VE1000_randls_19.json,http://54.235.29.9/FacialAge/BNav_EC2/DepthDuration/v2_depth_duration_MTurk/v2_DepthDuration_HTML.html#401,401,1241,878,1280,1024,8-29-2022,14-28-23,139,depth_duration_stimuli/003081_2014-06-15_15-19-16_094959634447_rgbf000150-resize_1/003081_2014-06-15_15-19-16_094959634447_rgbf000150-resize_1-target.png,1000,3.9125,8,2696,998,feet,jsons/v1_VE1000_randls_19.json,609375,803952,4,Woman
139,945021,DepthScenes,duration_manipulation_targetAtFixation,jsons/v1_VE1000_randls_19.json,http://54.235.29.9/FacialAge/BNav_EC2/DepthDuration/v2_depth_duration_MTurk/v2_DepthDuration_HTML.html#401,401,1241,878,1280,1024,8-29-2022,14-28-23,140,depth_duration_stimuli/001199_2014-06-17_16-03-48_260595134347_rgbf000077-resize_0/001199_2014-06-17_16-03-48_260595134347_rgbf000077-resize_0-target.png,1000,3.4375,10,2922,1007,feet,jsons/v1_VE1000_randls_19.json,609375,803952,4,Woman
140,945021,DepthScenes,duration_manipulation_targetAtFixation,jsons/v1_VE1000_randls_19.json,http://54.235.29.9/FacialAge/BNav_EC2/DepthDuration/v2_depth_duration_MTurk/v2_DepthDuration_HTML.html#401,401,1241,878,1280,1024,8-29-2022,14-28-23,141,depth_duration_stimuli/000502_2014-06-08_23-02-32_260595134347_rgbf000063-resize_4/000502_2014-06-08_23-02-32_260595134347_rgbf000063-resize_4-target.png,1000,2.431,4,5431,1008,feet,jsons/v1_VE1000_randls_19.json,609375,803952,4,Woman
141,945021,DepthScenes,duration_manipulation_targetAtFixation,jsons/v1_VE1000_randls_19.json,http://54.235.29.9/FacialAge/BNav_EC2/DepthDuration/v2_depth_duration_MTurk/v2_DepthDuration_HTML.html#401,401,1241,878,1280,1024,8-29-2022,14-28-23,142,depth_duration_stimuli/000447_2014-06-08_16-15-46_260595134347_rgbf000130-resize_1/000447_2014-06-08_16-15-46_260595134347_rgbf000130-resize_1-target.png,1000,4.479,8,2877,995,feet,jsons/v1_VE1000_randls_19.json,609375,803952,4,Woman
142,945021,DepthScenes,duration_manipulation_targetAtFixation,jsons/v1_VE1000_randls_19.json,http://54.235.29.9/FacialAge/BNav_EC2/DepthDuration/v2_depth_duration_MTurk/v2_DepthDuration_HTML.html#401,401,1241,878,1280,1024,8-29-2022,14-28-23,143,depth_duration_stimuli/001447_2014-06-19_17-00-32_260595134347_rgbf000082-resize_5/001447_2014-06-19_17-00-32_260595134347_rgbf000082-resize_5-target.png,1000,4.13775,4,2556,985,feet,jsons/v1_VE1000_randls_19.json,609375,803952,4,Woman
143,945021,DepthScenes,duration_manipulation_targetAtFixation,jsons/v1_VE1000_randls_19.json,http://54.235.29.9/FacialAge/BNav_EC2/DepthDuration/v2_depth_duration_MTurk/v2_DepthDuration_HTML.html#401,401,1241,878,1280,1024,8-29-2022,14-28-23,144,depth_duration_stimuli/001449_2014-06-19_17-01-27_260595134347_rgbf000116-resize_2/001449_2014-06-19_17-01-27_260595134347_rgbf000116-resize_2-target.png,1000,3.452,4,2995,1000,feet,jsons/v1_VE1000_randls_19.json,609375,803952,4,Woman
144,945021,DepthScenes,duration_manipulation_targetAtFixation,jsons/v1_VE1000_randls_19.json,http://54.235.29.9/FacialAge/BNav_EC2/DepthDuration/v2_depth_duration_MTurk/v2_DepthDuration_HTML.html#401,401,1241,878,1280,1024,8-29-2022,14-28-23,145,depth_duration_stimuli/001450_2014-06-19_17-02-03_260595134347_rgbf000203-resize_4/001450_2014-06-19_17-02-03_260595134347_rgbf000203-resize_4-target.png,1000,4.0106666666667,8,4195,1012,feet,jsons/v1_VE1000_randls_19.json,609375,803952,4,Woman
145,945021,DepthScenes,duration_manipulation_targetAtFixation,jsons/v1_VE1000_randls_19.json,http://54.235.29.9/FacialAge/BNav_EC2/DepthDuration/v2_depth_duration_MTurk/v2_DepthDuration_HTML.html#401,401,1241,878,1280,1024,8-29-2022,14-28-23,146,depth_duration_stimuli/001498_2014-06-19_17-45-14_260595134347_rgbf000129-resize_4/001498_2014-06-19_17-45-14_260595134347_rgbf000129-resize-original.jpg,1000,1.4075,0,2619,992,feet,jsons/v1_VE1000_randls_19.json,609375,803952,4,Woman
146,945021,DepthScenes,duration_manipulation_targetAtFixation,jsons/v1_VE1000_randls_19.json,http://54.235.29.9/FacialAge/BNav_EC2/DepthDuration/v2_depth_duration_MTurk/v2_DepthDuration_HTML.html#401,401,1241,878,1280,1024,8-29-2022,14-28-23,147,depth_duration_stimuli/000522_2014-06-08_13-35-06_260595134347_rgbf000244-resize_1/000522_2014-06-08_13-35-06_260595134347_rgbf000244-resize_1-target.png,1000,2.3715,1,2983,996,feet,jsons/v1_VE1000_randls_19.json,609375,803952,4,Woman
147,945021,DepthScenes,duration_manipulation_targetAtFixation,jsons/v1_VE1000_randls_19.json,http://54.235.29.9/FacialAge/BNav_EC2/DepthDuration/v2_depth_duration_MTurk/v2_DepthDuration_HTML.html#401,401,1241,878,1280,1024,8-29-2022,14-28-23,148,depth_duration_stimuli/002949_2014-06-26_15-57-42_094959634447_rgbf000079-resize_1/002949_2014-06-26_15-57-42_094959634447_rgbf000079-resize_1-target.png,1000,1.8915,2,2862,987,feet,jsons/v1_VE1000_randls_19.json,609375,803952,4,Woman
148,945021,DepthScenes,duration_manipulation_targetAtFixation,jsons/v1_VE1000_randls_19.json,http://54.235.29.9/FacialAge/BNav_EC2/DepthDuration/v2_depth_duration_MTurk/v2_DepthDuration_HTML.html#401,401,1241,878,1280,1024,8-29-2022,14-28-23,149,depth_duration_stimuli/000682_2014-06-08_23-14-58_260595134347_rgbf000041-resize_5/000682_2014-06-08_23-14-58_260595134347_rgbf000041-resize_5-target.png,1000,2.7239999999999998,3,3058,1010,feet,jsons/v1_VE1000_randls_19.json,609375,803952,4,Woman
149,945021,DepthScenes,duration_manipulation_targetAtFixation,jsons/v1_VE1000_randls_19.json,http://54.235.29.9/FacialAge/BNav_EC2/DepthDuration/v2_depth_duration_MTurk/v2_DepthDuration_HTML.html#401,401,1241,878,1280,1024,8-29-2022,14-28-23,150,depth_duration_stimuli/001650_2014-06-20_12-09-00_260595134347_rgbf000087-resize_3/001650_2014-06-20_12-09-00_260595134347_rgbf000087-resize_3-target.png,1000,1.9505,1,2671,989,feet,jsons/v1_VE1000_randls_19.json,609375,803952,4,Woman
150,945021,DepthScenes,duration_manipulation_targetAtFixation,jsons/v1_VE1000_randls_19.json,http://54.235.29.9/FacialAge/BNav_EC2/DepthDuration/v2_depth_duration_MTurk/v2_DepthDuration_HTML.html#401,401,1241,878,1280,1024,8-29-2022,14-28-23,151,depth_duration_stimuli/002788_2014-06-22_19-36-03_094959634447_rgbf000088-resize_2/002788_2014-06-22_19-36-03_094959634447_rgbf000088-resize_2-target.png,1000,1.6465,4,3016,1004,feet,jsons/v1_VE1000_randls_19.json,609375,803952,4,Woman
151,945021,DepthScenes,duration_manipulation_targetAtFixation,jsons/v1_VE1000_randls_19.json,http://54.235.29.9/FacialAge/BNav_EC2/DepthDuration/v2_depth_duration_MTurk/v2_DepthDuration_HTML.html#401,401,1241,878,1280,1024,8-29-2022,14-28-23,152,depth_duration_stimuli/000749_2014-06-08_21-55-06_260595134347_rgbf000070-resize_2/000749_2014-06-08_21-55-06_260595134347_rgbf000070-resize_2-target.png,1000,2.331,4,2474,1008,feet,jsons/v1_VE1000_randls_19.json,609375,803952,4,Woman
152,945021,DepthScenes,duration_manipulation_targetAtFixation,jsons/v1_VE1000_randls_19.json,http://54.235.29.9/FacialAge/BNav_EC2/DepthDuration/v2_depth_duration_MTurk/v2_DepthDuration_HTML.html#401,401,1241,878,1280,1024,8-29-2022,14-28-23,153,depth_duration_stimuli/002964_2014-06-08_17-46-11_094959634447_rgbf000091-resize_4/002964_2014-06-08_17-46-11_094959634447_rgbf000091-resize_4-target.png,1000,1.6909999999999998,2,2864,996,feet,jsons/v1_VE1000_randls_19.json,609375,803952,4,Woman
153,945021,DepthScenes,duration_manipulation_targetAtFixation,jsons/v1_VE1000_randls_19.json,http://54.235.29.9/FacialAge/BNav_EC2/DepthDuration/v2_depth_duration_MTurk/v2_DepthDuration_HTML.html#401,401,1241,878,1280,1024,8-29-2022,14-28-23,154,depth_duration_stimuli/002136_2014-06-25_21-18-03_260595134347_rgbf000109-resize_3/002136_2014-06-25_21-18-03_260595134347_rgbf000109-resize_3-target.png,1000,1.9569999999999999,3,2387,1005,feet,jsons/v1_VE1000_randls_19.json,609375,803952,4,Woman
154,945021,DepthScenes,duration_manipulation_targetAtFixation,jsons/v1_VE1000_randls_19.json,http://54.235.29.9/FacialAge/BNav_EC2/DepthDuration/v2_depth_duration_MTurk/v2_DepthDuration_HTML.html#401,401,1241,878,1280,1024,8-29-2022,14-28-23,155,depth_duration_stimuli/002509_2014-06-24_13-19-22_094959634447_rgbf000077-resize_0/002509_2014-06-24_13-19-22_094959634447_rgbf000077-resize_0-target.png,1000,1.3065,2,2544,989,feet,jsons/v1_VE1000_randls_19.json,609375,803952,4,Woman
155,945021,DepthScenes,duration_manipulation_targetAtFixation,jsons/v1_VE1000_randls_19.json,http://54.235.29.9/FacialAge/BNav_EC2/DepthDuration/v2_depth_duration_MTurk/v2_DepthDuration_HTML.html#401,401,1241,878,1280,1024,8-29-2022,14-28-23,156,depth_duration_stimuli/003338_2014-05-20_11-01-23_094959634447_rgbf000051-resize_6/003338_2014-05-20_11-01-23_094959634447_rgbf000051-resize_6-target.png,1000,1.693,2,2421,1014,feet,jsons/v1_VE1000_randls_19.json,609375,803952,4,Woman
156,945021,DepthScenes,duration_manipulation_targetAtFixation,jsons/v1_VE1000_randls_19.json,http://54.235.29.9/FacialAge/BNav_EC2/DepthDuration/v2_depth_duration_MTurk/v2_DepthDuration_HTML.html#401,401,1241,878,1280,1024,8-29-2022,14-28-23,157,depth_duration_stimuli/000736_2014-06-08_18-24-15_260595134347_rgbf000206-resize_3/000736_2014-06-08_18-24-15_260595134347_rgbf000206-resize_3-target.png,1000,3.515,4,3594,999,feet,jsons/v1_VE1000_randls_19.json,609375,803952,4,Woman
157,945021,DepthScenes,duration_manipulation_targetAtFixation,jsons/v1_VE1000_randls_19.json,http://54.235.29.9/FacialAge/BNav_EC2/DepthDuration/v2_depth_duration_MTurk/v2_DepthDuration_HTML.html#401,401,1241,878,1280,1024,8-29-2022,14-28-23,158,depth_duration_stimuli/000137_2014-05-20_17-04-49_260595134347_rgbf000120-resize_1/000137_2014-05-20_17-04-49_260595134347_rgbf000120-resize_1-target.png,1000,3.786,6,3803,1009,feet,jsons/v1_VE1000_randls_19.json,609375,803952,4,Woman
158,945021,DepthScenes,duration_manipulation_targetAtFixation,jsons/v1_VE1000_randls_19.json,http://54.235.29.9/FacialAge/BNav_EC2/DepthDuration/v2_depth_duration_MTurk/v2_DepthDuration_HTML.html#401,401,1241,878,1280,1024,8-29-2022,14-28-23,159,depth_duration_stimuli/001167_2014-06-17_15-38-07_260595134347_rgbf000108-resize_0/001167_2014-06-17_15-38-07_260595134347_rgbf000108-resize_0-target.png,1000,1.8505,2,2744,1012,feet,jsons/v1_VE1000_randls_19.json,609375,803952,4,Woman
159,945021,DepthScenes,duration_manipulation_targetAtFixation,jsons/v1_VE1000_randls_19.json,http://54.235.29.9/FacialAge/BNav_EC2/DepthDuration/v2_depth_duration_MTurk/v2_DepthDuration_HTML.html#401,401,1241,878,1280,1024,8-29-2022,14-28-23,160,depth_duration_stimuli/003587_2014-05-23_16-48-02_094959634447_rgbf002384-resize_2/003587_2014-05-23_16-48-02_094959634447_rgbf002384-resize_2-target.png,1000,1.357,4,3184,993,feet,jsons/v1_VE1000_randls_19.json,609375,803952,4,Woman
160,945021,DepthScenes,duration_manipulation_targetAtFixation,jsons/v1_VE1000_randls_19.json,http://54.235.29.9/FacialAge/BNav_EC2/DepthDuration/v2_depth_duration_MTurk/v2_DepthDuration_HTML.html#401,401,1241,878,1280,1024,8-29-2022,14-28-23,161,depth_duration_stimuli/002763_2014-06-22_19-13-10_094959634447_rgbf000075-resize_4/002763_2014-06-22_19-13-10_094959634447_rgbf000075-resize_4-target.png,1000,1.68375,5,3170,1000,feet,jsons/v1_VE1000_randls_19.json,609375,803952,4,Woman
161,945021,DepthScenes,duration_manipulation_targetAtFixation,jsons/v1_VE1000_randls_19.json,http://54.235.29.9/FacialAge/BNav_EC2/DepthDuration/v2_depth_duration_MTurk/v2_DepthDuration_HTML.html#401,401,1241,878,1280,1024,8-29-2022,14-28-23,162,depth_duration_stimuli/002209_2014-06-28_18-36-10_260595134347_rgbf000051-resize_1/002209_2014-06-28_18-36-10_260595134347_rgbf000051-resize_1-target.png,1000,2.057,3,2725,985,feet,jsons/v1_VE1000_randls_19.json,609375,803952,4,Woman
162,945021,DepthScenes,duration_manipulation_targetAtFixation,jsons/v1_VE1000_randls_19.json,http://54.235.29.9/FacialAge/BNav_EC2/DepthDuration/v2_depth_duration_MTurk/v2_DepthDuration_HTML.html#401,401,1241,878,1280,1024,8-29-2022,14-28-23,163,depth_duration_stimuli/002748_2014-06-22_19-07-22_094959634447_rgbf000078-resize_1/002748_2014-06-22_19-07-22_094959634447_rgbf000078-resize_1-target.png,1000,4.6705,12,2939,991,feet,jsons/v1_VE1000_randls_19.json,609375,803952,4,Woman
163,945021,DepthScenes,duration_manipulation_targetAtFixation,jsons/v1_VE1000_randls_19.json,http://54.235.29.9/FacialAge/BNav_EC2/DepthDuration/v2_depth_duration_MTurk/v2_DepthDuration_HTML.html#401,401,1241,878,1280,1024,8-29-2022,14-28-23,164,depth_duration_stimuli/002995_2014-06-15_12-31-26_094959634447_rgbf000150-resize_1/002995_2014-06-15_12-31-26_094959634447_rgbf000150-resize_1-target.png,1000,3.8360000000000003,10,2513,990,feet,jsons/v1_VE1000_randls_19.json,609375,803952,4,Woman
