,subjID,experimentName,versionName,sequenceName,url,selected_row,windowWidth,windowHeight,screenWidth,screenHeight,startDate,startTime,trial,stimulus,duration,actual_depth,depth_estimate,trial_RT,log_sceneDuration,unitSelection,seq_filepath,experimentTime,totalTime,age,gender
0,945121,DepthScenes,duration_manipulation_targetAtFixation,jsons/v1_VE1000_randls_49_rotated.json,http://54.235.29.9/FacialAge/BNav_EC2/DepthDuration/v2_depth_duration_MTurk/v2_DepthDuration_HTML.html#131,131,1366,768,1366,768,8-22-2022,8-17-40,1,depth_duration_stimuli/000665_2014-06-09_20-42-35_260595134347_rgbf000110-resize_1/000665_2014-06-09_20-42-35_260595134347_rgbf000110-resize_1-target.png,1000,3.057,3.0,4293,1012,meters,jsons/v1_VE1000_randls_49_rotated.json,806552,964368,56,Man
1,945121,DepthScenes,duration_manipulation_targetAtFixation,jsons/v1_VE1000_randls_49_rotated.json,http://54.235.29.9/FacialAge/BNav_EC2/DepthDuration/v2_depth_duration_MTurk/v2_DepthDuration_HTML.html#131,131,1366,768,1366,768,8-22-2022,8-17-40,2,depth_duration_stimuli/001150_2014-06-17_15-27-34_260595134347_rgbf000108-resize_2/001150_2014-06-17_15-27-34_260595134347_rgbf000108-resize_2-target.png,1000,4.0325,2.0,3884,1036,meters,jsons/v1_VE1000_randls_49_rotated.json,806552,964368,56,Man
2,945121,DepthScenes,duration_manipulation_targetAtFixation,jsons/v1_VE1000_randls_49_rotated.json,http://54.235.29.9/FacialAge/BNav_EC2/DepthDuration/v2_depth_duration_MTurk/v2_DepthDuration_HTML.html#131,131,1366,768,1366,768,8-22-2022,8-17-40,3,depth_duration_stimuli/002444_2014-06-28_20-32-08_260595134347_rgbf000027-resize_0/002444_2014-06-28_20-32-08_260595134347_rgbf000027-resize_0-target.png,1000,4.388999999999999,6.0,4065,990,meters,jsons/v1_VE1000_randls_49_rotated.json,806552,964368,56,Man
3,945121,DepthScenes,duration_manipulation_targetAtFixation,jsons/v1_VE1000_randls_49_rotated.json,http://54.235.29.9/FacialAge/BNav_EC2/DepthDuration/v2_depth_duration_MTurk/v2_DepthDuration_HTML.html#131,131,1366,768,1366,768,8-22-2022,8-17-40,4,depth_duration_stimuli/000436_2014-06-09_22-25-11_260595134347_rgbf000137-resize_1/000436_2014-06-09_22-25-11_260595134347_rgbf000137-resize_1-target.png,1000,4.0705,5.0,3721,1001,meters,jsons/v1_VE1000_randls_49_rotated.json,806552,964368,56,Man
4,945121,DepthScenes,duration_manipulation_targetAtFixation,jsons/v1_VE1000_randls_49_rotated.json,http://54.235.29.9/FacialAge/BNav_EC2/DepthDuration/v2_depth_duration_MTurk/v2_DepthDuration_HTML.html#131,131,1366,768,1366,768,8-22-2022,8-17-40,5,depth_duration_stimuli/001032_2014-06-08_13-23-17_260595134347_rgbf000021-resize_3/001032_2014-06-08_13-23-17_260595134347_rgbf000021-resize_3-target.png,1000,3.2725,6.0,5011,1002,meters,jsons/v1_VE1000_randls_49_rotated.json,806552,964368,56,Man
5,945121,DepthScenes,duration_manipulation_targetAtFixation,jsons/v1_VE1000_randls_49_rotated.json,http://54.235.29.9/FacialAge/BNav_EC2/DepthDuration/v2_depth_duration_MTurk/v2_DepthDuration_HTML.html#131,131,1366,768,1366,768,8-22-2022,8-17-40,6,depth_duration_stimuli/001059_2014-06-08_21-53-27_260595134347_rgbf000061-resize_4/001059_2014-06-08_21-53-27_260595134347_rgbf000061-resize_4-target.png,1000,2.4185,5.0,4337,1001,meters,jsons/v1_VE1000_randls_49_rotated.json,806552,964368,56,Man
6,945121,DepthScenes,duration_manipulation_targetAtFixation,jsons/v1_VE1000_randls_49_rotated.json,http://54.235.29.9/FacialAge/BNav_EC2/DepthDuration/v2_depth_duration_MTurk/v2_DepthDuration_HTML.html#131,131,1366,768,1366,768,8-22-2022,8-17-40,7,depth_duration_stimuli/002323_2014-06-28_20-01-54_260595134347_rgbf000051-resize_4/002323_2014-06-28_20-01-54_260595134347_rgbf000051-resize_4-target.png,1000,3.7310000000000003,4.0,3842,997,meters,jsons/v1_VE1000_randls_49_rotated.json,806552,964368,56,Man
7,945121,DepthScenes,duration_manipulation_targetAtFixation,jsons/v1_VE1000_randls_49_rotated.json,http://54.235.29.9/FacialAge/BNav_EC2/DepthDuration/v2_depth_duration_MTurk/v2_DepthDuration_HTML.html#131,131,1366,768,1366,768,8-22-2022,8-17-40,8,depth_duration_stimuli/000917_2014-06-09_22-45-29_260595134347_rgbf000149-resize_3/000917_2014-06-09_22-45-29_260595134347_rgbf000149-resize_3-target.png,1000,4.1865,6.0,3423,997,meters,jsons/v1_VE1000_randls_49_rotated.json,806552,964368,56,Man
8,945121,DepthScenes,duration_manipulation_targetAtFixation,jsons/v1_VE1000_randls_49_rotated.json,http://54.235.29.9/FacialAge/BNav_EC2/DepthDuration/v2_depth_duration_MTurk/v2_DepthDuration_HTML.html#131,131,1366,768,1366,768,8-22-2022,8-17-40,9,depth_duration_stimuli/000691_2014-06-08_13-08-50_260595134347_rgbf000132-resize_3/000691_2014-06-08_13-08-50_260595134347_rgbf000132-resize_3-target.png,1000,4.1530000000000005,3.0,3463,1032,meters,jsons/v1_VE1000_randls_49_rotated.json,806552,964368,56,Man
9,945121,DepthScenes,duration_manipulation_targetAtFixation,jsons/v1_VE1000_randls_49_rotated.json,http://54.235.29.9/FacialAge/BNav_EC2/DepthDuration/v2_depth_duration_MTurk/v2_DepthDuration_HTML.html#131,131,1366,768,1366,768,8-22-2022,8-17-40,10,depth_duration_stimuli/002213_2014-06-28_18-37-58_260595134347_rgbf000055-resize_1/002213_2014-06-28_18-37-58_260595134347_rgbf000055-resize_1-target.png,1000,3.62,6.0,3221,1048,meters,jsons/v1_VE1000_randls_49_rotated.json,806552,964368,56,Man
10,945121,DepthScenes,duration_manipulation_targetAtFixation,jsons/v1_VE1000_randls_49_rotated.json,http://54.235.29.9/FacialAge/BNav_EC2/DepthDuration/v2_depth_duration_MTurk/v2_DepthDuration_HTML.html#131,131,1366,768,1366,768,8-22-2022,8-17-40,11,depth_duration_stimuli/000457_2014-06-08_16-52-43_260595134347_rgbf000199-resize_1/000457_2014-06-08_16-52-43_260595134347_rgbf000199-resize_1-target.png,1000,3.6489999999999996,1.0,3697,1000,meters,jsons/v1_VE1000_randls_49_rotated.json,806552,964368,56,Man
11,945121,DepthScenes,duration_manipulation_targetAtFixation,jsons/v1_VE1000_randls_49_rotated.json,http://54.235.29.9/FacialAge/BNav_EC2/DepthDuration/v2_depth_duration_MTurk/v2_DepthDuration_HTML.html#131,131,1366,768,1366,768,8-22-2022,8-17-40,12,depth_duration_stimuli/000929_2014-06-09_16-33-19_260595134347_rgbf000139-resize_0/000929_2014-06-09_16-33-19_260595134347_rgbf000139-resize_0-target.png,1000,2.8680000000000003,5.0,3545,1023,meters,jsons/v1_VE1000_randls_49_rotated.json,806552,964368,56,Man
12,945121,DepthScenes,duration_manipulation_targetAtFixation,jsons/v1_VE1000_randls_49_rotated.json,http://54.235.29.9/FacialAge/BNav_EC2/DepthDuration/v2_depth_duration_MTurk/v2_DepthDuration_HTML.html#131,131,1366,768,1366,768,8-22-2022,8-17-40,13,depth_duration_stimuli/001584_2014-06-20_11-07-43_260595134347_rgbf000002-resize_1/001584_2014-06-20_11-07-43_260595134347_rgbf000002-resize_1-target.png,1000,3.53,5.0,3918,998,meters,jsons/v1_VE1000_randls_49_rotated.json,806552,964368,56,Man
13,945121,DepthScenes,duration_manipulation_targetAtFixation,jsons/v1_VE1000_randls_49_rotated.json,http://54.235.29.9/FacialAge/BNav_EC2/DepthDuration/v2_depth_duration_MTurk/v2_DepthDuration_HTML.html#131,131,1366,768,1366,768,8-22-2022,8-17-40,14,depth_duration_stimuli/003621_2014-05-23_18-06-08_094959634447_rgbf000101-resize_1/003621_2014-05-23_18-06-08_094959634447_rgbf000101-resize_1-target.png,1000,3.9835,3.0,3473,999,meters,jsons/v1_VE1000_randls_49_rotated.json,806552,964368,56,Man
14,945121,DepthScenes,duration_manipulation_targetAtFixation,jsons/v1_VE1000_randls_49_rotated.json,http://54.235.29.9/FacialAge/BNav_EC2/DepthDuration/v2_depth_duration_MTurk/v2_DepthDuration_HTML.html#131,131,1366,768,1366,768,8-22-2022,8-17-40,15,depth_duration_stimuli/003228_2014-05-14_13-42-35_094959634447_rgbf000101-resize_1/003228_2014-05-14_13-42-35_094959634447_rgbf000101-resize_1-target.png,1000,1.9680000000000002,6.0,3398,1001,meters,jsons/v1_VE1000_randls_49_rotated.json,806552,964368,56,Man
15,945121,DepthScenes,duration_manipulation_targetAtFixation,jsons/v1_VE1000_randls_49_rotated.json,http://54.235.29.9/FacialAge/BNav_EC2/DepthDuration/v2_depth_duration_MTurk/v2_DepthDuration_HTML.html#131,131,1366,768,1366,768,8-22-2022,8-17-40,16,depth_duration_stimuli/002600_2014-06-24_14-27-04_094959634447_rgbf000074-resize_2/002600_2014-06-24_14-27-04_094959634447_rgbf000074-resize_2-target.png,1000,2.7575,5.0,3409,1000,meters,jsons/v1_VE1000_randls_49_rotated.json,806552,964368,56,Man
16,945121,DepthScenes,duration_manipulation_targetAtFixation,jsons/v1_VE1000_randls_49_rotated.json,http://54.235.29.9/FacialAge/BNav_EC2/DepthDuration/v2_depth_duration_MTurk/v2_DepthDuration_HTML.html#131,131,1366,768,1366,768,8-22-2022,8-17-40,17,depth_duration_stimuli/000191_2014-05-12_17-07-38_260595134347_rgbf000199-resize_0/000191_2014-05-12_17-07-38_260595134347_rgbf000199-resize_0-target.png,1000,3.7995,9.0,3238,1004,meters,jsons/v1_VE1000_randls_49_rotated.json,806552,964368,56,Man
17,945121,DepthScenes,duration_manipulation_targetAtFixation,jsons/v1_VE1000_randls_49_rotated.json,http://54.235.29.9/FacialAge/BNav_EC2/DepthDuration/v2_depth_duration_MTurk/v2_DepthDuration_HTML.html#131,131,1366,768,1366,768,8-22-2022,8-17-40,18,depth_duration_stimuli/000493_2014-06-09_21-01-18_260595134347_rgbf000196-resize_3/000493_2014-06-09_21-01-18_260595134347_rgbf000196-resize_3-target.png,1000,3.44,5.0,2845,998,meters,jsons/v1_VE1000_randls_49_rotated.json,806552,964368,56,Man
18,945121,DepthScenes,duration_manipulation_targetAtFixation,jsons/v1_VE1000_randls_49_rotated.json,http://54.235.29.9/FacialAge/BNav_EC2/DepthDuration/v2_depth_duration_MTurk/v2_DepthDuration_HTML.html#131,131,1366,768,1366,768,8-22-2022,8-17-40,19,depth_duration_stimuli/001498_2014-06-19_17-45-14_260595134347_rgbf000129-resize_4/001498_2014-06-19_17-45-14_260595134347_rgbf000129-resize-original.jpg,1000,1.4075,3.0,3113,1009,meters,jsons/v1_VE1000_randls_49_rotated.json,806552,964368,56,Man
19,945121,DepthScenes,duration_manipulation_targetAtFixation,jsons/v1_VE1000_randls_49_rotated.json,http://54.235.29.9/FacialAge/BNav_EC2/DepthDuration/v2_depth_duration_MTurk/v2_DepthDuration_HTML.html#131,131,1366,768,1366,768,8-22-2022,8-17-40,20,depth_duration_stimuli/000635_2014-06-08_16-38-42_260595134347_rgbf000106-resize_1/000635_2014-06-08_16-38-42_260595134347_rgbf000106-resize_1-target.png,1000,2.074,2.0,3191,1003,meters,jsons/v1_VE1000_randls_49_rotated.json,806552,964368,56,Man
20,945121,DepthScenes,duration_manipulation_targetAtFixation,jsons/v1_VE1000_randls_49_rotated.json,http://54.235.29.9/FacialAge/BNav_EC2/DepthDuration/v2_depth_duration_MTurk/v2_DepthDuration_HTML.html#131,131,1366,768,1366,768,8-22-2022,8-17-40,21,depth_duration_stimuli/002279_2014-06-28_18-55-32_260595134347_rgbf000040-resize_5/002279_2014-06-28_18-55-32_260595134347_rgbf000040-resize_5-target.png,1000,1.5043333333333,5.0,3289,1001,meters,jsons/v1_VE1000_randls_49_rotated.json,806552,964368,56,Man
21,945121,DepthScenes,duration_manipulation_targetAtFixation,jsons/v1_VE1000_randls_49_rotated.json,http://54.235.29.9/FacialAge/BNav_EC2/DepthDuration/v2_depth_duration_MTurk/v2_DepthDuration_HTML.html#131,131,1366,768,1366,768,8-22-2022,8-17-40,22,depth_duration_stimuli/002545_2014-06-24_13-38-53_094959634447_rgbf000080-resize_4/002545_2014-06-24_13-38-53_094959634447_rgbf000080-resize_4-target.png,1000,1.9205,4.0,3283,1000,meters,jsons/v1_VE1000_randls_49_rotated.json,806552,964368,56,Man
22,945121,DepthScenes,duration_manipulation_targetAtFixation,jsons/v1_VE1000_randls_49_rotated.json,http://54.235.29.9/FacialAge/BNav_EC2/DepthDuration/v2_depth_duration_MTurk/v2_DepthDuration_HTML.html#131,131,1366,768,1366,768,8-22-2022,8-17-40,23,depth_duration_stimuli/001092_2014-06-15_17-34-58_260595134347_rgbf000171-resize_3/001092_2014-06-15_17-34-58_260595134347_rgbf000171-resize_3-target.png,1000,2.6935,6.0,4460,999,meters,jsons/v1_VE1000_randls_49_rotated.json,806552,964368,56,Man
23,945121,DepthScenes,duration_manipulation_targetAtFixation,jsons/v1_VE1000_randls_49_rotated.json,http://54.235.29.9/FacialAge/BNav_EC2/DepthDuration/v2_depth_duration_MTurk/v2_DepthDuration_HTML.html#131,131,1366,768,1366,768,8-22-2022,8-17-40,24,depth_duration_stimuli/002758_2014-06-22_19-11-20_094959634447_rgbf000128-resize_1/002758_2014-06-22_19-11-20_094959634447_rgbf000128-resize_1-target.png,1000,2.555,3.0,3409,998,meters,jsons/v1_VE1000_randls_49_rotated.json,806552,964368,56,Man
24,945121,DepthScenes,duration_manipulation_targetAtFixation,jsons/v1_VE1000_randls_49_rotated.json,http://54.235.29.9/FacialAge/BNav_EC2/DepthDuration/v2_depth_duration_MTurk/v2_DepthDuration_HTML.html#131,131,1366,768,1366,768,8-22-2022,8-17-40,25,depth_duration_stimuli/002630_2014-06-24_14-47-50_094959634447_rgbf000055-resize_1/002630_2014-06-24_14-47-50_094959634447_rgbf000055-resize_1-target.png,1000,3.0095,5.0,3477,1002,meters,jsons/v1_VE1000_randls_49_rotated.json,806552,964368,56,Man
25,945121,DepthScenes,duration_manipulation_targetAtFixation,jsons/v1_VE1000_randls_49_rotated.json,http://54.235.29.9/FacialAge/BNav_EC2/DepthDuration/v2_depth_duration_MTurk/v2_DepthDuration_HTML.html#131,131,1366,768,1366,768,8-22-2022,8-17-40,26,depth_duration_stimuli/002875_2014-06-01_15-19-00_094959634447_rgbf000151-resize_1/002875_2014-06-01_15-19-00_094959634447_rgbf000151-resize_1-target.png,1000,1.9675,6.0,4892,1036,meters,jsons/v1_VE1000_randls_49_rotated.json,806552,964368,56,Man
26,945121,DepthScenes,duration_manipulation_targetAtFixation,jsons/v1_VE1000_randls_49_rotated.json,http://54.235.29.9/FacialAge/BNav_EC2/DepthDuration/v2_depth_duration_MTurk/v2_DepthDuration_HTML.html#131,131,1366,768,1366,768,8-22-2022,8-17-40,27,depth_duration_stimuli/001011_2014-06-08_23-18-54_260595134347_rgbf000044-resize_4/001011_2014-06-08_23-18-54_260595134347_rgbf000044-resize_4-target.png,1000,2.4730000000000003,2.0,4100,994,meters,jsons/v1_VE1000_randls_49_rotated.json,806552,964368,56,Man
27,945121,DepthScenes,duration_manipulation_targetAtFixation,jsons/v1_VE1000_randls_49_rotated.json,http://54.235.29.9/FacialAge/BNav_EC2/DepthDuration/v2_depth_duration_MTurk/v2_DepthDuration_HTML.html#131,131,1366,768,1366,768,8-22-2022,8-17-40,28,depth_duration_stimuli/000709_2014-06-08_13-51-55_260595134347_rgbf000068-resize_3/000709_2014-06-08_13-51-55_260595134347_rgbf000068-resize_3-target.png,1000,1.8030000000000002,5.0,3957,999,meters,jsons/v1_VE1000_randls_49_rotated.json,806552,964368,56,Man
28,945121,DepthScenes,duration_manipulation_targetAtFixation,jsons/v1_VE1000_randls_49_rotated.json,http://54.235.29.9/FacialAge/BNav_EC2/DepthDuration/v2_depth_duration_MTurk/v2_DepthDuration_HTML.html#131,131,1366,768,1366,768,8-22-2022,8-17-40,29,depth_duration_stimuli/002057_2014-06-24_21-00-13_260595134347_rgbf000120-resize_1/002057_2014-06-24_21-00-13_260595134347_rgbf000120-resize_1-target.png,1000,2.967,5.0,4699,995,meters,jsons/v1_VE1000_randls_49_rotated.json,806552,964368,56,Man
29,945121,DepthScenes,duration_manipulation_targetAtFixation,jsons/v1_VE1000_randls_49_rotated.json,http://54.235.29.9/FacialAge/BNav_EC2/DepthDuration/v2_depth_duration_MTurk/v2_DepthDuration_HTML.html#131,131,1366,768,1366,768,8-22-2022,8-17-40,30,depth_duration_stimuli/002072_2014-06-24_21-48-06_260595134347_rgbf000115-resize_0/002072_2014-06-24_21-48-06_260595134347_rgbf000115-resize-original.jpg,1000,4.702,0.0,4908,1026,meters,jsons/v1_VE1000_randls_49_rotated.json,806552,964368,56,Man
30,945121,DepthScenes,duration_manipulation_targetAtFixation,jsons/v1_VE1000_randls_49_rotated.json,http://54.235.29.9/FacialAge/BNav_EC2/DepthDuration/v2_depth_duration_MTurk/v2_DepthDuration_HTML.html#131,131,1366,768,1366,768,8-22-2022,8-17-40,31,depth_duration_stimuli/001516_2014-06-20_16-25-09_260595134347_rgbf000076-resize_2/001516_2014-06-20_16-25-09_260595134347_rgbf000076-resize_2-target.png,1000,1.7445,6.0,3425,1064,meters,jsons/v1_VE1000_randls_49_rotated.json,806552,964368,56,Man
31,945121,DepthScenes,duration_manipulation_targetAtFixation,jsons/v1_VE1000_randls_49_rotated.json,http://54.235.29.9/FacialAge/BNav_EC2/DepthDuration/v2_depth_duration_MTurk/v2_DepthDuration_HTML.html#131,131,1366,768,1366,768,8-22-2022,8-17-40,32,depth_duration_stimuli/002118_2014-06-25_20-32-08_260595134347_rgbf000078-resize_1/002118_2014-06-25_20-32-08_260595134347_rgbf000078-resize_1-target.png,1000,2.6460000000000004,3.0,4165,1002,meters,jsons/v1_VE1000_randls_49_rotated.json,806552,964368,56,Man
32,945121,DepthScenes,duration_manipulation_targetAtFixation,jsons/v1_VE1000_randls_49_rotated.json,http://54.235.29.9/FacialAge/BNav_EC2/DepthDuration/v2_depth_duration_MTurk/v2_DepthDuration_HTML.html#131,131,1366,768,1366,768,8-22-2022,8-17-40,33,depth_duration_stimuli/000854_2014-06-09_19-43-13_260595134347_rgbf000066-resize_0/000854_2014-06-09_19-43-13_260595134347_rgbf000066-resize_0-target.png,1000,3.068,6.0,3436,1008,meters,jsons/v1_VE1000_randls_49_rotated.json,806552,964368,56,Man
33,945121,DepthScenes,duration_manipulation_targetAtFixation,jsons/v1_VE1000_randls_49_rotated.json,http://54.235.29.9/FacialAge/BNav_EC2/DepthDuration/v2_depth_duration_MTurk/v2_DepthDuration_HTML.html#131,131,1366,768,1366,768,8-22-2022,8-17-40,34,depth_duration_stimuli/000758_2014-06-08_22-05-08_260595134347_rgbf000085-resize_0/000758_2014-06-08_22-05-08_260595134347_rgbf000085-resize_0-target.png,1000,3.3810000000000002,2.0,3735,998,meters,jsons/v1_VE1000_randls_49_rotated.json,806552,964368,56,Man
34,945121,DepthScenes,duration_manipulation_targetAtFixation,jsons/v1_VE1000_randls_49_rotated.json,http://54.235.29.9/FacialAge/BNav_EC2/DepthDuration/v2_depth_duration_MTurk/v2_DepthDuration_HTML.html#131,131,1366,768,1366,768,8-22-2022,8-17-40,35,depth_duration_stimuli/000137_2014-05-20_17-04-49_260595134347_rgbf000120-resize_1/000137_2014-05-20_17-04-49_260595134347_rgbf000120-resize_1-target.png,1000,3.786,6.0,3284,997,meters,jsons/v1_VE1000_randls_49_rotated.json,806552,964368,56,Man
35,945121,DepthScenes,duration_manipulation_targetAtFixation,jsons/v1_VE1000_randls_49_rotated.json,http://54.235.29.9/FacialAge/BNav_EC2/DepthDuration/v2_depth_duration_MTurk/v2_DepthDuration_HTML.html#131,131,1366,768,1366,768,8-22-2022,8-17-40,36,depth_duration_stimuli/000736_2014-06-08_18-24-15_260595134347_rgbf000206-resize_3/000736_2014-06-08_18-24-15_260595134347_rgbf000206-resize_3-target.png,1000,3.515,3.0,3383,1000,meters,jsons/v1_VE1000_randls_49_rotated.json,806552,964368,56,Man
36,945121,DepthScenes,duration_manipulation_targetAtFixation,jsons/v1_VE1000_randls_49_rotated.json,http://54.235.29.9/FacialAge/BNav_EC2/DepthDuration/v2_depth_duration_MTurk/v2_DepthDuration_HTML.html#131,131,1366,768,1366,768,8-22-2022,8-17-40,37,depth_duration_stimuli/002199_2014-06-28_18-33-56_260595134347_rgbf000074-resize_0/002199_2014-06-28_18-33-56_260595134347_rgbf000074-resize_0-target.png,1000,1.996,56.0,3378,995,meters,jsons/v1_VE1000_randls_49_rotated.json,806552,964368,56,Man
37,945121,DepthScenes,duration_manipulation_targetAtFixation,jsons/v1_VE1000_randls_49_rotated.json,http://54.235.29.9/FacialAge/BNav_EC2/DepthDuration/v2_depth_duration_MTurk/v2_DepthDuration_HTML.html#131,131,1366,768,1366,768,8-22-2022,8-17-40,38,depth_duration_stimuli/001056_2014-06-08_18-46-44_260595134347_rgbf000068-resize_0/001056_2014-06-08_18-46-44_260595134347_rgbf000068-resize_0-target.png,1000,2.6625,3.0,3413,1002,meters,jsons/v1_VE1000_randls_49_rotated.json,806552,964368,56,Man
38,945121,DepthScenes,duration_manipulation_targetAtFixation,jsons/v1_VE1000_randls_49_rotated.json,http://54.235.29.9/FacialAge/BNav_EC2/DepthDuration/v2_depth_duration_MTurk/v2_DepthDuration_HTML.html#131,131,1366,768,1366,768,8-22-2022,8-17-40,39,depth_duration_stimuli/000409_2014-06-04_19-23-33_260595134347_rgbf000067-resize_0/000409_2014-06-04_19-23-33_260595134347_rgbf000067-resize_0-target.png,1000,3.7335,6.0,3328,995,meters,jsons/v1_VE1000_randls_49_rotated.json,806552,964368,56,Man
39,945121,DepthScenes,duration_manipulation_targetAtFixation,jsons/v1_VE1000_randls_49_rotated.json,http://54.235.29.9/FacialAge/BNav_EC2/DepthDuration/v2_depth_duration_MTurk/v2_DepthDuration_HTML.html#131,131,1366,768,1366,768,8-22-2022,8-17-40,40,depth_duration_stimuli/002663_2014-06-13_15-50-26_094959634447_rgbf000075-resize_1/002663_2014-06-13_15-50-26_094959634447_rgbf000075-resize_1-target.png,1000,4.7495,5.0,3656,1001,meters,jsons/v1_VE1000_randls_49_rotated.json,806552,964368,56,Man
40,945121,DepthScenes,duration_manipulation_targetAtFixation,jsons/v1_VE1000_randls_49_rotated.json,http://54.235.29.9/FacialAge/BNav_EC2/DepthDuration/v2_depth_duration_MTurk/v2_DepthDuration_HTML.html#131,131,1366,768,1366,768,8-22-2022,8-17-40,41,depth_duration_stimuli/001052_2014-06-08_18-24-54_260595134347_rgbf000130-resize_1/001052_2014-06-08_18-24-54_260595134347_rgbf000130-resize_1-target.png,1000,4.1045,6.0,3459,1010,meters,jsons/v1_VE1000_randls_49_rotated.json,806552,964368,56,Man
41,945121,DepthScenes,duration_manipulation_targetAtFixation,jsons/v1_VE1000_randls_49_rotated.json,http://54.235.29.9/FacialAge/BNav_EC2/DepthDuration/v2_depth_duration_MTurk/v2_DepthDuration_HTML.html#131,131,1366,768,1366,768,8-22-2022,8-17-40,42,depth_duration_stimuli/002988_2014-06-15_12-24-20_094959634447_rgbf000150-resize_1/002988_2014-06-15_12-24-20_094959634447_rgbf000150-resize_1-target.png,1000,4.7669999999999995,2.0,3533,995,meters,jsons/v1_VE1000_randls_49_rotated.json,806552,964368,56,Man
42,945121,DepthScenes,duration_manipulation_targetAtFixation,jsons/v1_VE1000_randls_49_rotated.json,http://54.235.29.9/FacialAge/BNav_EC2/DepthDuration/v2_depth_duration_MTurk/v2_DepthDuration_HTML.html#131,131,1366,768,1366,768,8-22-2022,8-17-40,43,depth_duration_stimuli/002750_2014-06-22_19-08-03_094959634447_rgbf000094-resize_4/002750_2014-06-22_19-08-03_094959634447_rgbf000094-resize_4-target.png,1000,2.354,2.0,3521,1000,meters,jsons/v1_VE1000_randls_49_rotated.json,806552,964368,56,Man
43,945121,DepthScenes,duration_manipulation_targetAtFixation,jsons/v1_VE1000_randls_49_rotated.json,http://54.235.29.9/FacialAge/BNav_EC2/DepthDuration/v2_depth_duration_MTurk/v2_DepthDuration_HTML.html#131,131,1366,768,1366,768,8-22-2022,8-17-40,44,depth_duration_stimuli/002549_2014-06-24_13-41-39_094959634447_rgbf000022-resize_3/002549_2014-06-24_13-41-39_094959634447_rgbf000022-resize_3-target.png,1000,1.476,3.0,3724,986,meters,jsons/v1_VE1000_randls_49_rotated.json,806552,964368,56,Man
44,945121,DepthScenes,duration_manipulation_targetAtFixation,jsons/v1_VE1000_randls_49_rotated.json,http://54.235.29.9/FacialAge/BNav_EC2/DepthDuration/v2_depth_duration_MTurk/v2_DepthDuration_HTML.html#131,131,1366,768,1366,768,8-22-2022,8-17-40,45,depth_duration_stimuli/001392_2014-06-19_16-07-59_260595134347_rgbf000046-resize_1/001392_2014-06-19_16-07-59_260595134347_rgbf000046-resize_1-target.png,1000,4.135,6.0,3623,1004,meters,jsons/v1_VE1000_randls_49_rotated.json,806552,964368,56,Man
45,945121,DepthScenes,duration_manipulation_targetAtFixation,jsons/v1_VE1000_randls_49_rotated.json,http://54.235.29.9/FacialAge/BNav_EC2/DepthDuration/v2_depth_duration_MTurk/v2_DepthDuration_HTML.html#131,131,1366,768,1366,768,8-22-2022,8-17-40,46,depth_duration_stimuli/001570_2014-06-20_17-21-09_260595134347_rgbf000135-resize_4/001570_2014-06-20_17-21-09_260595134347_rgbf000135-resize_4-target.png,1000,4.467,6.0,3744,997,meters,jsons/v1_VE1000_randls_49_rotated.json,806552,964368,56,Man
46,945121,DepthScenes,duration_manipulation_targetAtFixation,jsons/v1_VE1000_randls_49_rotated.json,http://54.235.29.9/FacialAge/BNav_EC2/DepthDuration/v2_depth_duration_MTurk/v2_DepthDuration_HTML.html#131,131,1366,768,1366,768,8-22-2022,8-17-40,47,depth_duration_stimuli/001571_2014-06-20_17-21-32_260595134347_rgbf000089-resize_1/001571_2014-06-20_17-21-32_260595134347_rgbf000089-resize_1-target.png,1000,1.86,4.0,4374,997,meters,jsons/v1_VE1000_randls_49_rotated.json,806552,964368,56,Man
47,945121,DepthScenes,duration_manipulation_targetAtFixation,jsons/v1_VE1000_randls_49_rotated.json,http://54.235.29.9/FacialAge/BNav_EC2/DepthDuration/v2_depth_duration_MTurk/v2_DepthDuration_HTML.html#131,131,1366,768,1366,768,8-22-2022,8-17-40,48,depth_duration_stimuli/002272_2014-06-28_18-53-56_260595134347_rgbf000067-resize_2/002272_2014-06-28_18-53-56_260595134347_rgbf000067-resize_2-target.png,1000,1.138,1.0,3396,987,meters,jsons/v1_VE1000_randls_49_rotated.json,806552,964368,56,Man
48,945121,DepthScenes,duration_manipulation_targetAtFixation,jsons/v1_VE1000_randls_49_rotated.json,http://54.235.29.9/FacialAge/BNav_EC2/DepthDuration/v2_depth_duration_MTurk/v2_DepthDuration_HTML.html#131,131,1366,768,1366,768,8-22-2022,8-17-40,49,depth_duration_stimuli/001170_2014-06-17_15-43-44_260595134347_rgbf000096-resize_6/001170_2014-06-17_15-43-44_260595134347_rgbf000096-resize-original.jpg,1000,1.1909999999999998,3.0,3568,999,meters,jsons/v1_VE1000_randls_49_rotated.json,806552,964368,56,Man
49,945121,DepthScenes,duration_manipulation_targetAtFixation,jsons/v1_VE1000_randls_49_rotated.json,http://54.235.29.9/FacialAge/BNav_EC2/DepthDuration/v2_depth_duration_MTurk/v2_DepthDuration_HTML.html#131,131,1366,768,1366,768,8-22-2022,8-17-40,50,depth_duration_stimuli/000742_2014-06-08_18-48-09_260595134347_rgbf000164-resize_4/000742_2014-06-08_18-48-09_260595134347_rgbf000164-resize_4-target.png,1000,4.632,4.0,3377,986,meters,jsons/v1_VE1000_randls_49_rotated.json,806552,964368,56,Man
50,945121,DepthScenes,duration_manipulation_targetAtFixation,jsons/v1_VE1000_randls_49_rotated.json,http://54.235.29.9/FacialAge/BNav_EC2/DepthDuration/v2_depth_duration_MTurk/v2_DepthDuration_HTML.html#131,131,1366,768,1366,768,8-22-2022,8-17-40,51,depth_duration_stimuli/001066_2014-06-08_22-03-20_260595134347_rgbf000066-resize_4/001066_2014-06-08_22-03-20_260595134347_rgbf000066-resize_4-target.png,1000,4.2330000000000005,8.0,3114,1000,meters,jsons/v1_VE1000_randls_49_rotated.json,806552,964368,56,Man
51,945121,DepthScenes,duration_manipulation_targetAtFixation,jsons/v1_VE1000_randls_49_rotated.json,http://54.235.29.9/FacialAge/BNav_EC2/DepthDuration/v2_depth_duration_MTurk/v2_DepthDuration_HTML.html#131,131,1366,768,1366,768,8-22-2022,8-17-40,52,depth_duration_stimuli/000780_2014-06-08_22-28-29_260595134347_rgbf000126-resize_1/000780_2014-06-08_22-28-29_260595134347_rgbf000126-resize_1-target.png,1000,3.3825,5.0,3629,996,meters,jsons/v1_VE1000_randls_49_rotated.json,806552,964368,56,Man
52,945121,DepthScenes,duration_manipulation_targetAtFixation,jsons/v1_VE1000_randls_49_rotated.json,http://54.235.29.9/FacialAge/BNav_EC2/DepthDuration/v2_depth_duration_MTurk/v2_DepthDuration_HTML.html#131,131,1366,768,1366,768,8-22-2022,8-17-40,53,depth_duration_stimuli/002445_2014-06-28_20-32-16_260595134347_rgbf000029-resize_4/002445_2014-06-28_20-32-16_260595134347_rgbf000029-resize_4-target.png,1000,2.5315,9.0,3314,992,meters,jsons/v1_VE1000_randls_49_rotated.json,806552,964368,56,Man
53,945121,DepthScenes,duration_manipulation_targetAtFixation,jsons/v1_VE1000_randls_49_rotated.json,http://54.235.29.9/FacialAge/BNav_EC2/DepthDuration/v2_depth_duration_MTurk/v2_DepthDuration_HTML.html#131,131,1366,768,1366,768,8-22-2022,8-17-40,54,depth_duration_stimuli/002995_2014-06-15_12-31-26_094959634447_rgbf000150-resize_1/002995_2014-06-15_12-31-26_094959634447_rgbf000150-resize_1-target.png,1000,3.8360000000000003,5.0,3373,985,meters,jsons/v1_VE1000_randls_49_rotated.json,806552,964368,56,Man
54,945121,DepthScenes,duration_manipulation_targetAtFixation,jsons/v1_VE1000_randls_49_rotated.json,http://54.235.29.9/FacialAge/BNav_EC2/DepthDuration/v2_depth_duration_MTurk/v2_DepthDuration_HTML.html#131,131,1366,768,1366,768,8-22-2022,8-17-40,55,depth_duration_stimuli/002748_2014-06-22_19-07-22_094959634447_rgbf000078-resize_1/002748_2014-06-22_19-07-22_094959634447_rgbf000078-resize_1-target.png,1000,4.6705,6.0,3431,1005,meters,jsons/v1_VE1000_randls_49_rotated.json,806552,964368,56,Man
55,945121,DepthScenes,duration_manipulation_targetAtFixation,jsons/v1_VE1000_randls_49_rotated.json,http://54.235.29.9/FacialAge/BNav_EC2/DepthDuration/v2_depth_duration_MTurk/v2_DepthDuration_HTML.html#131,131,1366,768,1366,768,8-22-2022,8-17-40,56,depth_duration_stimuli/002949_2014-06-26_15-57-42_094959634447_rgbf000079-resize_1/002949_2014-06-26_15-57-42_094959634447_rgbf000079-resize_1-target.png,1000,1.8915,5.0,3219,1064,meters,jsons/v1_VE1000_randls_49_rotated.json,806552,964368,56,Man
56,945121,DepthScenes,duration_manipulation_targetAtFixation,jsons/v1_VE1000_randls_49_rotated.json,http://54.235.29.9/FacialAge/BNav_EC2/DepthDuration/v2_depth_duration_MTurk/v2_DepthDuration_HTML.html#131,131,1366,768,1366,768,8-22-2022,8-17-40,57,depth_duration_stimuli/000522_2014-06-08_13-35-06_260595134347_rgbf000244-resize_1/000522_2014-06-08_13-35-06_260595134347_rgbf000244-resize_1-target.png,1000,2.3715,4.0,3357,1013,meters,jsons/v1_VE1000_randls_49_rotated.json,806552,964368,56,Man
57,945121,DepthScenes,duration_manipulation_targetAtFixation,jsons/v1_VE1000_randls_49_rotated.json,http://54.235.29.9/FacialAge/BNav_EC2/DepthDuration/v2_depth_duration_MTurk/v2_DepthDuration_HTML.html#131,131,1366,768,1366,768,8-22-2022,8-17-40,58,depth_duration_stimuli/002660_2014-06-13_15-44-18_094959634447_rgbf001878-resize_2/002660_2014-06-13_15-44-18_094959634447_rgbf001878-resize_2-target.png,1000,3.576,33.0,3861,1007,meters,jsons/v1_VE1000_randls_49_rotated.json,806552,964368,56,Man
58,945121,DepthScenes,duration_manipulation_targetAtFixation,jsons/v1_VE1000_randls_49_rotated.json,http://54.235.29.9/FacialAge/BNav_EC2/DepthDuration/v2_depth_duration_MTurk/v2_DepthDuration_HTML.html#131,131,1366,768,1366,768,8-22-2022,8-17-40,59,depth_duration_stimuli/002153_2014-06-25_21-27-18_260595134347_rgbf000038-resize_5/002153_2014-06-25_21-27-18_260595134347_rgbf000038-resize_5-target.png,1000,2.505,5.0,3143,1002,meters,jsons/v1_VE1000_randls_49_rotated.json,806552,964368,56,Man
59,945121,DepthScenes,duration_manipulation_targetAtFixation,jsons/v1_VE1000_randls_49_rotated.json,http://54.235.29.9/FacialAge/BNav_EC2/DepthDuration/v2_depth_duration_MTurk/v2_DepthDuration_HTML.html#131,131,1366,768,1366,768,8-22-2022,8-17-40,60,depth_duration_stimuli/001450_2014-06-19_17-02-03_260595134347_rgbf000203-resize_4/001450_2014-06-19_17-02-03_260595134347_rgbf000203-resize_4-target.png,1000,4.0106666666667,2.0,3080,997,meters,jsons/v1_VE1000_randls_49_rotated.json,806552,964368,56,Man
60,945121,DepthScenes,duration_manipulation_targetAtFixation,jsons/v1_VE1000_randls_49_rotated.json,http://54.235.29.9/FacialAge/BNav_EC2/DepthDuration/v2_depth_duration_MTurk/v2_DepthDuration_HTML.html#131,131,1366,768,1366,768,8-22-2022,8-17-40,61,depth_duration_stimuli/001449_2014-06-19_17-01-27_260595134347_rgbf000116-resize_2/001449_2014-06-19_17-01-27_260595134347_rgbf000116-resize_2-target.png,1000,3.452,6.0,5650,996,meters,jsons/v1_VE1000_randls_49_rotated.json,806552,964368,56,Man
61,945121,DepthScenes,duration_manipulation_targetAtFixation,jsons/v1_VE1000_randls_49_rotated.json,http://54.235.29.9/FacialAge/BNav_EC2/DepthDuration/v2_depth_duration_MTurk/v2_DepthDuration_HTML.html#131,131,1366,768,1366,768,8-22-2022,8-17-40,62,depth_duration_stimuli/003495_2014-05-21_16-01-51_094959634447_rgbf000100-resize_3/003495_2014-05-21_16-01-51_094959634447_rgbf000100-resize_3-target.png,1000,1.6255,2.0,3635,1010,meters,jsons/v1_VE1000_randls_49_rotated.json,806552,964368,56,Man
62,945121,DepthScenes,duration_manipulation_targetAtFixation,jsons/v1_VE1000_randls_49_rotated.json,http://54.235.29.9/FacialAge/BNav_EC2/DepthDuration/v2_depth_duration_MTurk/v2_DepthDuration_HTML.html#131,131,1366,768,1366,768,8-22-2022,8-17-40,63,depth_duration_stimuli/001244_2014-06-17_16-47-45_260595134347_rgbf000030-resize_4/001244_2014-06-17_16-47-45_260595134347_rgbf000030-resize_4-target.png,1000,2.0425,6.0,2956,1007,meters,jsons/v1_VE1000_randls_49_rotated.json,806552,964368,56,Man
63,945121,DepthScenes,duration_manipulation_targetAtFixation,jsons/v1_VE1000_randls_49_rotated.json,http://54.235.29.9/FacialAge/BNav_EC2/DepthDuration/v2_depth_duration_MTurk/v2_DepthDuration_HTML.html#131,131,1366,768,1366,768,8-22-2022,8-17-40,64,depth_duration_stimuli/002639_2014-06-24_14-51-37_094959634447_rgbf000074-resize_4/002639_2014-06-24_14-51-37_094959634447_rgbf000074-resize_4-target.png,1000,4.0375,5.0,3568,1002,meters,jsons/v1_VE1000_randls_49_rotated.json,806552,964368,56,Man
64,945121,DepthScenes,duration_manipulation_targetAtFixation,jsons/v1_VE1000_randls_49_rotated.json,http://54.235.29.9/FacialAge/BNav_EC2/DepthDuration/v2_depth_duration_MTurk/v2_DepthDuration_HTML.html#131,131,1366,768,1366,768,8-22-2022,8-17-40,65,depth_duration_stimuli/003292_2014-05-14_21-53-49_094959634447_rgbf000100-resize_2/003292_2014-05-14_21-53-49_094959634447_rgbf000100-resize_2-target.png,1000,3.4815,6.0,3882,999,meters,jsons/v1_VE1000_randls_49_rotated.json,806552,964368,56,Man
65,945121,DepthScenes,duration_manipulation_targetAtFixation,jsons/v1_VE1000_randls_49_rotated.json,http://54.235.29.9/FacialAge/BNav_EC2/DepthDuration/v2_depth_duration_MTurk/v2_DepthDuration_HTML.html#131,131,1366,768,1366,768,8-22-2022,8-17-40,66,depth_duration_stimuli/001540_2014-06-20_17-01-05_260595134347_rgbf000086-resize_2/001540_2014-06-20_17-01-05_260595134347_rgbf000086-resize-original.jpg,1000,1.459,0.0,4014,1003,meters,jsons/v1_VE1000_randls_49_rotated.json,806552,964368,56,Man
66,945121,DepthScenes,duration_manipulation_targetAtFixation,jsons/v1_VE1000_randls_49_rotated.json,http://54.235.29.9/FacialAge/BNav_EC2/DepthDuration/v2_depth_duration_MTurk/v2_DepthDuration_HTML.html#131,131,1366,768,1366,768,8-22-2022,8-17-40,67,depth_duration_stimuli/002568_2014-06-24_13-59-21_094959634447_rgbf000062-resize_4/002568_2014-06-24_13-59-21_094959634447_rgbf000062-resize_4-target.png,1000,3.015,1.0,3746,999,meters,jsons/v1_VE1000_randls_49_rotated.json,806552,964368,56,Man
67,945121,DepthScenes,duration_manipulation_targetAtFixation,jsons/v1_VE1000_randls_49_rotated.json,http://54.235.29.9/FacialAge/BNav_EC2/DepthDuration/v2_depth_duration_MTurk/v2_DepthDuration_HTML.html#131,131,1366,768,1366,768,8-22-2022,8-17-40,68,depth_duration_stimuli/003492_2014-05-21_15-50-55_094959634447_rgbf000828-resize_1/003492_2014-05-21_15-50-55_094959634447_rgbf000828-resize_1-target.png,1000,4.06875,5.0,3504,1004,meters,jsons/v1_VE1000_randls_49_rotated.json,806552,964368,56,Man
68,945121,DepthScenes,duration_manipulation_targetAtFixation,jsons/v1_VE1000_randls_49_rotated.json,http://54.235.29.9/FacialAge/BNav_EC2/DepthDuration/v2_depth_duration_MTurk/v2_DepthDuration_HTML.html#131,131,1366,768,1366,768,8-22-2022,8-17-40,69,depth_duration_stimuli/002414_2014-06-28_20-24-58_260595134347_rgbf000067-resize_4/002414_2014-06-28_20-24-58_260595134347_rgbf000067-resize_4-target.png,1000,4.363,2.0,3719,1000,meters,jsons/v1_VE1000_randls_49_rotated.json,806552,964368,56,Man
69,945121,DepthScenes,duration_manipulation_targetAtFixation,jsons/v1_VE1000_randls_49_rotated.json,http://54.235.29.9/FacialAge/BNav_EC2/DepthDuration/v2_depth_duration_MTurk/v2_DepthDuration_HTML.html#131,131,1366,768,1366,768,8-22-2022,8-17-40,70,depth_duration_stimuli/000773_2014-06-08_22-24-54_260595134347_rgbf000093-resize_1/000773_2014-06-08_22-24-54_260595134347_rgbf000093-resize_1-target.png,1000,4.973,1.0,3223,991,meters,jsons/v1_VE1000_randls_49_rotated.json,806552,964368,56,Man
70,945121,DepthScenes,duration_manipulation_targetAtFixation,jsons/v1_VE1000_randls_49_rotated.json,http://54.235.29.9/FacialAge/BNav_EC2/DepthDuration/v2_depth_duration_MTurk/v2_DepthDuration_HTML.html#131,131,1366,768,1366,768,8-22-2022,8-17-40,71,depth_duration_stimuli/001235_2014-06-17_16-37-36_260595134347_rgbf000084-resize_4/001235_2014-06-17_16-37-36_260595134347_rgbf000084-resize_4-target.png,1000,3.6605,2.0,3382,1010,meters,jsons/v1_VE1000_randls_49_rotated.json,806552,964368,56,Man
71,945121,DepthScenes,duration_manipulation_targetAtFixation,jsons/v1_VE1000_randls_49_rotated.json,http://54.235.29.9/FacialAge/BNav_EC2/DepthDuration/v2_depth_duration_MTurk/v2_DepthDuration_HTML.html#131,131,1366,768,1366,768,8-22-2022,8-17-40,72,depth_duration_stimuli/000788_2014-06-08_22-34-36_260595134347_rgbf000131-resize_1/000788_2014-06-08_22-34-36_260595134347_rgbf000131-resize_1-target.png,1000,3.359,5.0,3586,1004,meters,jsons/v1_VE1000_randls_49_rotated.json,806552,964368,56,Man
72,945121,DepthScenes,duration_manipulation_targetAtFixation,jsons/v1_VE1000_randls_49_rotated.json,http://54.235.29.9/FacialAge/BNav_EC2/DepthDuration/v2_depth_duration_MTurk/v2_DepthDuration_HTML.html#131,131,1366,768,1366,768,8-22-2022,8-17-40,73,depth_duration_stimuli/000103_2014-05-14_22-01-17_260595134347_rgbf000152-resize_5/000103_2014-05-14_22-01-17_260595134347_rgbf000152-resize_5-target.png,1000,1.993,6.0,3223,1043,meters,jsons/v1_VE1000_randls_49_rotated.json,806552,964368,56,Man
73,945121,DepthScenes,duration_manipulation_targetAtFixation,jsons/v1_VE1000_randls_49_rotated.json,http://54.235.29.9/FacialAge/BNav_EC2/DepthDuration/v2_depth_duration_MTurk/v2_DepthDuration_HTML.html#131,131,1366,768,1366,768,8-22-2022,8-17-40,74,depth_duration_stimuli/001555_2014-06-20_17-12-10_260595134347_rgbf000065-resize_4/001555_2014-06-20_17-12-10_260595134347_rgbf000065-resize_4-target.png,1000,1.633,3.0,3101,959,meters,jsons/v1_VE1000_randls_49_rotated.json,806552,964368,56,Man
74,945121,DepthScenes,duration_manipulation_targetAtFixation,jsons/v1_VE1000_randls_49_rotated.json,http://54.235.29.9/FacialAge/BNav_EC2/DepthDuration/v2_depth_duration_MTurk/v2_DepthDuration_HTML.html#131,131,1366,768,1366,768,8-22-2022,8-17-40,75,depth_duration_stimuli/000549_2014-06-08_22-10-24_260595134347_rgbf000247-resize_3/000549_2014-06-08_22-10-24_260595134347_rgbf000247-resize_3-target.png,1000,1.841,5.0,3580,981,meters,jsons/v1_VE1000_randls_49_rotated.json,806552,964368,56,Man
75,945121,DepthScenes,duration_manipulation_targetAtFixation,jsons/v1_VE1000_randls_49_rotated.json,http://54.235.29.9/FacialAge/BNav_EC2/DepthDuration/v2_depth_duration_MTurk/v2_DepthDuration_HTML.html#131,131,1366,768,1366,768,8-22-2022,8-17-40,76,depth_duration_stimuli/001055_2014-06-08_18-45-35_260595134347_rgbf000111-resize_4/001055_2014-06-08_18-45-35_260595134347_rgbf000111-resize_4-target.png,1000,2.4290000000000003,32.0,4599,985,meters,jsons/v1_VE1000_randls_49_rotated.json,806552,964368,56,Man
76,945121,DepthScenes,duration_manipulation_targetAtFixation,jsons/v1_VE1000_randls_49_rotated.json,http://54.235.29.9/FacialAge/BNav_EC2/DepthDuration/v2_depth_duration_MTurk/v2_DepthDuration_HTML.html#131,131,1366,768,1366,768,8-22-2022,8-17-40,77,depth_duration_stimuli/002637_2014-06-24_14-51-13_094959634447_rgbf000066-resize_4/002637_2014-06-24_14-51-13_094959634447_rgbf000066-resize_4-target.png,1000,1.9955,53.0,7453,1015,meters,jsons/v1_VE1000_randls_49_rotated.json,806552,964368,56,Man
77,945121,DepthScenes,duration_manipulation_targetAtFixation,jsons/v1_VE1000_randls_49_rotated.json,http://54.235.29.9/FacialAge/BNav_EC2/DepthDuration/v2_depth_duration_MTurk/v2_DepthDuration_HTML.html#131,131,1366,768,1366,768,8-22-2022,8-17-40,78,depth_duration_stimuli/003534_2014-05-22_15-06-10_094959634447_rgbf000102-resize_4/003534_2014-05-22_15-06-10_094959634447_rgbf000102-resize_4-target.png,1000,1.426,5.0,3165,1000,meters,jsons/v1_VE1000_randls_49_rotated.json,806552,964368,56,Man
78,945121,DepthScenes,duration_manipulation_targetAtFixation,jsons/v1_VE1000_randls_49_rotated.json,http://54.235.29.9/FacialAge/BNav_EC2/DepthDuration/v2_depth_duration_MTurk/v2_DepthDuration_HTML.html#131,131,1366,768,1366,768,8-22-2022,8-17-40,79,depth_duration_stimuli/000734_2014-06-08_17-39-11_260595134347_rgbf000128-resize_2/000734_2014-06-08_17-39-11_260595134347_rgbf000128-resize_2-target.png,1000,4.098,1.0,3495,1005,meters,jsons/v1_VE1000_randls_49_rotated.json,806552,964368,56,Man
79,945121,DepthScenes,duration_manipulation_targetAtFixation,jsons/v1_VE1000_randls_49_rotated.json,http://54.235.29.9/FacialAge/BNav_EC2/DepthDuration/v2_depth_duration_MTurk/v2_DepthDuration_HTML.html#131,131,1366,768,1366,768,8-22-2022,8-17-40,80,depth_duration_stimuli/000739_2014-06-08_18-45-58_260595134347_rgbf000068-resize_1/000739_2014-06-08_18-45-58_260595134347_rgbf000068-resize_1-target.png,1000,3.534,2.0,3430,1005,meters,jsons/v1_VE1000_randls_49_rotated.json,806552,964368,56,Man
80,945121,DepthScenes,duration_manipulation_targetAtFixation,jsons/v1_VE1000_randls_49_rotated.json,http://54.235.29.9/FacialAge/BNav_EC2/DepthDuration/v2_depth_duration_MTurk/v2_DepthDuration_HTML.html#131,131,1366,768,1366,768,8-22-2022,8-17-40,81,depth_duration_stimuli/000943_2014-06-09_19-31-07_260595134347_rgbf000128-resize_1/000943_2014-06-09_19-31-07_260595134347_rgbf000128-resize_1-target.png,1000,1.9765,4.0,3353,945,meters,jsons/v1_VE1000_randls_49_rotated.json,806552,964368,56,Man
81,945121,DepthScenes,duration_manipulation_targetAtFixation,jsons/v1_VE1000_randls_49_rotated.json,http://54.235.29.9/FacialAge/BNav_EC2/DepthDuration/v2_depth_duration_MTurk/v2_DepthDuration_HTML.html#131,131,1366,768,1366,768,8-22-2022,8-17-40,82,depth_duration_stimuli/003070_2014-06-15_14-58-27_094959634447_rgbf000150-resize_3/003070_2014-06-15_14-58-27_094959634447_rgbf000150-resize_3-target.png,1000,2.9415,5.0,3266,997,meters,jsons/v1_VE1000_randls_49_rotated.json,806552,964368,56,Man
82,945121,DepthScenes,duration_manipulation_targetAtFixation,jsons/v1_VE1000_randls_49_rotated.json,http://54.235.29.9/FacialAge/BNav_EC2/DepthDuration/v2_depth_duration_MTurk/v2_DepthDuration_HTML.html#131,131,1366,768,1366,768,8-22-2022,8-17-40,83,depth_duration_stimuli/002805_2014-06-22_19-54-03_094959634447_rgbf000079-resize_1/002805_2014-06-22_19-54-03_094959634447_rgbf000079-resize_1-target.png,1000,3.1439999999999997,3.0,3399,1003,meters,jsons/v1_VE1000_randls_49_rotated.json,806552,964368,56,Man
83,945121,DepthScenes,duration_manipulation_targetAtFixation,jsons/v1_VE1000_randls_49_rotated.json,http://54.235.29.9/FacialAge/BNav_EC2/DepthDuration/v2_depth_duration_MTurk/v2_DepthDuration_HTML.html#131,131,1366,768,1366,768,8-22-2022,8-17-40,84,depth_duration_stimuli/000906_2014-06-08_13-35-43_260595134347_rgbf000155-resize_1/000906_2014-06-08_13-35-43_260595134347_rgbf000155-resize_1-target.png,1000,2.8489999999999998,6.0,3580,986,meters,jsons/v1_VE1000_randls_49_rotated.json,806552,964368,56,Man
84,945121,DepthScenes,duration_manipulation_targetAtFixation,jsons/v1_VE1000_randls_49_rotated.json,http://54.235.29.9/FacialAge/BNav_EC2/DepthDuration/v2_depth_duration_MTurk/v2_DepthDuration_HTML.html#131,131,1366,768,1366,768,8-22-2022,8-17-40,85,depth_duration_stimuli/002136_2014-06-25_21-18-03_260595134347_rgbf000109-resize_3/002136_2014-06-25_21-18-03_260595134347_rgbf000109-resize_3-target.png,1000,1.9569999999999999,2.0,3789,1044,meters,jsons/v1_VE1000_randls_49_rotated.json,806552,964368,56,Man
85,945121,DepthScenes,duration_manipulation_targetAtFixation,jsons/v1_VE1000_randls_49_rotated.json,http://54.235.29.9/FacialAge/BNav_EC2/DepthDuration/v2_depth_duration_MTurk/v2_DepthDuration_HTML.html#131,131,1366,768,1366,768,8-22-2022,8-17-40,86,depth_duration_stimuli/002964_2014-06-08_17-46-11_094959634447_rgbf000091-resize_4/002964_2014-06-08_17-46-11_094959634447_rgbf000091-resize_4-target.png,1000,1.6909999999999998,5.0,3382,991,meters,jsons/v1_VE1000_randls_49_rotated.json,806552,964368,56,Man
86,945121,DepthScenes,duration_manipulation_targetAtFixation,jsons/v1_VE1000_randls_49_rotated.json,http://54.235.29.9/FacialAge/BNav_EC2/DepthDuration/v2_depth_duration_MTurk/v2_DepthDuration_HTML.html#131,131,1366,768,1366,768,8-22-2022,8-17-40,87,depth_duration_stimuli/002467_2014-06-28_20-38-07_260595134347_rgbf000026-resize_2/002467_2014-06-28_20-38-07_260595134347_rgbf000026-resize_2-target.png,1000,4.742,4.0,3443,1004,meters,jsons/v1_VE1000_randls_49_rotated.json,806552,964368,56,Man
87,945121,DepthScenes,duration_manipulation_targetAtFixation,jsons/v1_VE1000_randls_49_rotated.json,http://54.235.29.9/FacialAge/BNav_EC2/DepthDuration/v2_depth_duration_MTurk/v2_DepthDuration_HTML.html#131,131,1366,768,1366,768,8-22-2022,8-17-40,88,depth_duration_stimuli/002570_2014-06-24_13-59-54_094959634447_rgbf000059-resize_0/002570_2014-06-24_13-59-54_094959634447_rgbf000059-resize_0-target.png,1000,4.037,5.0,3304,990,meters,jsons/v1_VE1000_randls_49_rotated.json,806552,964368,56,Man
88,945121,DepthScenes,duration_manipulation_targetAtFixation,jsons/v1_VE1000_randls_49_rotated.json,http://54.235.29.9/FacialAge/BNav_EC2/DepthDuration/v2_depth_duration_MTurk/v2_DepthDuration_HTML.html#131,131,1366,768,1366,768,8-22-2022,8-17-40,89,depth_duration_stimuli/001136_2014-06-17_15-19-41_260595134347_rgbf000076-resize_3/001136_2014-06-17_15-19-41_260595134347_rgbf000076-resize_3-target.png,1000,1.8655,63.0,6778,999,meters,jsons/v1_VE1000_randls_49_rotated.json,806552,964368,56,Man
89,945121,DepthScenes,duration_manipulation_targetAtFixation,jsons/v1_VE1000_randls_49_rotated.json,http://54.235.29.9/FacialAge/BNav_EC2/DepthDuration/v2_depth_duration_MTurk/v2_DepthDuration_HTML.html#131,131,1366,768,1366,768,8-22-2022,8-17-40,90,depth_duration_stimuli/001164_2014-06-17_15-35-46_260595134347_rgbf000085-resize_3/001164_2014-06-17_15-35-46_260595134347_rgbf000085-resize_3-target.png,1000,2.354,5.0,6924,1001,meters,jsons/v1_VE1000_randls_49_rotated.json,806552,964368,56,Man
90,945121,DepthScenes,duration_manipulation_targetAtFixation,jsons/v1_VE1000_randls_49_rotated.json,http://54.235.29.9/FacialAge/BNav_EC2/DepthDuration/v2_depth_duration_MTurk/v2_DepthDuration_HTML.html#131,131,1366,768,1366,768,8-22-2022,8-17-40,91,depth_duration_stimuli/003129_2014-05-12_10-48-10_094959634447_rgbf000100-resize_0/003129_2014-05-12_10-48-10_094959634447_rgbf000100-resize_0-target.png,1000,4.9305,6.0,3657,1011,meters,jsons/v1_VE1000_randls_49_rotated.json,806552,964368,56,Man
91,945121,DepthScenes,duration_manipulation_targetAtFixation,jsons/v1_VE1000_randls_49_rotated.json,http://54.235.29.9/FacialAge/BNav_EC2/DepthDuration/v2_depth_duration_MTurk/v2_DepthDuration_HTML.html#131,131,1366,768,1366,768,8-22-2022,8-17-40,92,depth_duration_stimuli/000414_2014-06-04_19-49-13_260595134347_rgbf000044-resize_0/000414_2014-06-04_19-49-13_260595134347_rgbf000044-resize_0-target.png,1000,4.329,1.0,5347,1006,meters,jsons/v1_VE1000_randls_49_rotated.json,806552,964368,56,Man
92,945121,DepthScenes,duration_manipulation_targetAtFixation,jsons/v1_VE1000_randls_49_rotated.json,http://54.235.29.9/FacialAge/BNav_EC2/DepthDuration/v2_depth_duration_MTurk/v2_DepthDuration_HTML.html#131,131,1366,768,1366,768,8-22-2022,8-17-40,93,depth_duration_stimuli/002103_2014-06-25_20-00-40_260595134347_rgbf000049-resize_0/002103_2014-06-25_20-00-40_260595134347_rgbf000049-resize_0-target.png,1000,4.105,6.0,4841,998,meters,jsons/v1_VE1000_randls_49_rotated.json,806552,964368,56,Man
93,945121,DepthScenes,duration_manipulation_targetAtFixation,jsons/v1_VE1000_randls_49_rotated.json,http://54.235.29.9/FacialAge/BNav_EC2/DepthDuration/v2_depth_duration_MTurk/v2_DepthDuration_HTML.html#131,131,1366,768,1366,768,8-22-2022,8-17-40,94,depth_duration_stimuli/002039_2014-06-24_20-22-38_260595134347_rgbf000084-resize_1/002039_2014-06-24_20-22-38_260595134347_rgbf000084-resize_1-target.png,1000,4.408,2.0,3230,993,meters,jsons/v1_VE1000_randls_49_rotated.json,806552,964368,56,Man
94,945121,DepthScenes,duration_manipulation_targetAtFixation,jsons/v1_VE1000_randls_49_rotated.json,http://54.235.29.9/FacialAge/BNav_EC2/DepthDuration/v2_depth_duration_MTurk/v2_DepthDuration_HTML.html#131,131,1366,768,1366,768,8-22-2022,8-17-40,95,depth_duration_stimuli/001132_2014-06-17_14-48-54_260595134347_rgbf000100-resize_2/001132_2014-06-17_14-48-54_260595134347_rgbf000100-resize_2-target.png,1000,3.753,5.0,3343,998,meters,jsons/v1_VE1000_randls_49_rotated.json,806552,964368,56,Man
95,945121,DepthScenes,duration_manipulation_targetAtFixation,jsons/v1_VE1000_randls_49_rotated.json,http://54.235.29.9/FacialAge/BNav_EC2/DepthDuration/v2_depth_duration_MTurk/v2_DepthDuration_HTML.html#131,131,1366,768,1366,768,8-22-2022,8-17-40,96,depth_duration_stimuli/001133_2014-06-17_14-49-16_260595134347_rgbf000100-resize_0/001133_2014-06-17_14-49-16_260595134347_rgbf000100-resize_0-target.png,1000,4.2115,3.0,4545,983,meters,jsons/v1_VE1000_randls_49_rotated.json,806552,964368,56,Man
96,945121,DepthScenes,duration_manipulation_targetAtFixation,jsons/v1_VE1000_randls_49_rotated.json,http://54.235.29.9/FacialAge/BNav_EC2/DepthDuration/v2_depth_duration_MTurk/v2_DepthDuration_HTML.html#131,131,1366,768,1366,768,8-22-2022,8-17-40,97,depth_duration_stimuli/002657_2014-06-13_15-29-54_094959634447_rgbf000150-resize_1/002657_2014-06-13_15-29-54_094959634447_rgbf000150-resize_1-target.png,1000,4.919,4.0,4803,1009,meters,jsons/v1_VE1000_randls_49_rotated.json,806552,964368,56,Man
97,945121,DepthScenes,duration_manipulation_targetAtFixation,jsons/v1_VE1000_randls_49_rotated.json,http://54.235.29.9/FacialAge/BNav_EC2/DepthDuration/v2_depth_duration_MTurk/v2_DepthDuration_HTML.html#131,131,1366,768,1366,768,8-22-2022,8-17-40,98,depth_duration_stimuli/002375_2014-06-28_20-13-44_260595134347_rgbf000032-resize_1/002375_2014-06-28_20-13-44_260595134347_rgbf000032-resize_1-target.png,1000,4.0175,6.0,3919,1011,meters,jsons/v1_VE1000_randls_49_rotated.json,806552,964368,56,Man
98,945121,DepthScenes,duration_manipulation_targetAtFixation,jsons/v1_VE1000_randls_49_rotated.json,http://54.235.29.9/FacialAge/BNav_EC2/DepthDuration/v2_depth_duration_MTurk/v2_DepthDuration_HTML.html#131,131,1366,768,1366,768,8-22-2022,8-17-40,99,depth_duration_stimuli/001222_2014-06-17_16-24-06_260595134347_rgbf000073-resize_0/001222_2014-06-17_16-24-06_260595134347_rgbf000073-resize-original.jpg,1000,1.4385,7.0,3764,1002,meters,jsons/v1_VE1000_randls_49_rotated.json,806552,964368,56,Man
99,945121,DepthScenes,duration_manipulation_targetAtFixation,jsons/v1_VE1000_randls_49_rotated.json,http://54.235.29.9/FacialAge/BNav_EC2/DepthDuration/v2_depth_duration_MTurk/v2_DepthDuration_HTML.html#131,131,1366,768,1366,768,8-22-2022,8-17-40,100,depth_duration_stimuli/000749_2014-06-08_21-55-06_260595134347_rgbf000070-resize_2/000749_2014-06-08_21-55-06_260595134347_rgbf000070-resize_2-target.png,1000,2.331,2.0,3213,998,meters,jsons/v1_VE1000_randls_49_rotated.json,806552,964368,56,Man
100,945121,DepthScenes,duration_manipulation_targetAtFixation,jsons/v1_VE1000_randls_49_rotated.json,http://54.235.29.9/FacialAge/BNav_EC2/DepthDuration/v2_depth_duration_MTurk/v2_DepthDuration_HTML.html#131,131,1366,768,1366,768,8-22-2022,8-17-40,101,depth_duration_stimuli/002788_2014-06-22_19-36-03_094959634447_rgbf000088-resize_2/002788_2014-06-22_19-36-03_094959634447_rgbf000088-resize_2-target.png,1000,1.6465,6.0,3412,995,meters,jsons/v1_VE1000_randls_49_rotated.json,806552,964368,56,Man
101,945121,DepthScenes,duration_manipulation_targetAtFixation,jsons/v1_VE1000_randls_49_rotated.json,http://54.235.29.9/FacialAge/BNav_EC2/DepthDuration/v2_depth_duration_MTurk/v2_DepthDuration_HTML.html#131,131,1366,768,1366,768,8-22-2022,8-17-40,102,depth_duration_stimuli/003083_2014-06-15_15-21-03_094959634447_rgbf000063-resize_1/003083_2014-06-15_15-21-03_094959634447_rgbf000063-resize_1-target.png,1000,4.1405,3.0,3758,995,meters,jsons/v1_VE1000_randls_49_rotated.json,806552,964368,56,Man
102,945121,DepthScenes,duration_manipulation_targetAtFixation,jsons/v1_VE1000_randls_49_rotated.json,http://54.235.29.9/FacialAge/BNav_EC2/DepthDuration/v2_depth_duration_MTurk/v2_DepthDuration_HTML.html#131,131,1366,768,1366,768,8-22-2022,8-17-40,103,depth_duration_stimuli/000486_2014-06-09_20-47-20_260595134347_rgbf000143-resize_2/000486_2014-06-09_20-47-20_260595134347_rgbf000143-resize_2-target.png,1000,4.8325,5.0,3439,1000,meters,jsons/v1_VE1000_randls_49_rotated.json,806552,964368,56,Man
103,945121,DepthScenes,duration_manipulation_targetAtFixation,jsons/v1_VE1000_randls_49_rotated.json,http://54.235.29.9/FacialAge/BNav_EC2/DepthDuration/v2_depth_duration_MTurk/v2_DepthDuration_HTML.html#131,131,1366,768,1366,768,8-22-2022,8-17-40,104,depth_duration_stimuli/000866_2014-06-09_20-45-42_260595134347_rgbf000139-resize_1/000866_2014-06-09_20-45-42_260595134347_rgbf000139-resize_1-target.png,1000,3.2155,9.0,3557,1016,meters,jsons/v1_VE1000_randls_49_rotated.json,806552,964368,56,Man
104,945121,DepthScenes,duration_manipulation_targetAtFixation,jsons/v1_VE1000_randls_49_rotated.json,http://54.235.29.9/FacialAge/BNav_EC2/DepthDuration/v2_depth_duration_MTurk/v2_DepthDuration_HTML.html#131,131,1366,768,1366,768,8-22-2022,8-17-40,105,depth_duration_stimuli/002989_2014-06-15_12-25-03_094959634447_rgbf000150-resize_3/002989_2014-06-15_12-25-03_094959634447_rgbf000150-resize_3-target.png,1000,4.1975,3.0,3519,1000,meters,jsons/v1_VE1000_randls_49_rotated.json,806552,964368,56,Man
105,945121,DepthScenes,duration_manipulation_targetAtFixation,jsons/v1_VE1000_randls_49_rotated.json,http://54.235.29.9/FacialAge/BNav_EC2/DepthDuration/v2_depth_duration_MTurk/v2_DepthDuration_HTML.html#131,131,1366,768,1366,768,8-22-2022,8-17-40,106,depth_duration_stimuli/003048_2014-06-15_13-49-43_094959634447_rgbf000150-resize_1/003048_2014-06-15_13-49-43_094959634447_rgbf000150-resize_1-target.png,1000,4.0035,6.0,3380,1001,meters,jsons/v1_VE1000_randls_49_rotated.json,806552,964368,56,Man
106,945121,DepthScenes,duration_manipulation_targetAtFixation,jsons/v1_VE1000_randls_49_rotated.json,http://54.235.29.9/FacialAge/BNav_EC2/DepthDuration/v2_depth_duration_MTurk/v2_DepthDuration_HTML.html#131,131,1366,768,1366,768,8-22-2022,8-17-40,107,depth_duration_stimuli/002043_2014-06-24_20-29-38_260595134347_rgbf000039-resize_4/002043_2014-06-24_20-29-38_260595134347_rgbf000039-resize_4-target.png,1000,2.8435,5.0,3430,990,meters,jsons/v1_VE1000_randls_49_rotated.json,806552,964368,56,Man
107,945121,DepthScenes,duration_manipulation_targetAtFixation,jsons/v1_VE1000_randls_49_rotated.json,http://54.235.29.9/FacialAge/BNav_EC2/DepthDuration/v2_depth_duration_MTurk/v2_DepthDuration_HTML.html#131,131,1366,768,1366,768,8-22-2022,8-17-40,108,depth_duration_stimuli/000556_2014-06-09_22-42-56_260595134347_rgbf000214-resize_1/000556_2014-06-09_22-42-56_260595134347_rgbf000214-resize_1-target.png,1000,4.8415,85.0,3371,1008,meters,jsons/v1_VE1000_randls_49_rotated.json,806552,964368,56,Man
108,945121,DepthScenes,duration_manipulation_targetAtFixation,jsons/v1_VE1000_randls_49_rotated.json,http://54.235.29.9/FacialAge/BNav_EC2/DepthDuration/v2_depth_duration_MTurk/v2_DepthDuration_HTML.html#131,131,1366,768,1366,768,8-22-2022,8-17-40,109,depth_duration_stimuli/001158_2014-06-17_15-32-16_260595134347_rgbf000138-resize_2/001158_2014-06-17_15-32-16_260595134347_rgbf000138-resize_2-target.png,1000,4.5315,4.0,3328,1050,meters,jsons/v1_VE1000_randls_49_rotated.json,806552,964368,56,Man
109,945121,DepthScenes,duration_manipulation_targetAtFixation,jsons/v1_VE1000_randls_49_rotated.json,http://54.235.29.9/FacialAge/BNav_EC2/DepthDuration/v2_depth_duration_MTurk/v2_DepthDuration_HTML.html#131,131,1366,768,1366,768,8-22-2022,8-17-40,110,depth_duration_stimuli/001828_2014-06-26_21-40-03_260595134347_rgbf000024-resize_0/001828_2014-06-26_21-40-03_260595134347_rgbf000024-resize_0-target.png,1000,4.8260000000000005,6.0,3250,997,meters,jsons/v1_VE1000_randls_49_rotated.json,806552,964368,56,Man
110,945121,DepthScenes,duration_manipulation_targetAtFixation,jsons/v1_VE1000_randls_49_rotated.json,http://54.235.29.9/FacialAge/BNav_EC2/DepthDuration/v2_depth_duration_MTurk/v2_DepthDuration_HTML.html#131,131,1366,768,1366,768,8-22-2022,8-17-40,111,depth_duration_stimuli/000009_2014-05-26_14-32-05_260595134347_rgbf000034-resize_3/000009_2014-05-26_14-32-05_260595134347_rgbf000034-resize_3-target.png,1000,3.8715,5.0,3972,972,meters,jsons/v1_VE1000_randls_49_rotated.json,806552,964368,56,Man
111,945121,DepthScenes,duration_manipulation_targetAtFixation,jsons/v1_VE1000_randls_49_rotated.json,http://54.235.29.9/FacialAge/BNav_EC2/DepthDuration/v2_depth_duration_MTurk/v2_DepthDuration_HTML.html#131,131,1366,768,1366,768,8-22-2022,8-17-40,112,depth_duration_stimuli/003079_2014-06-15_15-18-20_094959634447_rgbf000152-resize_8/003079_2014-06-15_15-18-20_094959634447_rgbf000152-resize_8-target.png,1000,2.8775,3.0,3360,1001,meters,jsons/v1_VE1000_randls_49_rotated.json,806552,964368,56,Man
112,945121,DepthScenes,duration_manipulation_targetAtFixation,jsons/v1_VE1000_randls_49_rotated.json,http://54.235.29.9/FacialAge/BNav_EC2/DepthDuration/v2_depth_duration_MTurk/v2_DepthDuration_HTML.html#131,131,1366,768,1366,768,8-22-2022,8-17-40,113,depth_duration_stimuli/000506_2014-06-08_23-21-00_260595134347_rgbf000070-resize_7/000506_2014-06-08_23-21-00_260595134347_rgbf000070-resize_7-target.png,1000,4.0585,6.0,3374,964,meters,jsons/v1_VE1000_randls_49_rotated.json,806552,964368,56,Man
113,945121,DepthScenes,duration_manipulation_targetAtFixation,jsons/v1_VE1000_randls_49_rotated.json,http://54.235.29.9/FacialAge/BNav_EC2/DepthDuration/v2_depth_duration_MTurk/v2_DepthDuration_HTML.html#131,131,1366,768,1366,768,8-22-2022,8-17-40,114,depth_duration_stimuli/000677_2014-06-08_23-10-32_260595134347_rgbf000158-resize_6/000677_2014-06-08_23-10-32_260595134347_rgbf000158-resize_6-target.png,1000,3.556,5.0,3469,1005,meters,jsons/v1_VE1000_randls_49_rotated.json,806552,964368,56,Man
114,945121,DepthScenes,duration_manipulation_targetAtFixation,jsons/v1_VE1000_randls_49_rotated.json,http://54.235.29.9/FacialAge/BNav_EC2/DepthDuration/v2_depth_duration_MTurk/v2_DepthDuration_HTML.html#131,131,1366,768,1366,768,8-22-2022,8-17-40,115,depth_duration_stimuli/001029_2014-06-08_13-17-57_260595134347_rgbf000065-resize_1/001029_2014-06-08_13-17-57_260595134347_rgbf000065-resize_1-target.png,1000,3.0835,6.0,4247,1003,meters,jsons/v1_VE1000_randls_49_rotated.json,806552,964368,56,Man
115,945121,DepthScenes,duration_manipulation_targetAtFixation,jsons/v1_VE1000_randls_49_rotated.json,http://54.235.29.9/FacialAge/BNav_EC2/DepthDuration/v2_depth_duration_MTurk/v2_DepthDuration_HTML.html#131,131,1366,768,1366,768,8-22-2022,8-17-40,116,depth_duration_stimuli/003423_2014-05-21_10-23-26_094959634447_rgbf002665-resize_2/003423_2014-05-21_10-23-26_094959634447_rgbf002665-resize_2-target.png,1000,3.2575,2.0,3453,1004,meters,jsons/v1_VE1000_randls_49_rotated.json,806552,964368,56,Man
116,945121,DepthScenes,duration_manipulation_targetAtFixation,jsons/v1_VE1000_randls_49_rotated.json,http://54.235.29.9/FacialAge/BNav_EC2/DepthDuration/v2_depth_duration_MTurk/v2_DepthDuration_HTML.html#131,131,1366,768,1366,768,8-22-2022,8-17-40,117,depth_duration_stimuli/002905_2014-06-03_18-04-43_094959634447_rgbf000151-resize_2/002905_2014-06-03_18-04-43_094959634447_rgbf000151-resize_2-target.png,1000,2.0295,5.0,3299,1001,meters,jsons/v1_VE1000_randls_49_rotated.json,806552,964368,56,Man
117,945121,DepthScenes,duration_manipulation_targetAtFixation,jsons/v1_VE1000_randls_49_rotated.json,http://54.235.29.9/FacialAge/BNav_EC2/DepthDuration/v2_depth_duration_MTurk/v2_DepthDuration_HTML.html#131,131,1366,768,1366,768,8-22-2022,8-17-40,118,depth_duration_stimuli/003587_2014-05-23_16-48-02_094959634447_rgbf002384-resize_2/003587_2014-05-23_16-48-02_094959634447_rgbf002384-resize_2-target.png,1000,1.357,6.0,6007,999,meters,jsons/v1_VE1000_randls_49_rotated.json,806552,964368,56,Man
118,945121,DepthScenes,duration_manipulation_targetAtFixation,jsons/v1_VE1000_randls_49_rotated.json,http://54.235.29.9/FacialAge/BNav_EC2/DepthDuration/v2_depth_duration_MTurk/v2_DepthDuration_HTML.html#131,131,1366,768,1366,768,8-22-2022,8-17-40,119,depth_duration_stimuli/001167_2014-06-17_15-38-07_260595134347_rgbf000108-resize_0/001167_2014-06-17_15-38-07_260595134347_rgbf000108-resize_0-target.png,1000,1.8505,5.0,3700,1009,meters,jsons/v1_VE1000_randls_49_rotated.json,806552,964368,56,Man
119,945121,DepthScenes,duration_manipulation_targetAtFixation,jsons/v1_VE1000_randls_49_rotated.json,http://54.235.29.9/FacialAge/BNav_EC2/DepthDuration/v2_depth_duration_MTurk/v2_DepthDuration_HTML.html#131,131,1366,768,1366,768,8-22-2022,8-17-40,120,depth_duration_stimuli/000787_2014-06-08_22-33-53_260595134347_rgbf000175-resize_1/000787_2014-06-08_22-33-53_260595134347_rgbf000175-resize-original.jpg,1000,4.784,5.0,3497,934,meters,jsons/v1_VE1000_randls_49_rotated.json,806552,964368,56,Man
120,945121,DepthScenes,duration_manipulation_targetAtFixation,jsons/v1_VE1000_randls_49_rotated.json,http://54.235.29.9/FacialAge/BNav_EC2/DepthDuration/v2_depth_duration_MTurk/v2_DepthDuration_HTML.html#131,131,1366,768,1366,768,8-22-2022,8-17-40,121,depth_duration_stimuli/001100_2014-06-15_17-46-26_260595134347_rgbf000225-resize_2/001100_2014-06-15_17-46-26_260595134347_rgbf000225-resize_2-target.png,1000,2.24,6.0,3344,1005,meters,jsons/v1_VE1000_randls_49_rotated.json,806552,964368,56,Man
121,945121,DepthScenes,duration_manipulation_targetAtFixation,jsons/v1_VE1000_randls_49_rotated.json,http://54.235.29.9/FacialAge/BNav_EC2/DepthDuration/v2_depth_duration_MTurk/v2_DepthDuration_HTML.html#131,131,1366,768,1366,768,8-22-2022,8-17-40,122,depth_duration_stimuli/002784_2014-06-22_19-26-30_094959634447_rgbf000083-resize_3/002784_2014-06-22_19-26-30_094959634447_rgbf000083-resize_3-target.png,1000,1.8046666666667,2.0,3367,1001,meters,jsons/v1_VE1000_randls_49_rotated.json,806552,964368,56,Man
122,945121,DepthScenes,duration_manipulation_targetAtFixation,jsons/v1_VE1000_randls_49_rotated.json,http://54.235.29.9/FacialAge/BNav_EC2/DepthDuration/v2_depth_duration_MTurk/v2_DepthDuration_HTML.html#131,131,1366,768,1366,768,8-22-2022,8-17-40,123,depth_duration_stimuli/003338_2014-05-20_11-01-23_094959634447_rgbf000051-resize_6/003338_2014-05-20_11-01-23_094959634447_rgbf000051-resize_6-target.png,1000,1.693,4.0,3200,1008,meters,jsons/v1_VE1000_randls_49_rotated.json,806552,964368,56,Man
123,945121,DepthScenes,duration_manipulation_targetAtFixation,jsons/v1_VE1000_randls_49_rotated.json,http://54.235.29.9/FacialAge/BNav_EC2/DepthDuration/v2_depth_duration_MTurk/v2_DepthDuration_HTML.html#131,131,1366,768,1366,768,8-22-2022,8-17-40,124,depth_duration_stimuli/002509_2014-06-24_13-19-22_094959634447_rgbf000077-resize_0/002509_2014-06-24_13-19-22_094959634447_rgbf000077-resize_0-target.png,1000,1.3065,6.0,3098,955,meters,jsons/v1_VE1000_randls_49_rotated.json,806552,964368,56,Man
124,945121,DepthScenes,duration_manipulation_targetAtFixation,jsons/v1_VE1000_randls_49_rotated.json,http://54.235.29.9/FacialAge/BNav_EC2/DepthDuration/v2_depth_duration_MTurk/v2_DepthDuration_HTML.html#131,131,1366,768,1366,768,8-22-2022,8-17-40,125,depth_duration_stimuli/000502_2014-06-08_23-02-32_260595134347_rgbf000063-resize_4/000502_2014-06-08_23-02-32_260595134347_rgbf000063-resize_4-target.png,1000,2.431,2.0,3229,995,meters,jsons/v1_VE1000_randls_49_rotated.json,806552,964368,56,Man
125,945121,DepthScenes,duration_manipulation_targetAtFixation,jsons/v1_VE1000_randls_49_rotated.json,http://54.235.29.9/FacialAge/BNav_EC2/DepthDuration/v2_depth_duration_MTurk/v2_DepthDuration_HTML.html#131,131,1366,768,1366,768,8-22-2022,8-17-40,126,depth_duration_stimuli/001199_2014-06-17_16-03-48_260595134347_rgbf000077-resize_0/001199_2014-06-17_16-03-48_260595134347_rgbf000077-resize_0-target.png,1000,3.4375,3.0,5164,996,meters,jsons/v1_VE1000_randls_49_rotated.json,806552,964368,56,Man
126,945121,DepthScenes,duration_manipulation_targetAtFixation,jsons/v1_VE1000_randls_49_rotated.json,http://54.235.29.9/FacialAge/BNav_EC2/DepthDuration/v2_depth_duration_MTurk/v2_DepthDuration_HTML.html#131,131,1366,768,1366,768,8-22-2022,8-17-40,127,depth_duration_stimuli/000483_2014-06-09_20-41-45_260595134347_rgbf000116-resize_4/000483_2014-06-09_20-41-45_260595134347_rgbf000116-resize_4-target.png,1000,1.337,2.0,13736,996,meters,jsons/v1_VE1000_randls_49_rotated.json,806552,964368,56,Man
127,945121,DepthScenes,duration_manipulation_targetAtFixation,jsons/v1_VE1000_randls_49_rotated.json,http://54.235.29.9/FacialAge/BNav_EC2/DepthDuration/v2_depth_duration_MTurk/v2_DepthDuration_HTML.html#131,131,1366,768,1366,768,8-22-2022,8-17-40,128,depth_duration_stimuli/000469_2014-06-09_19-42-10_260595134347_rgbf000081-resize_1/000469_2014-06-09_19-42-10_260595134347_rgbf000081-resize_1-target.png,1000,1.652,5.0,4861,1041,meters,jsons/v1_VE1000_randls_49_rotated.json,806552,964368,56,Man
128,945121,DepthScenes,duration_manipulation_targetAtFixation,jsons/v1_VE1000_randls_49_rotated.json,http://54.235.29.9/FacialAge/BNav_EC2/DepthDuration/v2_depth_duration_MTurk/v2_DepthDuration_HTML.html#131,131,1366,768,1366,768,8-22-2022,8-17-40,129,depth_duration_stimuli/003490_2014-05-21_15-50-11_094959634447_rgbf000101-resize_3/003490_2014-05-21_15-50-11_094959634447_rgbf000101-resize_3-target.png,1000,3.6445,6.0,4173,1001,meters,jsons/v1_VE1000_randls_49_rotated.json,806552,964368,56,Man
129,945121,DepthScenes,duration_manipulation_targetAtFixation,jsons/v1_VE1000_randls_49_rotated.json,http://54.235.29.9/FacialAge/BNav_EC2/DepthDuration/v2_depth_duration_MTurk/v2_DepthDuration_HTML.html#131,131,1366,768,1366,768,8-22-2022,8-17-40,130,depth_duration_stimuli/001175_2014-06-17_15-45-55_260595134347_rgbf000129-resize_4/001175_2014-06-17_15-45-55_260595134347_rgbf000129-resize_4-target.png,1000,4.255,5.0,4455,988,meters,jsons/v1_VE1000_randls_49_rotated.json,806552,964368,56,Man
130,945121,DepthScenes,duration_manipulation_targetAtFixation,jsons/v1_VE1000_randls_49_rotated.json,http://54.235.29.9/FacialAge/BNav_EC2/DepthDuration/v2_depth_duration_MTurk/v2_DepthDuration_HTML.html#131,131,1366,768,1366,768,8-22-2022,8-17-40,131,depth_duration_stimuli/000109_2014-05-14_23-41-52_260595134347_rgbf000035-resize_9/000109_2014-05-14_23-41-52_260595134347_rgbf000035-resize_9-target.png,1000,1.3545,6.0,3922,1009,meters,jsons/v1_VE1000_randls_49_rotated.json,806552,964368,56,Man
131,945121,DepthScenes,duration_manipulation_targetAtFixation,jsons/v1_VE1000_randls_49_rotated.json,http://54.235.29.9/FacialAge/BNav_EC2/DepthDuration/v2_depth_duration_MTurk/v2_DepthDuration_HTML.html#131,131,1366,768,1366,768,8-22-2022,8-17-40,132,depth_duration_stimuli/000470_2014-06-09_19-42-40_260595134347_rgbf000094-resize_1/000470_2014-06-09_19-42-40_260595134347_rgbf000094-resize_1-target.png,1000,1.831,5.0,4215,914,meters,jsons/v1_VE1000_randls_49_rotated.json,806552,964368,56,Man
132,945121,DepthScenes,duration_manipulation_targetAtFixation,jsons/v1_VE1000_randls_49_rotated.json,http://54.235.29.9/FacialAge/BNav_EC2/DepthDuration/v2_depth_duration_MTurk/v2_DepthDuration_HTML.html#131,131,1366,768,1366,768,8-22-2022,8-17-40,133,depth_duration_stimuli/001094_2014-06-15_17-36-00_260595134347_rgbf000205-resize_0/001094_2014-06-15_17-36-00_260595134347_rgbf000205-resize_0-target.png,1000,4.2175,5.0,3814,990,meters,jsons/v1_VE1000_randls_49_rotated.json,806552,964368,56,Man
133,945121,DepthScenes,duration_manipulation_targetAtFixation,jsons/v1_VE1000_randls_49_rotated.json,http://54.235.29.9/FacialAge/BNav_EC2/DepthDuration/v2_depth_duration_MTurk/v2_DepthDuration_HTML.html#131,131,1366,768,1366,768,8-22-2022,8-17-40,134,depth_duration_stimuli/000692_2014-06-08_13-09-42_260595134347_rgbf000199-resize_2/000692_2014-06-08_13-09-42_260595134347_rgbf000199-resize_2-target.png,1000,3.661,3.0,14029,1001,meters,jsons/v1_VE1000_randls_49_rotated.json,806552,964368,56,Man
134,945121,DepthScenes,duration_manipulation_targetAtFixation,jsons/v1_VE1000_randls_49_rotated.json,http://54.235.29.9/FacialAge/BNav_EC2/DepthDuration/v2_depth_duration_MTurk/v2_DepthDuration_HTML.html#131,131,1366,768,1366,768,8-22-2022,8-17-40,135,depth_duration_stimuli/000375_2014-06-08_11-17-29_260595134347_rgbf000133-resize_2/000375_2014-06-08_11-17-29_260595134347_rgbf000133-resize-original.jpg,1000,4.718,5.0,7046,997,meters,jsons/v1_VE1000_randls_49_rotated.json,806552,964368,56,Man
135,945121,DepthScenes,duration_manipulation_targetAtFixation,jsons/v1_VE1000_randls_49_rotated.json,http://54.235.29.9/FacialAge/BNav_EC2/DepthDuration/v2_depth_duration_MTurk/v2_DepthDuration_HTML.html#131,131,1366,768,1366,768,8-22-2022,8-17-40,136,depth_duration_stimuli/001214_2014-06-17_16-13-55_260595134347_rgbf000111-resize_0/001214_2014-06-17_16-13-55_260595134347_rgbf000111-resize_0-target.png,1000,2.6505,6.0,4485,988,meters,jsons/v1_VE1000_randls_49_rotated.json,806552,964368,56,Man
136,945121,DepthScenes,duration_manipulation_targetAtFixation,jsons/v1_VE1000_randls_49_rotated.json,http://54.235.29.9/FacialAge/BNav_EC2/DepthDuration/v2_depth_duration_MTurk/v2_DepthDuration_HTML.html#131,131,1366,768,1366,768,8-22-2022,8-17-40,137,depth_duration_stimuli/000810_2014-06-08_17-20-01_260595134347_rgbf000105-resize_0/000810_2014-06-08_17-20-01_260595134347_rgbf000105-resize_0-target.png,1000,1.4865,7.0,3658,1009,meters,jsons/v1_VE1000_randls_49_rotated.json,806552,964368,56,Man
137,945121,DepthScenes,duration_manipulation_targetAtFixation,jsons/v1_VE1000_randls_49_rotated.json,http://54.235.29.9/FacialAge/BNav_EC2/DepthDuration/v2_depth_duration_MTurk/v2_DepthDuration_HTML.html#131,131,1366,768,1366,768,8-22-2022,8-17-40,138,depth_duration_stimuli/002209_2014-06-28_18-36-10_260595134347_rgbf000051-resize_1/002209_2014-06-28_18-36-10_260595134347_rgbf000051-resize_1-target.png,1000,2.057,5.0,4463,998,meters,jsons/v1_VE1000_randls_49_rotated.json,806552,964368,56,Man
138,945121,DepthScenes,duration_manipulation_targetAtFixation,jsons/v1_VE1000_randls_49_rotated.json,http://54.235.29.9/FacialAge/BNav_EC2/DepthDuration/v2_depth_duration_MTurk/v2_DepthDuration_HTML.html#131,131,1366,768,1366,768,8-22-2022,8-17-40,139,depth_duration_stimuli/002763_2014-06-22_19-13-10_094959634447_rgbf000075-resize_4/002763_2014-06-22_19-13-10_094959634447_rgbf000075-resize_4-target.png,1000,1.68375,8.0,43857,997,meters,jsons/v1_VE1000_randls_49_rotated.json,806552,964368,56,Man
139,945121,DepthScenes,duration_manipulation_targetAtFixation,jsons/v1_VE1000_randls_49_rotated.json,http://54.235.29.9/FacialAge/BNav_EC2/DepthDuration/v2_depth_duration_MTurk/v2_DepthDuration_HTML.html#131,131,1366,768,1366,768,8-22-2022,8-17-40,140,depth_duration_stimuli/000927_2014-06-09_16-32-30_260595134347_rgbf000123-resize_3/000927_2014-06-09_16-32-30_260595134347_rgbf000123-resize_3-target.png,1000,2.6785,6.0,4149,984,meters,jsons/v1_VE1000_randls_49_rotated.json,806552,964368,56,Man
140,945121,DepthScenes,duration_manipulation_targetAtFixation,jsons/v1_VE1000_randls_49_rotated.json,http://54.235.29.9/FacialAge/BNav_EC2/DepthDuration/v2_depth_duration_MTurk/v2_DepthDuration_HTML.html#131,131,1366,768,1366,768,8-22-2022,8-17-40,141,depth_duration_stimuli/001110_2014-06-15_17-25-28_260595134347_rgbf000150-resize_1/001110_2014-06-15_17-25-28_260595134347_rgbf000150-resize_1-target.png,1000,1.7115,6.0,48999,980,meters,jsons/v1_VE1000_randls_49_rotated.json,806552,964368,56,Man
141,945121,DepthScenes,duration_manipulation_targetAtFixation,jsons/v1_VE1000_randls_49_rotated.json,http://54.235.29.9/FacialAge/BNav_EC2/DepthDuration/v2_depth_duration_MTurk/v2_DepthDuration_HTML.html#131,131,1366,768,1366,768,8-22-2022,8-17-40,142,depth_duration_stimuli/003081_2014-06-15_15-19-16_094959634447_rgbf000150-resize_1/003081_2014-06-15_15-19-16_094959634447_rgbf000150-resize_1-target.png,1000,3.9125,2.0,3499,1096,meters,jsons/v1_VE1000_randls_49_rotated.json,806552,964368,56,Man
142,945121,DepthScenes,duration_manipulation_targetAtFixation,jsons/v1_VE1000_randls_49_rotated.json,http://54.235.29.9/FacialAge/BNav_EC2/DepthDuration/v2_depth_duration_MTurk/v2_DepthDuration_HTML.html#131,131,1366,768,1366,768,8-22-2022,8-17-40,143,depth_duration_stimuli/001417_2014-06-19_16-25-36_260595134347_rgbf000115-resize_5/001417_2014-06-19_16-25-36_260595134347_rgbf000115-resize_5-target.png,1000,4.6255,5.0,5465,1012,meters,jsons/v1_VE1000_randls_49_rotated.json,806552,964368,56,Man
143,945121,DepthScenes,duration_manipulation_targetAtFixation,jsons/v1_VE1000_randls_49_rotated.json,http://54.235.29.9/FacialAge/BNav_EC2/DepthDuration/v2_depth_duration_MTurk/v2_DepthDuration_HTML.html#131,131,1366,768,1366,768,8-22-2022,8-17-40,144,depth_duration_stimuli/003010_2014-06-15_12-54-35_094959634447_rgbf000112-resize_0/003010_2014-06-15_12-54-35_094959634447_rgbf000112-resize_0-target.png,1000,3.1185,4.0,3594,1013,meters,jsons/v1_VE1000_randls_49_rotated.json,806552,964368,56,Man
144,945121,DepthScenes,duration_manipulation_targetAtFixation,jsons/v1_VE1000_randls_49_rotated.json,http://54.235.29.9/FacialAge/BNav_EC2/DepthDuration/v2_depth_duration_MTurk/v2_DepthDuration_HTML.html#131,131,1366,768,1366,768,8-22-2022,8-17-40,145,depth_duration_stimuli/001810_2014-06-26_20-51-35_260595134347_rgbf000040-resize_3/001810_2014-06-26_20-51-35_260595134347_rgbf000040-resize_3-target.png,1000,2.2525,2.0,3126,960,meters,jsons/v1_VE1000_randls_49_rotated.json,806552,964368,56,Man
145,945121,DepthScenes,duration_manipulation_targetAtFixation,jsons/v1_VE1000_randls_49_rotated.json,http://54.235.29.9/FacialAge/BNav_EC2/DepthDuration/v2_depth_duration_MTurk/v2_DepthDuration_HTML.html#131,131,1366,768,1366,768,8-22-2022,8-17-40,146,depth_duration_stimuli/001617_2014-06-20_11-35-32_260595134347_rgbf000066-resize_1/001617_2014-06-20_11-35-32_260595134347_rgbf000066-resize_1-target.png,1000,3.7910000000000004,5.0,3262,888,meters,jsons/v1_VE1000_randls_49_rotated.json,806552,964368,56,Man
146,945121,DepthScenes,duration_manipulation_targetAtFixation,jsons/v1_VE1000_randls_49_rotated.json,http://54.235.29.9/FacialAge/BNav_EC2/DepthDuration/v2_depth_duration_MTurk/v2_DepthDuration_HTML.html#131,131,1366,768,1366,768,8-22-2022,8-17-40,147,depth_duration_stimuli/001806_2014-06-26_20-50-20_260595134347_rgbf000091-resize_1/001806_2014-06-26_20-50-20_260595134347_rgbf000091-resize_1-target.png,1000,2.7305,9.0,3076,1009,meters,jsons/v1_VE1000_randls_49_rotated.json,806552,964368,56,Man
147,945121,DepthScenes,duration_manipulation_targetAtFixation,jsons/v1_VE1000_randls_49_rotated.json,http://54.235.29.9/FacialAge/BNav_EC2/DepthDuration/v2_depth_duration_MTurk/v2_DepthDuration_HTML.html#131,131,1366,768,1366,768,8-22-2022,8-17-40,148,depth_duration_stimuli/001650_2014-06-20_12-09-00_260595134347_rgbf000087-resize_3/001650_2014-06-20_12-09-00_260595134347_rgbf000087-resize_3-target.png,1000,1.9505,4.0,3252,988,meters,jsons/v1_VE1000_randls_49_rotated.json,806552,964368,56,Man
148,945121,DepthScenes,duration_manipulation_targetAtFixation,jsons/v1_VE1000_randls_49_rotated.json,http://54.235.29.9/FacialAge/BNav_EC2/DepthDuration/v2_depth_duration_MTurk/v2_DepthDuration_HTML.html#131,131,1366,768,1366,768,8-22-2022,8-17-40,149,depth_duration_stimuli/000682_2014-06-08_23-14-58_260595134347_rgbf000041-resize_5/000682_2014-06-08_23-14-58_260595134347_rgbf000041-resize_5-target.png,1000,2.7239999999999998,2.0,3117,998,meters,jsons/v1_VE1000_randls_49_rotated.json,806552,964368,56,Man
149,945121,DepthScenes,duration_manipulation_targetAtFixation,jsons/v1_VE1000_randls_49_rotated.json,http://54.235.29.9/FacialAge/BNav_EC2/DepthDuration/v2_depth_duration_MTurk/v2_DepthDuration_HTML.html#131,131,1366,768,1366,768,8-22-2022,8-17-40,150,depth_duration_stimuli/002344_2014-06-28_20-06-29_260595134347_rgbf000030-resize_1/002344_2014-06-28_20-06-29_260595134347_rgbf000030-resize_1-target.png,1000,1.5795,5.0,3225,990,meters,jsons/v1_VE1000_randls_49_rotated.json,806552,964368,56,Man
150,945121,DepthScenes,duration_manipulation_targetAtFixation,jsons/v1_VE1000_randls_49_rotated.json,http://54.235.29.9/FacialAge/BNav_EC2/DepthDuration/v2_depth_duration_MTurk/v2_DepthDuration_HTML.html#131,131,1366,768,1366,768,8-22-2022,8-17-40,151,depth_duration_stimuli/002725_2014-06-22_11-47-51_094959634447_rgbf000070-resize_1/002725_2014-06-22_11-47-51_094959634447_rgbf000070-resize_1-target.png,1000,2.195,3.0,4325,891,meters,jsons/v1_VE1000_randls_49_rotated.json,806552,964368,56,Man
151,945121,DepthScenes,duration_manipulation_targetAtFixation,jsons/v1_VE1000_randls_49_rotated.json,http://54.235.29.9/FacialAge/BNav_EC2/DepthDuration/v2_depth_duration_MTurk/v2_DepthDuration_HTML.html#131,131,1366,768,1366,768,8-22-2022,8-17-40,152,depth_duration_stimuli/000569_2014-06-09_22-51-47_260595134347_rgbf000141-resize_3/000569_2014-06-09_22-51-47_260595134347_rgbf000141-resize-original.jpg,1000,4.512,4.0,3245,1000,meters,jsons/v1_VE1000_randls_49_rotated.json,806552,964368,56,Man
152,945121,DepthScenes,duration_manipulation_targetAtFixation,jsons/v1_VE1000_randls_49_rotated.json,http://54.235.29.9/FacialAge/BNav_EC2/DepthDuration/v2_depth_duration_MTurk/v2_DepthDuration_HTML.html#131,131,1366,768,1366,768,8-22-2022,8-17-40,153,depth_duration_stimuli/001447_2014-06-19_17-00-32_260595134347_rgbf000082-resize_5/001447_2014-06-19_17-00-32_260595134347_rgbf000082-resize_5-target.png,1000,4.13775,6.0,3503,997,meters,jsons/v1_VE1000_randls_49_rotated.json,806552,964368,56,Man
153,945121,DepthScenes,duration_manipulation_targetAtFixation,jsons/v1_VE1000_randls_49_rotated.json,http://54.235.29.9/FacialAge/BNav_EC2/DepthDuration/v2_depth_duration_MTurk/v2_DepthDuration_HTML.html#131,131,1366,768,1366,768,8-22-2022,8-17-40,154,depth_duration_stimuli/000447_2014-06-08_16-15-46_260595134347_rgbf000130-resize_1/000447_2014-06-08_16-15-46_260595134347_rgbf000130-resize_1-target.png,1000,4.479,2.0,3261,992,meters,jsons/v1_VE1000_randls_49_rotated.json,806552,964368,56,Man
154,945121,DepthScenes,duration_manipulation_targetAtFixation,jsons/v1_VE1000_randls_49_rotated.json,http://54.235.29.9/FacialAge/BNav_EC2/DepthDuration/v2_depth_duration_MTurk/v2_DepthDuration_HTML.html#131,131,1366,768,1366,768,8-22-2022,8-17-40,155,depth_duration_stimuli/002678_2014-06-13_16-15-32_094959634447_rgbf000151-resize_6/002678_2014-06-13_16-15-32_094959634447_rgbf000151-resize_6-target.png,1000,2.1830000000000003,1.0,3232,1000,meters,jsons/v1_VE1000_randls_49_rotated.json,806552,964368,56,Man
155,945121,DepthScenes,duration_manipulation_targetAtFixation,jsons/v1_VE1000_randls_49_rotated.json,http://54.235.29.9/FacialAge/BNav_EC2/DepthDuration/v2_depth_duration_MTurk/v2_DepthDuration_HTML.html#131,131,1366,768,1366,768,8-22-2022,8-17-40,156,depth_duration_stimuli/000368_2014-06-09_15-53-01_260595134347_rgbf000155-resize_2/000368_2014-06-09_15-53-01_260595134347_rgbf000155-resize_2-target.png,1000,2.4859999999999998,4.0,3289,1004,meters,jsons/v1_VE1000_randls_49_rotated.json,806552,964368,56,Man
156,945121,DepthScenes,duration_manipulation_targetAtFixation,jsons/v1_VE1000_randls_49_rotated.json,http://54.235.29.9/FacialAge/BNav_EC2/DepthDuration/v2_depth_duration_MTurk/v2_DepthDuration_HTML.html#131,131,1366,768,1366,768,8-22-2022,8-17-40,157,depth_duration_stimuli/002953_2014-06-08_17-32-18_094959634447_rgbf000059-resize_5/002953_2014-06-08_17-32-18_094959634447_rgbf000059-resize_5-target.png,1000,1.551,2.0,3489,994,meters,jsons/v1_VE1000_randls_49_rotated.json,806552,964368,56,Man
157,945121,DepthScenes,duration_manipulation_targetAtFixation,jsons/v1_VE1000_randls_49_rotated.json,http://54.235.29.9/FacialAge/BNav_EC2/DepthDuration/v2_depth_duration_MTurk/v2_DepthDuration_HTML.html#131,131,1366,768,1366,768,8-22-2022,8-17-40,158,depth_duration_stimuli/000878_2014-06-08_22-52-45_260595134347_rgbf000045-resize_2/000878_2014-06-08_22-52-45_260595134347_rgbf000045-resize_2-target.png,1000,2.092,5.0,3951,1019,meters,jsons/v1_VE1000_randls_49_rotated.json,806552,964368,56,Man
158,945121,DepthScenes,duration_manipulation_targetAtFixation,jsons/v1_VE1000_randls_49_rotated.json,http://54.235.29.9/FacialAge/BNav_EC2/DepthDuration/v2_depth_duration_MTurk/v2_DepthDuration_HTML.html#131,131,1366,768,1366,768,8-22-2022,8-17-40,159,depth_duration_stimuli/001815_2014-06-26_20-52-55_260595134347_rgbf000020-resize_0/001815_2014-06-26_20-52-55_260595134347_rgbf000020-resize_0-target.png,1000,3.3865,4.0,3871,992,meters,jsons/v1_VE1000_randls_49_rotated.json,806552,964368,56,Man
159,945121,DepthScenes,duration_manipulation_targetAtFixation,jsons/v1_VE1000_randls_49_rotated.json,http://54.235.29.9/FacialAge/BNav_EC2/DepthDuration/v2_depth_duration_MTurk/v2_DepthDuration_HTML.html#131,131,1366,768,1366,768,8-22-2022,8-17-40,160,depth_duration_stimuli/001808_2014-06-26_20-50-58_260595134347_rgbf000029-resize_1/001808_2014-06-26_20-50-58_260595134347_rgbf000029-resize_1-target.png,1000,4.249,6.0,3634,1003,meters,jsons/v1_VE1000_randls_49_rotated.json,806552,964368,56,Man
160,945121,DepthScenes,duration_manipulation_targetAtFixation,jsons/v1_VE1000_randls_49_rotated.json,http://54.235.29.9/FacialAge/BNav_EC2/DepthDuration/v2_depth_duration_MTurk/v2_DepthDuration_HTML.html#131,131,1366,768,1366,768,8-22-2022,8-17-40,161,depth_duration_stimuli/002340_2014-06-28_20-05-46_260595134347_rgbf000113-resize_0/002340_2014-06-28_20-05-46_260595134347_rgbf000113-resize_0-target.png,1000,2.4735,4.0,3235,1005,meters,jsons/v1_VE1000_randls_49_rotated.json,806552,964368,56,Man
161,945121,DepthScenes,duration_manipulation_targetAtFixation,jsons/v1_VE1000_randls_49_rotated.json,http://54.235.29.9/FacialAge/BNav_EC2/DepthDuration/v2_depth_duration_MTurk/v2_DepthDuration_HTML.html#131,131,1366,768,1366,768,8-22-2022,8-17-40,162,depth_duration_stimuli/001016_2014-06-09_16-16-10_260595134347_rgbf000112-resize_5/001016_2014-06-09_16-16-10_260595134347_rgbf000112-resize_5-target.png,1000,1.6565,4.0,3553,1002,meters,jsons/v1_VE1000_randls_49_rotated.json,806552,964368,56,Man
162,945121,DepthScenes,duration_manipulation_targetAtFixation,jsons/v1_VE1000_randls_49_rotated.json,http://54.235.29.9/FacialAge/BNav_EC2/DepthDuration/v2_depth_duration_MTurk/v2_DepthDuration_HTML.html#131,131,1366,768,1366,768,8-22-2022,8-17-40,163,depth_duration_stimuli/002425_2014-06-28_20-27-29_260595134347_rgbf000031-resize_8/002425_2014-06-28_20-27-29_260595134347_rgbf000031-resize_8-target.png,1000,3.8960000000000004,5.0,3258,1011,meters,jsons/v1_VE1000_randls_49_rotated.json,806552,964368,56,Man
163,945121,DepthScenes,duration_manipulation_targetAtFixation,jsons/v1_VE1000_randls_49_rotated.json,http://54.235.29.9/FacialAge/BNav_EC2/DepthDuration/v2_depth_duration_MTurk/v2_DepthDuration_HTML.html#131,131,1366,768,1366,768,8-22-2022,8-17-40,164,depth_duration_stimuli/000642_2014-06-08_16-59-25_260595134347_rgbf000098-resize_2/000642_2014-06-08_16-59-25_260595134347_rgbf000098-resize_2-target.png,1000,2.8815,2.0,3266,999,meters,jsons/v1_VE1000_randls_49_rotated.json,806552,964368,56,Man
