,subjID,experimentName,versionName,sequenceName,url,selected_row,windowWidth,windowHeight,screenWidth,screenHeight,startDate,startTime,trial,stimulus,duration,actual_depth,depth_estimate,trial_RT,log_sceneDuration,unitSelection,seq_filepath,experimentTime,totalTime,age,gender
0,945231,DepthScenes,duration_manipulation_targetAtFixation,jsons/v1_VE1000_randls_44_rotated.json,http://54.235.29.9/FacialAge/BNav_EC2/DepthDuration/v2_depth_duration_MTurk/v2_DepthDuration_HTML.html#362,362,1366,643,1366,768,8-29-2022,11-30-36,1,depth_duration_stimuli/001392_2014-06-19_16-07-59_260595134347_rgbf000046-resize_1/001392_2014-06-19_16-07-59_260595134347_rgbf000046-resize_1-target.png,1000,4.135,0,3811,1011,meters,jsons/v1_VE1000_randls_44_rotated.json,1057620,2125740,34,Man
1,945231,DepthScenes,duration_manipulation_targetAtFixation,jsons/v1_VE1000_randls_44_rotated.json,http://54.235.29.9/FacialAge/BNav_EC2/DepthDuration/v2_depth_duration_MTurk/v2_DepthDuration_HTML.html#362,362,1366,643,1366,768,8-29-2022,11-30-36,2,depth_duration_stimuli/001570_2014-06-20_17-21-09_260595134347_rgbf000135-resize_4/001570_2014-06-20_17-21-09_260595134347_rgbf000135-resize_4-target.png,1000,4.467,1,4594,1006,meters,jsons/v1_VE1000_randls_44_rotated.json,1057620,2125740,34,Man
2,945231,DepthScenes,duration_manipulation_targetAtFixation,jsons/v1_VE1000_randls_44_rotated.json,http://54.235.29.9/FacialAge/BNav_EC2/DepthDuration/v2_depth_duration_MTurk/v2_DepthDuration_HTML.html#362,362,1366,643,1366,768,8-29-2022,11-30-36,3,depth_duration_stimuli/002660_2014-06-13_15-44-18_094959634447_rgbf001878-resize_2/002660_2014-06-13_15-44-18_094959634447_rgbf001878-resize_2-target.png,1000,3.576,2,3919,1007,meters,jsons/v1_VE1000_randls_44_rotated.json,1057620,2125740,34,Man
3,945231,DepthScenes,duration_manipulation_targetAtFixation,jsons/v1_VE1000_randls_44_rotated.json,http://54.235.29.9/FacialAge/BNav_EC2/DepthDuration/v2_depth_duration_MTurk/v2_DepthDuration_HTML.html#362,362,1366,643,1366,768,8-29-2022,11-30-36,4,depth_duration_stimuli/002153_2014-06-25_21-27-18_260595134347_rgbf000038-resize_5/002153_2014-06-25_21-27-18_260595134347_rgbf000038-resize_5-target.png,1000,2.505,1,3488,1009,meters,jsons/v1_VE1000_randls_44_rotated.json,1057620,2125740,34,Man
4,945231,DepthScenes,duration_manipulation_targetAtFixation,jsons/v1_VE1000_randls_44_rotated.json,http://54.235.29.9/FacialAge/BNav_EC2/DepthDuration/v2_depth_duration_MTurk/v2_DepthDuration_HTML.html#362,362,1366,643,1366,768,8-29-2022,11-30-36,5,depth_duration_stimuli/002678_2014-06-13_16-15-32_094959634447_rgbf000151-resize_6/002678_2014-06-13_16-15-32_094959634447_rgbf000151-resize_6-target.png,1000,2.1830000000000003,2,3086,1000,meters,jsons/v1_VE1000_randls_44_rotated.json,1057620,2125740,34,Man
5,945231,DepthScenes,duration_manipulation_targetAtFixation,jsons/v1_VE1000_randls_44_rotated.json,http://54.235.29.9/FacialAge/BNav_EC2/DepthDuration/v2_depth_duration_MTurk/v2_DepthDuration_HTML.html#362,362,1366,643,1366,768,8-29-2022,11-30-36,6,depth_duration_stimuli/000368_2014-06-09_15-53-01_260595134347_rgbf000155-resize_2/000368_2014-06-09_15-53-01_260595134347_rgbf000155-resize_2-target.png,1000,2.4859999999999998,0,3656,994,meters,jsons/v1_VE1000_randls_44_rotated.json,1057620,2125740,34,Man
6,945231,DepthScenes,duration_manipulation_targetAtFixation,jsons/v1_VE1000_randls_44_rotated.json,http://54.235.29.9/FacialAge/BNav_EC2/DepthDuration/v2_depth_duration_MTurk/v2_DepthDuration_HTML.html#362,362,1366,643,1366,768,8-29-2022,11-30-36,7,depth_duration_stimuli/003079_2014-06-15_15-18-20_094959634447_rgbf000152-resize_8/003079_2014-06-15_15-18-20_094959634447_rgbf000152-resize_8-target.png,1000,2.8775,2,3416,1009,meters,jsons/v1_VE1000_randls_44_rotated.json,1057620,2125740,34,Man
7,945231,DepthScenes,duration_manipulation_targetAtFixation,jsons/v1_VE1000_randls_44_rotated.json,http://54.235.29.9/FacialAge/BNav_EC2/DepthDuration/v2_depth_duration_MTurk/v2_DepthDuration_HTML.html#362,362,1366,643,1366,768,8-29-2022,11-30-36,8,depth_duration_stimuli/000506_2014-06-08_23-21-00_260595134347_rgbf000070-resize_7/000506_2014-06-08_23-21-00_260595134347_rgbf000070-resize_7-target.png,1000,4.0585,3,3767,994,meters,jsons/v1_VE1000_randls_44_rotated.json,1057620,2125740,34,Man
8,945231,DepthScenes,duration_manipulation_targetAtFixation,jsons/v1_VE1000_randls_44_rotated.json,http://54.235.29.9/FacialAge/BNav_EC2/DepthDuration/v2_depth_duration_MTurk/v2_DepthDuration_HTML.html#362,362,1366,643,1366,768,8-29-2022,11-30-36,9,depth_duration_stimuli/003083_2014-06-15_15-21-03_094959634447_rgbf000063-resize_1/003083_2014-06-15_15-21-03_094959634447_rgbf000063-resize_1-target.png,1000,4.1405,2,3803,993,meters,jsons/v1_VE1000_randls_44_rotated.json,1057620,2125740,34,Man
9,945231,DepthScenes,duration_manipulation_targetAtFixation,jsons/v1_VE1000_randls_44_rotated.json,http://54.235.29.9/FacialAge/BNav_EC2/DepthDuration/v2_depth_duration_MTurk/v2_DepthDuration_HTML.html#362,362,1366,643,1366,768,8-29-2022,11-30-36,10,depth_duration_stimuli/000486_2014-06-09_20-47-20_260595134347_rgbf000143-resize_2/000486_2014-06-09_20-47-20_260595134347_rgbf000143-resize_2-target.png,1000,4.8325,2,3449,996,meters,jsons/v1_VE1000_randls_44_rotated.json,1057620,2125740,34,Man
10,945231,DepthScenes,duration_manipulation_targetAtFixation,jsons/v1_VE1000_randls_44_rotated.json,http://54.235.29.9/FacialAge/BNav_EC2/DepthDuration/v2_depth_duration_MTurk/v2_DepthDuration_HTML.html#362,362,1366,643,1366,768,8-29-2022,11-30-36,11,depth_duration_stimuli/003228_2014-05-14_13-42-35_094959634447_rgbf000101-resize_1/003228_2014-05-14_13-42-35_094959634447_rgbf000101-resize_1-target.png,1000,1.9680000000000002,4,4528,996,meters,jsons/v1_VE1000_randls_44_rotated.json,1057620,2125740,34,Man
11,945231,DepthScenes,duration_manipulation_targetAtFixation,jsons/v1_VE1000_randls_44_rotated.json,http://54.235.29.9/FacialAge/BNav_EC2/DepthDuration/v2_depth_duration_MTurk/v2_DepthDuration_HTML.html#362,362,1366,643,1366,768,8-29-2022,11-30-36,12,depth_duration_stimuli/002600_2014-06-24_14-27-04_094959634447_rgbf000074-resize_2/002600_2014-06-24_14-27-04_094959634447_rgbf000074-resize_2-target.png,1000,2.7575,2,4457,993,meters,jsons/v1_VE1000_randls_44_rotated.json,1057620,2125740,34,Man
12,945231,DepthScenes,duration_manipulation_targetAtFixation,jsons/v1_VE1000_randls_44_rotated.json,http://54.235.29.9/FacialAge/BNav_EC2/DepthDuration/v2_depth_duration_MTurk/v2_DepthDuration_HTML.html#362,362,1366,643,1366,768,8-29-2022,11-30-36,13,depth_duration_stimuli/000103_2014-05-14_22-01-17_260595134347_rgbf000152-resize_5/000103_2014-05-14_22-01-17_260595134347_rgbf000152-resize_5-target.png,1000,1.993,3,5489,987,meters,jsons/v1_VE1000_randls_44_rotated.json,1057620,2125740,34,Man
13,945231,DepthScenes,duration_manipulation_targetAtFixation,jsons/v1_VE1000_randls_44_rotated.json,http://54.235.29.9/FacialAge/BNav_EC2/DepthDuration/v2_depth_duration_MTurk/v2_DepthDuration_HTML.html#362,362,1366,643,1366,768,8-29-2022,11-30-36,14,depth_duration_stimuli/001555_2014-06-20_17-12-10_260595134347_rgbf000065-resize_4/001555_2014-06-20_17-12-10_260595134347_rgbf000065-resize_4-target.png,1000,1.633,2,4358,988,meters,jsons/v1_VE1000_randls_44_rotated.json,1057620,2125740,34,Man
14,945231,DepthScenes,duration_manipulation_targetAtFixation,jsons/v1_VE1000_randls_44_rotated.json,http://54.235.29.9/FacialAge/BNav_EC2/DepthDuration/v2_depth_duration_MTurk/v2_DepthDuration_HTML.html#362,362,1366,643,1366,768,8-29-2022,11-30-36,15,depth_duration_stimuli/002639_2014-06-24_14-51-37_094959634447_rgbf000074-resize_4/002639_2014-06-24_14-51-37_094959634447_rgbf000074-resize_4-target.png,1000,4.0375,3,3730,994,meters,jsons/v1_VE1000_randls_44_rotated.json,1057620,2125740,34,Man
15,945231,DepthScenes,duration_manipulation_targetAtFixation,jsons/v1_VE1000_randls_44_rotated.json,http://54.235.29.9/FacialAge/BNav_EC2/DepthDuration/v2_depth_duration_MTurk/v2_DepthDuration_HTML.html#362,362,1366,643,1366,768,8-29-2022,11-30-36,16,depth_duration_stimuli/003292_2014-05-14_21-53-49_094959634447_rgbf000100-resize_2/003292_2014-05-14_21-53-49_094959634447_rgbf000100-resize_2-target.png,1000,3.4815,2,3732,995,meters,jsons/v1_VE1000_randls_44_rotated.json,1057620,2125740,34,Man
16,945231,DepthScenes,duration_manipulation_targetAtFixation,jsons/v1_VE1000_randls_44_rotated.json,http://54.235.29.9/FacialAge/BNav_EC2/DepthDuration/v2_depth_duration_MTurk/v2_DepthDuration_HTML.html#362,362,1366,643,1366,768,8-29-2022,11-30-36,17,depth_duration_stimuli/002995_2014-06-15_12-31-26_094959634447_rgbf000150-resize_1/002995_2014-06-15_12-31-26_094959634447_rgbf000150-resize_1-target.png,1000,3.8360000000000003,0,6578,995,meters,jsons/v1_VE1000_randls_44_rotated.json,1057620,2125740,34,Man
17,945231,DepthScenes,duration_manipulation_targetAtFixation,jsons/v1_VE1000_randls_44_rotated.json,http://54.235.29.9/FacialAge/BNav_EC2/DepthDuration/v2_depth_duration_MTurk/v2_DepthDuration_HTML.html#362,362,1366,643,1366,768,8-29-2022,11-30-36,18,depth_duration_stimuli/002748_2014-06-22_19-07-22_094959634447_rgbf000078-resize_1/002748_2014-06-22_19-07-22_094959634447_rgbf000078-resize_1-target.png,1000,4.6705,2,15595,990,meters,jsons/v1_VE1000_randls_44_rotated.json,1057620,2125740,34,Man
18,945231,DepthScenes,duration_manipulation_targetAtFixation,jsons/v1_VE1000_randls_44_rotated.json,http://54.235.29.9/FacialAge/BNav_EC2/DepthDuration/v2_depth_duration_MTurk/v2_DepthDuration_HTML.html#362,362,1366,643,1366,768,8-29-2022,11-30-36,19,depth_duration_stimuli/001498_2014-06-19_17-45-14_260595134347_rgbf000129-resize_4/001498_2014-06-19_17-45-14_260595134347_rgbf000129-resize-original.jpg,1000,1.4075,0,3492,1007,meters,jsons/v1_VE1000_randls_44_rotated.json,1057620,2125740,34,Man
19,945231,DepthScenes,duration_manipulation_targetAtFixation,jsons/v1_VE1000_randls_44_rotated.json,http://54.235.29.9/FacialAge/BNav_EC2/DepthDuration/v2_depth_duration_MTurk/v2_DepthDuration_HTML.html#362,362,1366,643,1366,768,8-29-2022,11-30-36,20,depth_duration_stimuli/002568_2014-06-24_13-59-21_094959634447_rgbf000062-resize_4/002568_2014-06-24_13-59-21_094959634447_rgbf000062-resize_4-target.png,1000,3.015,3,3900,991,meters,jsons/v1_VE1000_randls_44_rotated.json,1057620,2125740,34,Man
20,945231,DepthScenes,duration_manipulation_targetAtFixation,jsons/v1_VE1000_randls_44_rotated.json,http://54.235.29.9/FacialAge/BNav_EC2/DepthDuration/v2_depth_duration_MTurk/v2_DepthDuration_HTML.html#362,362,1366,643,1366,768,8-29-2022,11-30-36,21,depth_duration_stimuli/003492_2014-05-21_15-50-55_094959634447_rgbf000828-resize_1/003492_2014-05-21_15-50-55_094959634447_rgbf000828-resize_1-target.png,1000,4.06875,2,5066,982,meters,jsons/v1_VE1000_randls_44_rotated.json,1057620,2125740,34,Man
21,945231,DepthScenes,duration_manipulation_targetAtFixation,jsons/v1_VE1000_randls_44_rotated.json,http://54.235.29.9/FacialAge/BNav_EC2/DepthDuration/v2_depth_duration_MTurk/v2_DepthDuration_HTML.html#362,362,1366,643,1366,768,8-29-2022,11-30-36,22,depth_duration_stimuli/000854_2014-06-09_19-43-13_260595134347_rgbf000066-resize_0/000854_2014-06-09_19-43-13_260595134347_rgbf000066-resize_0-target.png,1000,3.068,1,3771,1011,meters,jsons/v1_VE1000_randls_44_rotated.json,1057620,2125740,34,Man
22,945231,DepthScenes,duration_manipulation_targetAtFixation,jsons/v1_VE1000_randls_44_rotated.json,http://54.235.29.9/FacialAge/BNav_EC2/DepthDuration/v2_depth_duration_MTurk/v2_DepthDuration_HTML.html#362,362,1366,643,1366,768,8-29-2022,11-30-36,23,depth_duration_stimuli/000758_2014-06-08_22-05-08_260595134347_rgbf000085-resize_0/000758_2014-06-08_22-05-08_260595134347_rgbf000085-resize_0-target.png,1000,3.3810000000000002,3,4854,991,meters,jsons/v1_VE1000_randls_44_rotated.json,1057620,2125740,34,Man
23,945231,DepthScenes,duration_manipulation_targetAtFixation,jsons/v1_VE1000_randls_44_rotated.json,http://54.235.29.9/FacialAge/BNav_EC2/DepthDuration/v2_depth_duration_MTurk/v2_DepthDuration_HTML.html#362,362,1366,643,1366,768,8-29-2022,11-30-36,24,depth_duration_stimuli/001235_2014-06-17_16-37-36_260595134347_rgbf000084-resize_4/001235_2014-06-17_16-37-36_260595134347_rgbf000084-resize_4-target.png,1000,3.6605,2,21204,972,meters,jsons/v1_VE1000_randls_44_rotated.json,1057620,2125740,34,Man
24,945231,DepthScenes,duration_manipulation_targetAtFixation,jsons/v1_VE1000_randls_44_rotated.json,http://54.235.29.9/FacialAge/BNav_EC2/DepthDuration/v2_depth_duration_MTurk/v2_DepthDuration_HTML.html#362,362,1366,643,1366,768,8-29-2022,11-30-36,25,depth_duration_stimuli/000788_2014-06-08_22-34-36_260595134347_rgbf000131-resize_1/000788_2014-06-08_22-34-36_260595134347_rgbf000131-resize_1-target.png,1000,3.359,1,3667,1009,meters,jsons/v1_VE1000_randls_44_rotated.json,1057620,2125740,34,Man
25,945231,DepthScenes,duration_manipulation_targetAtFixation,jsons/v1_VE1000_randls_44_rotated.json,http://54.235.29.9/FacialAge/BNav_EC2/DepthDuration/v2_depth_duration_MTurk/v2_DepthDuration_HTML.html#362,362,1366,643,1366,768,8-29-2022,11-30-36,26,depth_duration_stimuli/000709_2014-06-08_13-51-55_260595134347_rgbf000068-resize_3/000709_2014-06-08_13-51-55_260595134347_rgbf000068-resize_3-target.png,1000,1.8030000000000002,0,5539,994,meters,jsons/v1_VE1000_randls_44_rotated.json,1057620,2125740,34,Man
26,945231,DepthScenes,duration_manipulation_targetAtFixation,jsons/v1_VE1000_randls_44_rotated.json,http://54.235.29.9/FacialAge/BNav_EC2/DepthDuration/v2_depth_duration_MTurk/v2_DepthDuration_HTML.html#362,362,1366,643,1366,768,8-29-2022,11-30-36,27,depth_duration_stimuli/002057_2014-06-24_21-00-13_260595134347_rgbf000120-resize_1/002057_2014-06-24_21-00-13_260595134347_rgbf000120-resize_1-target.png,1000,2.967,3,3919,984,meters,jsons/v1_VE1000_randls_44_rotated.json,1057620,2125740,34,Man
27,945231,DepthScenes,duration_manipulation_targetAtFixation,jsons/v1_VE1000_randls_44_rotated.json,http://54.235.29.9/FacialAge/BNav_EC2/DepthDuration/v2_depth_duration_MTurk/v2_DepthDuration_HTML.html#362,362,1366,643,1366,768,8-29-2022,11-30-36,28,depth_duration_stimuli/000191_2014-05-12_17-07-38_260595134347_rgbf000199-resize_0/000191_2014-05-12_17-07-38_260595134347_rgbf000199-resize_0-target.png,1000,3.7995,4,4222,995,meters,jsons/v1_VE1000_randls_44_rotated.json,1057620,2125740,34,Man
28,945231,DepthScenes,duration_manipulation_targetAtFixation,jsons/v1_VE1000_randls_44_rotated.json,http://54.235.29.9/FacialAge/BNav_EC2/DepthDuration/v2_depth_duration_MTurk/v2_DepthDuration_HTML.html#362,362,1366,643,1366,768,8-29-2022,11-30-36,29,depth_duration_stimuli/000493_2014-06-09_21-01-18_260595134347_rgbf000196-resize_3/000493_2014-06-09_21-01-18_260595134347_rgbf000196-resize_3-target.png,1000,3.44,2,3464,1009,meters,jsons/v1_VE1000_randls_44_rotated.json,1057620,2125740,34,Man
29,945231,DepthScenes,duration_manipulation_targetAtFixation,jsons/v1_VE1000_randls_44_rotated.json,http://54.235.29.9/FacialAge/BNav_EC2/DepthDuration/v2_depth_duration_MTurk/v2_DepthDuration_HTML.html#362,362,1366,643,1366,768,8-29-2022,11-30-36,30,depth_duration_stimuli/002072_2014-06-24_21-48-06_260595134347_rgbf000115-resize_0/002072_2014-06-24_21-48-06_260595134347_rgbf000115-resize-original.jpg,1000,4.702,1,8439,1007,meters,jsons/v1_VE1000_randls_44_rotated.json,1057620,2125740,34,Man
30,945231,DepthScenes,duration_manipulation_targetAtFixation,jsons/v1_VE1000_randls_44_rotated.json,http://54.235.29.9/FacialAge/BNav_EC2/DepthDuration/v2_depth_duration_MTurk/v2_DepthDuration_HTML.html#362,362,1366,643,1366,768,8-29-2022,11-30-36,31,depth_duration_stimuli/001450_2014-06-19_17-02-03_260595134347_rgbf000203-resize_4/001450_2014-06-19_17-02-03_260595134347_rgbf000203-resize_4-target.png,1000,4.0106666666667,2,3337,1003,meters,jsons/v1_VE1000_randls_44_rotated.json,1057620,2125740,34,Man
31,945231,DepthScenes,duration_manipulation_targetAtFixation,jsons/v1_VE1000_randls_44_rotated.json,http://54.235.29.9/FacialAge/BNav_EC2/DepthDuration/v2_depth_duration_MTurk/v2_DepthDuration_HTML.html#362,362,1366,643,1366,768,8-29-2022,11-30-36,32,depth_duration_stimuli/001449_2014-06-19_17-01-27_260595134347_rgbf000116-resize_2/001449_2014-06-19_17-01-27_260595134347_rgbf000116-resize_2-target.png,1000,3.452,3,4613,999,meters,jsons/v1_VE1000_randls_44_rotated.json,1057620,2125740,34,Man
32,945231,DepthScenes,duration_manipulation_targetAtFixation,jsons/v1_VE1000_randls_44_rotated.json,http://54.235.29.9/FacialAge/BNav_EC2/DepthDuration/v2_depth_duration_MTurk/v2_DepthDuration_HTML.html#362,362,1366,643,1366,768,8-29-2022,11-30-36,33,depth_duration_stimuli/000549_2014-06-08_22-10-24_260595134347_rgbf000247-resize_3/000549_2014-06-08_22-10-24_260595134347_rgbf000247-resize_3-target.png,1000,1.841,1,3762,992,meters,jsons/v1_VE1000_randls_44_rotated.json,1057620,2125740,34,Man
33,945231,DepthScenes,duration_manipulation_targetAtFixation,jsons/v1_VE1000_randls_44_rotated.json,http://54.235.29.9/FacialAge/BNav_EC2/DepthDuration/v2_depth_duration_MTurk/v2_DepthDuration_HTML.html#362,362,1366,643,1366,768,8-29-2022,11-30-36,34,depth_duration_stimuli/001055_2014-06-08_18-45-35_260595134347_rgbf000111-resize_4/001055_2014-06-08_18-45-35_260595134347_rgbf000111-resize_4-target.png,1000,2.4290000000000003,2,3732,993,meters,jsons/v1_VE1000_randls_44_rotated.json,1057620,2125740,34,Man
34,945231,DepthScenes,duration_manipulation_targetAtFixation,jsons/v1_VE1000_randls_44_rotated.json,http://54.235.29.9/FacialAge/BNav_EC2/DepthDuration/v2_depth_duration_MTurk/v2_DepthDuration_HTML.html#362,362,1366,643,1366,768,8-29-2022,11-30-36,35,depth_duration_stimuli/002875_2014-06-01_15-19-00_094959634447_rgbf000151-resize_1/002875_2014-06-01_15-19-00_094959634447_rgbf000151-resize_1-target.png,1000,1.9675,1,3375,994,meters,jsons/v1_VE1000_randls_44_rotated.json,1057620,2125740,34,Man
35,945231,DepthScenes,duration_manipulation_targetAtFixation,jsons/v1_VE1000_randls_44_rotated.json,http://54.235.29.9/FacialAge/BNav_EC2/DepthDuration/v2_depth_duration_MTurk/v2_DepthDuration_HTML.html#362,362,1366,643,1366,768,8-29-2022,11-30-36,36,depth_duration_stimuli/001011_2014-06-08_23-18-54_260595134347_rgbf000044-resize_4/001011_2014-06-08_23-18-54_260595134347_rgbf000044-resize_4-target.png,1000,2.4730000000000003,2,3538,1004,meters,jsons/v1_VE1000_randls_44_rotated.json,1057620,2125740,34,Man
36,945231,DepthScenes,duration_manipulation_targetAtFixation,jsons/v1_VE1000_randls_44_rotated.json,http://54.235.29.9/FacialAge/BNav_EC2/DepthDuration/v2_depth_duration_MTurk/v2_DepthDuration_HTML.html#362,362,1366,643,1366,768,8-29-2022,11-30-36,37,depth_duration_stimuli/002136_2014-06-25_21-18-03_260595134347_rgbf000109-resize_3/002136_2014-06-25_21-18-03_260595134347_rgbf000109-resize_3-target.png,1000,1.9569999999999999,1,5586,992,meters,jsons/v1_VE1000_randls_44_rotated.json,1057620,2125740,34,Man
37,945231,DepthScenes,duration_manipulation_targetAtFixation,jsons/v1_VE1000_randls_44_rotated.json,http://54.235.29.9/FacialAge/BNav_EC2/DepthDuration/v2_depth_duration_MTurk/v2_DepthDuration_HTML.html#362,362,1366,643,1366,768,8-29-2022,11-30-36,38,depth_duration_stimuli/002964_2014-06-08_17-46-11_094959634447_rgbf000091-resize_4/002964_2014-06-08_17-46-11_094959634447_rgbf000091-resize_4-target.png,1000,1.6909999999999998,2,6041,993,meters,jsons/v1_VE1000_randls_44_rotated.json,1057620,2125740,34,Man
38,945231,DepthScenes,duration_manipulation_targetAtFixation,jsons/v1_VE1000_randls_44_rotated.json,http://54.235.29.9/FacialAge/BNav_EC2/DepthDuration/v2_depth_duration_MTurk/v2_DepthDuration_HTML.html#362,362,1366,643,1366,768,8-29-2022,11-30-36,39,depth_duration_stimuli/001032_2014-06-08_13-23-17_260595134347_rgbf000021-resize_3/001032_2014-06-08_13-23-17_260595134347_rgbf000021-resize_3-target.png,1000,3.2725,3,4126,989,meters,jsons/v1_VE1000_randls_44_rotated.json,1057620,2125740,34,Man
39,945231,DepthScenes,duration_manipulation_targetAtFixation,jsons/v1_VE1000_randls_44_rotated.json,http://54.235.29.9/FacialAge/BNav_EC2/DepthDuration/v2_depth_duration_MTurk/v2_DepthDuration_HTML.html#362,362,1366,643,1366,768,8-29-2022,11-30-36,40,depth_duration_stimuli/001059_2014-06-08_21-53-27_260595134347_rgbf000061-resize_4/001059_2014-06-08_21-53-27_260595134347_rgbf000061-resize_4-target.png,1000,2.4185,2,3695,1017,meters,jsons/v1_VE1000_randls_44_rotated.json,1057620,2125740,34,Man
40,945231,DepthScenes,duration_manipulation_targetAtFixation,jsons/v1_VE1000_randls_44_rotated.json,http://54.235.29.9/FacialAge/BNav_EC2/DepthDuration/v2_depth_duration_MTurk/v2_DepthDuration_HTML.html#362,362,1366,643,1366,768,8-29-2022,11-30-36,41,depth_duration_stimuli/000677_2014-06-08_23-10-32_260595134347_rgbf000158-resize_6/000677_2014-06-08_23-10-32_260595134347_rgbf000158-resize_6-target.png,1000,3.556,1,3459,1006,meters,jsons/v1_VE1000_randls_44_rotated.json,1057620,2125740,34,Man
41,945231,DepthScenes,duration_manipulation_targetAtFixation,jsons/v1_VE1000_randls_44_rotated.json,http://54.235.29.9/FacialAge/BNav_EC2/DepthDuration/v2_depth_duration_MTurk/v2_DepthDuration_HTML.html#362,362,1366,643,1366,768,8-29-2022,11-30-36,42,depth_duration_stimuli/001029_2014-06-08_13-17-57_260595134347_rgbf000065-resize_1/001029_2014-06-08_13-17-57_260595134347_rgbf000065-resize_1-target.png,1000,3.0835,2,3622,1003,meters,jsons/v1_VE1000_randls_44_rotated.json,1057620,2125740,34,Man
42,945231,DepthScenes,duration_manipulation_targetAtFixation,jsons/v1_VE1000_randls_44_rotated.json,http://54.235.29.9/FacialAge/BNav_EC2/DepthDuration/v2_depth_duration_MTurk/v2_DepthDuration_HTML.html#362,362,1366,643,1366,768,8-29-2022,11-30-36,43,depth_duration_stimuli/002444_2014-06-28_20-32-08_260595134347_rgbf000027-resize_0/002444_2014-06-28_20-32-08_260595134347_rgbf000027-resize_0-target.png,1000,4.388999999999999,3,3806,997,meters,jsons/v1_VE1000_randls_44_rotated.json,1057620,2125740,34,Man
43,945231,DepthScenes,duration_manipulation_targetAtFixation,jsons/v1_VE1000_randls_44_rotated.json,http://54.235.29.9/FacialAge/BNav_EC2/DepthDuration/v2_depth_duration_MTurk/v2_DepthDuration_HTML.html#362,362,1366,643,1366,768,8-29-2022,11-30-36,44,depth_duration_stimuli/000436_2014-06-09_22-25-11_260595134347_rgbf000137-resize_1/000436_2014-06-09_22-25-11_260595134347_rgbf000137-resize_1-target.png,1000,4.0705,4,3321,992,meters,jsons/v1_VE1000_randls_44_rotated.json,1057620,2125740,34,Man
44,945231,DepthScenes,duration_manipulation_targetAtFixation,jsons/v1_VE1000_randls_44_rotated.json,http://54.235.29.9/FacialAge/BNav_EC2/DepthDuration/v2_depth_duration_MTurk/v2_DepthDuration_HTML.html#362,362,1366,643,1366,768,8-29-2022,11-30-36,45,depth_duration_stimuli/002209_2014-06-28_18-36-10_260595134347_rgbf000051-resize_1/002209_2014-06-28_18-36-10_260595134347_rgbf000051-resize_1-target.png,1000,2.057,1,3278,993,meters,jsons/v1_VE1000_randls_44_rotated.json,1057620,2125740,34,Man
45,945231,DepthScenes,duration_manipulation_targetAtFixation,jsons/v1_VE1000_randls_44_rotated.json,http://54.235.29.9/FacialAge/BNav_EC2/DepthDuration/v2_depth_duration_MTurk/v2_DepthDuration_HTML.html#362,362,1366,643,1366,768,8-29-2022,11-30-36,46,depth_duration_stimuli/002763_2014-06-22_19-13-10_094959634447_rgbf000075-resize_4/002763_2014-06-22_19-13-10_094959634447_rgbf000075-resize_4-target.png,1000,1.68375,2,3831,1004,meters,jsons/v1_VE1000_randls_44_rotated.json,1057620,2125740,34,Man
46,945231,DepthScenes,duration_manipulation_targetAtFixation,jsons/v1_VE1000_randls_44_rotated.json,http://54.235.29.9/FacialAge/BNav_EC2/DepthDuration/v2_depth_duration_MTurk/v2_DepthDuration_HTML.html#362,362,1366,643,1366,768,8-29-2022,11-30-36,47,depth_duration_stimuli/003129_2014-05-12_10-48-10_094959634447_rgbf000100-resize_0/003129_2014-05-12_10-48-10_094959634447_rgbf000100-resize_0-target.png,1000,4.9305,4,5168,990,meters,jsons/v1_VE1000_randls_44_rotated.json,1057620,2125740,34,Man
47,945231,DepthScenes,duration_manipulation_targetAtFixation,jsons/v1_VE1000_randls_44_rotated.json,http://54.235.29.9/FacialAge/BNav_EC2/DepthDuration/v2_depth_duration_MTurk/v2_DepthDuration_HTML.html#362,362,1366,643,1366,768,8-29-2022,11-30-36,48,depth_duration_stimuli/000414_2014-06-04_19-49-13_260595134347_rgbf000044-resize_0/000414_2014-06-04_19-49-13_260595134347_rgbf000044-resize_0-target.png,1000,4.329,2,3832,995,meters,jsons/v1_VE1000_randls_44_rotated.json,1057620,2125740,34,Man
48,945231,DepthScenes,duration_manipulation_targetAtFixation,jsons/v1_VE1000_randls_44_rotated.json,http://54.235.29.9/FacialAge/BNav_EC2/DepthDuration/v2_depth_duration_MTurk/v2_DepthDuration_HTML.html#362,362,1366,643,1366,768,8-29-2022,11-30-36,49,depth_duration_stimuli/001170_2014-06-17_15-43-44_260595134347_rgbf000096-resize_6/001170_2014-06-17_15-43-44_260595134347_rgbf000096-resize-original.jpg,1000,1.1909999999999998,0,3737,993,meters,jsons/v1_VE1000_randls_44_rotated.json,1057620,2125740,34,Man
49,945231,DepthScenes,duration_manipulation_targetAtFixation,jsons/v1_VE1000_randls_44_rotated.json,http://54.235.29.9/FacialAge/BNav_EC2/DepthDuration/v2_depth_duration_MTurk/v2_DepthDuration_HTML.html#362,362,1366,643,1366,768,8-29-2022,11-30-36,50,depth_duration_stimuli/002805_2014-06-22_19-54-03_094959634447_rgbf000079-resize_1/002805_2014-06-22_19-54-03_094959634447_rgbf000079-resize_1-target.png,1000,3.1439999999999997,2,4054,989,meters,jsons/v1_VE1000_randls_44_rotated.json,1057620,2125740,34,Man
50,945231,DepthScenes,duration_manipulation_targetAtFixation,jsons/v1_VE1000_randls_44_rotated.json,http://54.235.29.9/FacialAge/BNav_EC2/DepthDuration/v2_depth_duration_MTurk/v2_DepthDuration_HTML.html#362,362,1366,643,1366,768,8-29-2022,11-30-36,51,depth_duration_stimuli/000906_2014-06-08_13-35-43_260595134347_rgbf000155-resize_1/000906_2014-06-08_13-35-43_260595134347_rgbf000155-resize_1-target.png,1000,2.8489999999999998,2,3299,1008,meters,jsons/v1_VE1000_randls_44_rotated.json,1057620,2125740,34,Man
51,945231,DepthScenes,duration_manipulation_targetAtFixation,jsons/v1_VE1000_randls_44_rotated.json,http://54.235.29.9/FacialAge/BNav_EC2/DepthDuration/v2_depth_duration_MTurk/v2_DepthDuration_HTML.html#362,362,1366,643,1366,768,8-29-2022,11-30-36,52,depth_duration_stimuli/003495_2014-05-21_16-01-51_094959634447_rgbf000100-resize_3/003495_2014-05-21_16-01-51_094959634447_rgbf000100-resize_3-target.png,1000,1.6255,1,3245,1012,meters,jsons/v1_VE1000_randls_44_rotated.json,1057620,2125740,34,Man
52,945231,DepthScenes,duration_manipulation_targetAtFixation,jsons/v1_VE1000_randls_44_rotated.json,http://54.235.29.9/FacialAge/BNav_EC2/DepthDuration/v2_depth_duration_MTurk/v2_DepthDuration_HTML.html#362,362,1366,643,1366,768,8-29-2022,11-30-36,53,depth_duration_stimuli/001244_2014-06-17_16-47-45_260595134347_rgbf000030-resize_4/001244_2014-06-17_16-47-45_260595134347_rgbf000030-resize_4-target.png,1000,2.0425,2,3214,995,meters,jsons/v1_VE1000_randls_44_rotated.json,1057620,2125740,34,Man
53,945231,DepthScenes,duration_manipulation_targetAtFixation,jsons/v1_VE1000_randls_44_rotated.json,http://54.235.29.9/FacialAge/BNav_EC2/DepthDuration/v2_depth_duration_MTurk/v2_DepthDuration_HTML.html#362,362,1366,643,1366,768,8-29-2022,11-30-36,54,depth_duration_stimuli/000749_2014-06-08_21-55-06_260595134347_rgbf000070-resize_2/000749_2014-06-08_21-55-06_260595134347_rgbf000070-resize_2-target.png,1000,2.331,1,3388,998,meters,jsons/v1_VE1000_randls_44_rotated.json,1057620,2125740,34,Man
54,945231,DepthScenes,duration_manipulation_targetAtFixation,jsons/v1_VE1000_randls_44_rotated.json,http://54.235.29.9/FacialAge/BNav_EC2/DepthDuration/v2_depth_duration_MTurk/v2_DepthDuration_HTML.html#362,362,1366,643,1366,768,8-29-2022,11-30-36,55,depth_duration_stimuli/002788_2014-06-22_19-36-03_094959634447_rgbf000088-resize_2/002788_2014-06-22_19-36-03_094959634447_rgbf000088-resize_2-target.png,1000,1.6465,2,4656,1001,meters,jsons/v1_VE1000_randls_44_rotated.json,1057620,2125740,34,Man
55,945231,DepthScenes,duration_manipulation_targetAtFixation,jsons/v1_VE1000_randls_44_rotated.json,http://54.235.29.9/FacialAge/BNav_EC2/DepthDuration/v2_depth_duration_MTurk/v2_DepthDuration_HTML.html#362,362,1366,643,1366,768,8-29-2022,11-30-36,56,depth_duration_stimuli/001571_2014-06-20_17-21-32_260595134347_rgbf000089-resize_1/001571_2014-06-20_17-21-32_260595134347_rgbf000089-resize_1-target.png,1000,1.86,3,3618,995,meters,jsons/v1_VE1000_randls_44_rotated.json,1057620,2125740,34,Man
56,945231,DepthScenes,duration_manipulation_targetAtFixation,jsons/v1_VE1000_randls_44_rotated.json,http://54.235.29.9/FacialAge/BNav_EC2/DepthDuration/v2_depth_duration_MTurk/v2_DepthDuration_HTML.html#362,362,1366,643,1366,768,8-29-2022,11-30-36,57,depth_duration_stimuli/002272_2014-06-28_18-53-56_260595134347_rgbf000067-resize_2/002272_2014-06-28_18-53-56_260595134347_rgbf000067-resize_2-target.png,1000,1.138,1,3470,988,meters,jsons/v1_VE1000_randls_44_rotated.json,1057620,2125740,34,Man
57,945231,DepthScenes,duration_manipulation_targetAtFixation,jsons/v1_VE1000_randls_44_rotated.json,http://54.235.29.9/FacialAge/BNav_EC2/DepthDuration/v2_depth_duration_MTurk/v2_DepthDuration_HTML.html#362,362,1366,643,1366,768,8-29-2022,11-30-36,58,depth_duration_stimuli/003010_2014-06-15_12-54-35_094959634447_rgbf000112-resize_0/003010_2014-06-15_12-54-35_094959634447_rgbf000112-resize_0-target.png,1000,3.1185,2,3171,993,meters,jsons/v1_VE1000_randls_44_rotated.json,1057620,2125740,34,Man
58,945231,DepthScenes,duration_manipulation_targetAtFixation,jsons/v1_VE1000_randls_44_rotated.json,http://54.235.29.9/FacialAge/BNav_EC2/DepthDuration/v2_depth_duration_MTurk/v2_DepthDuration_HTML.html#362,362,1366,643,1366,768,8-29-2022,11-30-36,59,depth_duration_stimuli/001810_2014-06-26_20-51-35_260595134347_rgbf000040-resize_3/001810_2014-06-26_20-51-35_260595134347_rgbf000040-resize_3-target.png,1000,2.2525,1,2817,1009,meters,jsons/v1_VE1000_randls_44_rotated.json,1057620,2125740,34,Man
59,945231,DepthScenes,duration_manipulation_targetAtFixation,jsons/v1_VE1000_randls_44_rotated.json,http://54.235.29.9/FacialAge/BNav_EC2/DepthDuration/v2_depth_duration_MTurk/v2_DepthDuration_HTML.html#362,362,1366,643,1366,768,8-29-2022,11-30-36,60,depth_duration_stimuli/000742_2014-06-08_18-48-09_260595134347_rgbf000164-resize_4/000742_2014-06-08_18-48-09_260595134347_rgbf000164-resize_4-target.png,1000,4.632,2,3148,996,meters,jsons/v1_VE1000_randls_44_rotated.json,1057620,2125740,34,Man
60,945231,DepthScenes,duration_manipulation_targetAtFixation,jsons/v1_VE1000_randls_44_rotated.json,http://54.235.29.9/FacialAge/BNav_EC2/DepthDuration/v2_depth_duration_MTurk/v2_DepthDuration_HTML.html#362,362,1366,643,1366,768,8-29-2022,11-30-36,61,depth_duration_stimuli/001066_2014-06-08_22-03-20_260595134347_rgbf000066-resize_4/001066_2014-06-08_22-03-20_260595134347_rgbf000066-resize_4-target.png,1000,4.2330000000000005,1,7846,996,meters,jsons/v1_VE1000_randls_44_rotated.json,1057620,2125740,34,Man
61,945231,DepthScenes,duration_manipulation_targetAtFixation,jsons/v1_VE1000_randls_44_rotated.json,http://54.235.29.9/FacialAge/BNav_EC2/DepthDuration/v2_depth_duration_MTurk/v2_DepthDuration_HTML.html#362,362,1366,643,1366,768,8-29-2022,11-30-36,62,depth_duration_stimuli/003423_2014-05-21_10-23-26_094959634447_rgbf002665-resize_2/003423_2014-05-21_10-23-26_094959634447_rgbf002665-resize_2-target.png,1000,3.2575,2,4308,1007,meters,jsons/v1_VE1000_randls_44_rotated.json,1057620,2125740,34,Man
62,945231,DepthScenes,duration_manipulation_targetAtFixation,jsons/v1_VE1000_randls_44_rotated.json,http://54.235.29.9/FacialAge/BNav_EC2/DepthDuration/v2_depth_duration_MTurk/v2_DepthDuration_HTML.html#362,362,1366,643,1366,768,8-29-2022,11-30-36,63,depth_duration_stimuli/002905_2014-06-03_18-04-43_094959634447_rgbf000151-resize_2/002905_2014-06-03_18-04-43_094959634447_rgbf000151-resize_2-target.png,1000,2.0295,1,3364,1002,meters,jsons/v1_VE1000_randls_44_rotated.json,1057620,2125740,34,Man
63,945231,DepthScenes,duration_manipulation_targetAtFixation,jsons/v1_VE1000_randls_44_rotated.json,http://54.235.29.9/FacialAge/BNav_EC2/DepthDuration/v2_depth_duration_MTurk/v2_DepthDuration_HTML.html#362,362,1366,643,1366,768,8-29-2022,11-30-36,64,depth_duration_stimuli/002199_2014-06-28_18-33-56_260595134347_rgbf000074-resize_0/002199_2014-06-28_18-33-56_260595134347_rgbf000074-resize_0-target.png,1000,1.996,2,3107,1011,meters,jsons/v1_VE1000_randls_44_rotated.json,1057620,2125740,34,Man
64,945231,DepthScenes,duration_manipulation_targetAtFixation,jsons/v1_VE1000_randls_44_rotated.json,http://54.235.29.9/FacialAge/BNav_EC2/DepthDuration/v2_depth_duration_MTurk/v2_DepthDuration_HTML.html#362,362,1366,643,1366,768,8-29-2022,11-30-36,65,depth_duration_stimuli/001056_2014-06-08_18-46-44_260595134347_rgbf000068-resize_0/001056_2014-06-08_18-46-44_260595134347_rgbf000068-resize_0-target.png,1000,2.6625,4,3725,1014,meters,jsons/v1_VE1000_randls_44_rotated.json,1057620,2125740,34,Man
65,945231,DepthScenes,duration_manipulation_targetAtFixation,jsons/v1_VE1000_randls_44_rotated.json,http://54.235.29.9/FacialAge/BNav_EC2/DepthDuration/v2_depth_duration_MTurk/v2_DepthDuration_HTML.html#362,362,1366,643,1366,768,8-29-2022,11-30-36,66,depth_duration_stimuli/001540_2014-06-20_17-01-05_260595134347_rgbf000086-resize_2/001540_2014-06-20_17-01-05_260595134347_rgbf000086-resize-original.jpg,1000,1.459,1,3592,992,meters,jsons/v1_VE1000_randls_44_rotated.json,1057620,2125740,34,Man
66,945231,DepthScenes,duration_manipulation_targetAtFixation,jsons/v1_VE1000_randls_44_rotated.json,http://54.235.29.9/FacialAge/BNav_EC2/DepthDuration/v2_depth_duration_MTurk/v2_DepthDuration_HTML.html#362,362,1366,643,1366,768,8-29-2022,11-30-36,67,depth_duration_stimuli/002545_2014-06-24_13-38-53_094959634447_rgbf000080-resize_4/002545_2014-06-24_13-38-53_094959634447_rgbf000080-resize_4-target.png,1000,1.9205,2,3960,1004,meters,jsons/v1_VE1000_randls_44_rotated.json,1057620,2125740,34,Man
67,945231,DepthScenes,duration_manipulation_targetAtFixation,jsons/v1_VE1000_randls_44_rotated.json,http://54.235.29.9/FacialAge/BNav_EC2/DepthDuration/v2_depth_duration_MTurk/v2_DepthDuration_HTML.html#362,362,1366,643,1366,768,8-29-2022,11-30-36,68,depth_duration_stimuli/001092_2014-06-15_17-34-58_260595134347_rgbf000171-resize_3/001092_2014-06-15_17-34-58_260595134347_rgbf000171-resize_3-target.png,1000,2.6935,1,8638,994,meters,jsons/v1_VE1000_randls_44_rotated.json,1057620,2125740,34,Man
68,945231,DepthScenes,duration_manipulation_targetAtFixation,jsons/v1_VE1000_randls_44_rotated.json,http://54.235.29.9/FacialAge/BNav_EC2/DepthDuration/v2_depth_duration_MTurk/v2_DepthDuration_HTML.html#362,362,1366,643,1366,768,8-29-2022,11-30-36,69,depth_duration_stimuli/000483_2014-06-09_20-41-45_260595134347_rgbf000116-resize_4/000483_2014-06-09_20-41-45_260595134347_rgbf000116-resize_4-target.png,1000,1.337,2,4842,994,meters,jsons/v1_VE1000_randls_44_rotated.json,1057620,2125740,34,Man
69,945231,DepthScenes,duration_manipulation_targetAtFixation,jsons/v1_VE1000_randls_44_rotated.json,http://54.235.29.9/FacialAge/BNav_EC2/DepthDuration/v2_depth_duration_MTurk/v2_DepthDuration_HTML.html#362,362,1366,643,1366,768,8-29-2022,11-30-36,70,depth_duration_stimuli/000469_2014-06-09_19-42-10_260595134347_rgbf000081-resize_1/000469_2014-06-09_19-42-10_260595134347_rgbf000081-resize_1-target.png,1000,1.652,1,4122,992,meters,jsons/v1_VE1000_randls_44_rotated.json,1057620,2125740,34,Man
70,945231,DepthScenes,duration_manipulation_targetAtFixation,jsons/v1_VE1000_randls_44_rotated.json,http://54.235.29.9/FacialAge/BNav_EC2/DepthDuration/v2_depth_duration_MTurk/v2_DepthDuration_HTML.html#362,362,1366,643,1366,768,8-29-2022,11-30-36,71,depth_duration_stimuli/001815_2014-06-26_20-52-55_260595134347_rgbf000020-resize_0/001815_2014-06-26_20-52-55_260595134347_rgbf000020-resize_0-target.png,1000,3.3865,2,3793,1007,meters,jsons/v1_VE1000_randls_44_rotated.json,1057620,2125740,34,Man
71,945231,DepthScenes,duration_manipulation_targetAtFixation,jsons/v1_VE1000_randls_44_rotated.json,http://54.235.29.9/FacialAge/BNav_EC2/DepthDuration/v2_depth_duration_MTurk/v2_DepthDuration_HTML.html#362,362,1366,643,1366,768,8-29-2022,11-30-36,72,depth_duration_stimuli/001808_2014-06-26_20-50-58_260595134347_rgbf000029-resize_1/001808_2014-06-26_20-50-58_260595134347_rgbf000029-resize_1-target.png,1000,4.249,1,8340,1024,meters,jsons/v1_VE1000_randls_44_rotated.json,1057620,2125740,34,Man
72,945231,DepthScenes,duration_manipulation_targetAtFixation,jsons/v1_VE1000_randls_44_rotated.json,http://54.235.29.9/FacialAge/BNav_EC2/DepthDuration/v2_depth_duration_MTurk/v2_DepthDuration_HTML.html#362,362,1366,643,1366,768,8-29-2022,11-30-36,73,depth_duration_stimuli/003587_2014-05-23_16-48-02_094959634447_rgbf002384-resize_2/003587_2014-05-23_16-48-02_094959634447_rgbf002384-resize_2-target.png,1000,1.357,2,3803,1012,meters,jsons/v1_VE1000_randls_44_rotated.json,1057620,2125740,34,Man
73,945231,DepthScenes,duration_manipulation_targetAtFixation,jsons/v1_VE1000_randls_44_rotated.json,http://54.235.29.9/FacialAge/BNav_EC2/DepthDuration/v2_depth_duration_MTurk/v2_DepthDuration_HTML.html#362,362,1366,643,1366,768,8-29-2022,11-30-36,74,depth_duration_stimuli/001167_2014-06-17_15-38-07_260595134347_rgbf000108-resize_0/001167_2014-06-17_15-38-07_260595134347_rgbf000108-resize_0-target.png,1000,1.8505,1,3179,994,meters,jsons/v1_VE1000_randls_44_rotated.json,1057620,2125740,34,Man
74,945231,DepthScenes,duration_manipulation_targetAtFixation,jsons/v1_VE1000_randls_44_rotated.json,http://54.235.29.9/FacialAge/BNav_EC2/DepthDuration/v2_depth_duration_MTurk/v2_DepthDuration_HTML.html#362,362,1366,643,1366,768,8-29-2022,11-30-36,75,depth_duration_stimuli/003048_2014-06-15_13-49-43_094959634447_rgbf000150-resize_1/003048_2014-06-15_13-49-43_094959634447_rgbf000150-resize_1-target.png,1000,4.0035,1,3728,995,meters,jsons/v1_VE1000_randls_44_rotated.json,1057620,2125740,34,Man
75,945231,DepthScenes,duration_manipulation_targetAtFixation,jsons/v1_VE1000_randls_44_rotated.json,http://54.235.29.9/FacialAge/BNav_EC2/DepthDuration/v2_depth_duration_MTurk/v2_DepthDuration_HTML.html#362,362,1366,643,1366,768,8-29-2022,11-30-36,76,depth_duration_stimuli/002043_2014-06-24_20-29-38_260595134347_rgbf000039-resize_4/002043_2014-06-24_20-29-38_260595134347_rgbf000039-resize_4-target.png,1000,2.8435,2,23991,998,meters,jsons/v1_VE1000_randls_44_rotated.json,1057620,2125740,34,Man
76,945231,DepthScenes,duration_manipulation_targetAtFixation,jsons/v1_VE1000_randls_44_rotated.json,http://54.235.29.9/FacialAge/BNav_EC2/DepthDuration/v2_depth_duration_MTurk/v2_DepthDuration_HTML.html#362,362,1366,643,1366,768,8-29-2022,11-30-36,77,depth_duration_stimuli/000665_2014-06-09_20-42-35_260595134347_rgbf000110-resize_1/000665_2014-06-09_20-42-35_260595134347_rgbf000110-resize_1-target.png,1000,3.057,1,3207,991,meters,jsons/v1_VE1000_randls_44_rotated.json,1057620,2125740,34,Man
77,945231,DepthScenes,duration_manipulation_targetAtFixation,jsons/v1_VE1000_randls_44_rotated.json,http://54.235.29.9/FacialAge/BNav_EC2/DepthDuration/v2_depth_duration_MTurk/v2_DepthDuration_HTML.html#362,362,1366,643,1366,768,8-29-2022,11-30-36,78,depth_duration_stimuli/001150_2014-06-17_15-27-34_260595134347_rgbf000108-resize_2/001150_2014-06-17_15-27-34_260595134347_rgbf000108-resize_2-target.png,1000,4.0325,2,3834,990,meters,jsons/v1_VE1000_randls_44_rotated.json,1057620,2125740,34,Man
78,945231,DepthScenes,duration_manipulation_targetAtFixation,jsons/v1_VE1000_randls_44_rotated.json,http://54.235.29.9/FacialAge/BNav_EC2/DepthDuration/v2_depth_duration_MTurk/v2_DepthDuration_HTML.html#362,362,1366,643,1366,768,8-29-2022,11-30-36,79,depth_duration_stimuli/003338_2014-05-20_11-01-23_094959634447_rgbf000051-resize_6/003338_2014-05-20_11-01-23_094959634447_rgbf000051-resize_6-target.png,1000,1.693,3,3533,993,meters,jsons/v1_VE1000_randls_44_rotated.json,1057620,2125740,34,Man
79,945231,DepthScenes,duration_manipulation_targetAtFixation,jsons/v1_VE1000_randls_44_rotated.json,http://54.235.29.9/FacialAge/BNav_EC2/DepthDuration/v2_depth_duration_MTurk/v2_DepthDuration_HTML.html#362,362,1366,643,1366,768,8-29-2022,11-30-36,80,depth_duration_stimuli/002509_2014-06-24_13-19-22_094959634447_rgbf000077-resize_0/002509_2014-06-24_13-19-22_094959634447_rgbf000077-resize_0-target.png,1000,1.3065,1,3932,993,meters,jsons/v1_VE1000_randls_44_rotated.json,1057620,2125740,34,Man
80,945231,DepthScenes,duration_manipulation_targetAtFixation,jsons/v1_VE1000_randls_44_rotated.json,http://54.235.29.9/FacialAge/BNav_EC2/DepthDuration/v2_depth_duration_MTurk/v2_DepthDuration_HTML.html#362,362,1366,643,1366,768,8-29-2022,11-30-36,81,depth_duration_stimuli/001052_2014-06-08_18-24-54_260595134347_rgbf000130-resize_1/001052_2014-06-08_18-24-54_260595134347_rgbf000130-resize_1-target.png,1000,4.1045,1,5042,994,meters,jsons/v1_VE1000_randls_44_rotated.json,1057620,2125740,34,Man
81,945231,DepthScenes,duration_manipulation_targetAtFixation,jsons/v1_VE1000_randls_44_rotated.json,http://54.235.29.9/FacialAge/BNav_EC2/DepthDuration/v2_depth_duration_MTurk/v2_DepthDuration_HTML.html#362,362,1366,643,1366,768,8-29-2022,11-30-36,82,depth_duration_stimuli/002988_2014-06-15_12-24-20_094959634447_rgbf000150-resize_1/002988_2014-06-15_12-24-20_094959634447_rgbf000150-resize_1-target.png,1000,4.7669999999999995,2,3427,1008,meters,jsons/v1_VE1000_randls_44_rotated.json,1057620,2125740,34,Man
82,945231,DepthScenes,duration_manipulation_targetAtFixation,jsons/v1_VE1000_randls_44_rotated.json,http://54.235.29.9/FacialAge/BNav_EC2/DepthDuration/v2_depth_duration_MTurk/v2_DepthDuration_HTML.html#362,362,1366,643,1366,768,8-29-2022,11-30-36,83,depth_duration_stimuli/001100_2014-06-15_17-46-26_260595134347_rgbf000225-resize_2/001100_2014-06-15_17-46-26_260595134347_rgbf000225-resize_2-target.png,1000,2.24,1,3488,1007,meters,jsons/v1_VE1000_randls_44_rotated.json,1057620,2125740,34,Man
83,945231,DepthScenes,duration_manipulation_targetAtFixation,jsons/v1_VE1000_randls_44_rotated.json,http://54.235.29.9/FacialAge/BNav_EC2/DepthDuration/v2_depth_duration_MTurk/v2_DepthDuration_HTML.html#362,362,1366,643,1366,768,8-29-2022,11-30-36,84,depth_duration_stimuli/002784_2014-06-22_19-26-30_094959634447_rgbf000083-resize_3/002784_2014-06-22_19-26-30_094959634447_rgbf000083-resize_3-target.png,1000,1.8046666666667,2,2947,1012,meters,jsons/v1_VE1000_randls_44_rotated.json,1057620,2125740,34,Man
84,945231,DepthScenes,duration_manipulation_targetAtFixation,jsons/v1_VE1000_randls_44_rotated.json,http://54.235.29.9/FacialAge/BNav_EC2/DepthDuration/v2_depth_duration_MTurk/v2_DepthDuration_HTML.html#362,362,1366,643,1366,768,8-29-2022,11-30-36,85,depth_duration_stimuli/000137_2014-05-20_17-04-49_260595134347_rgbf000120-resize_1/000137_2014-05-20_17-04-49_260595134347_rgbf000120-resize_1-target.png,1000,3.786,12,3712,1007,meters,jsons/v1_VE1000_randls_44_rotated.json,1057620,2125740,34,Man
85,945231,DepthScenes,duration_manipulation_targetAtFixation,jsons/v1_VE1000_randls_44_rotated.json,http://54.235.29.9/FacialAge/BNav_EC2/DepthDuration/v2_depth_duration_MTurk/v2_DepthDuration_HTML.html#362,362,1366,643,1366,768,8-29-2022,11-30-36,86,depth_duration_stimuli/000736_2014-06-08_18-24-15_260595134347_rgbf000206-resize_3/000736_2014-06-08_18-24-15_260595134347_rgbf000206-resize_3-target.png,1000,3.515,1,44473,992,meters,jsons/v1_VE1000_randls_44_rotated.json,1057620,2125740,34,Man
86,945231,DepthScenes,duration_manipulation_targetAtFixation,jsons/v1_VE1000_randls_44_rotated.json,http://54.235.29.9/FacialAge/BNav_EC2/DepthDuration/v2_depth_duration_MTurk/v2_DepthDuration_HTML.html#362,362,1366,643,1366,768,8-29-2022,11-30-36,87,depth_duration_stimuli/002637_2014-06-24_14-51-13_094959634447_rgbf000066-resize_4/002637_2014-06-24_14-51-13_094959634447_rgbf000066-resize_4-target.png,1000,1.9955,1,4225,1006,meters,jsons/v1_VE1000_randls_44_rotated.json,1057620,2125740,34,Man
87,945231,DepthScenes,duration_manipulation_targetAtFixation,jsons/v1_VE1000_randls_44_rotated.json,http://54.235.29.9/FacialAge/BNav_EC2/DepthDuration/v2_depth_duration_MTurk/v2_DepthDuration_HTML.html#362,362,1366,643,1366,768,8-29-2022,11-30-36,88,depth_duration_stimuli/003534_2014-05-22_15-06-10_094959634447_rgbf000102-resize_4/003534_2014-05-22_15-06-10_094959634447_rgbf000102-resize_4-target.png,1000,1.426,2,5626,992,meters,jsons/v1_VE1000_randls_44_rotated.json,1057620,2125740,34,Man
88,945231,DepthScenes,duration_manipulation_targetAtFixation,jsons/v1_VE1000_randls_44_rotated.json,http://54.235.29.9/FacialAge/BNav_EC2/DepthDuration/v2_depth_duration_MTurk/v2_DepthDuration_HTML.html#362,362,1366,643,1366,768,8-29-2022,11-30-36,89,depth_duration_stimuli/000556_2014-06-09_22-42-56_260595134347_rgbf000214-resize_1/000556_2014-06-09_22-42-56_260595134347_rgbf000214-resize_1-target.png,1000,4.8415,1,6484,1009,meters,jsons/v1_VE1000_randls_44_rotated.json,1057620,2125740,34,Man
89,945231,DepthScenes,duration_manipulation_targetAtFixation,jsons/v1_VE1000_randls_44_rotated.json,http://54.235.29.9/FacialAge/BNav_EC2/DepthDuration/v2_depth_duration_MTurk/v2_DepthDuration_HTML.html#362,362,1366,643,1366,768,8-29-2022,11-30-36,90,depth_duration_stimuli/001158_2014-06-17_15-32-16_260595134347_rgbf000138-resize_2/001158_2014-06-17_15-32-16_260595134347_rgbf000138-resize_2-target.png,1000,4.5315,2,17292,1011,meters,jsons/v1_VE1000_randls_44_rotated.json,1057620,2125740,34,Man
90,945231,DepthScenes,duration_manipulation_targetAtFixation,jsons/v1_VE1000_randls_44_rotated.json,http://54.235.29.9/FacialAge/BNav_EC2/DepthDuration/v2_depth_duration_MTurk/v2_DepthDuration_HTML.html#362,362,1366,643,1366,768,8-29-2022,11-30-36,91,depth_duration_stimuli/002323_2014-06-28_20-01-54_260595134347_rgbf000051-resize_4/002323_2014-06-28_20-01-54_260595134347_rgbf000051-resize_4-target.png,1000,3.7310000000000003,2,5785,948,meters,jsons/v1_VE1000_randls_44_rotated.json,1057620,2125740,34,Man
91,945231,DepthScenes,duration_manipulation_targetAtFixation,jsons/v1_VE1000_randls_44_rotated.json,http://54.235.29.9/FacialAge/BNav_EC2/DepthDuration/v2_depth_duration_MTurk/v2_DepthDuration_HTML.html#362,362,1366,643,1366,768,8-29-2022,11-30-36,92,depth_duration_stimuli/000917_2014-06-09_22-45-29_260595134347_rgbf000149-resize_3/000917_2014-06-09_22-45-29_260595134347_rgbf000149-resize_3-target.png,1000,4.1865,1,8294,1011,meters,jsons/v1_VE1000_randls_44_rotated.json,1057620,2125740,34,Man
92,945231,DepthScenes,duration_manipulation_targetAtFixation,jsons/v1_VE1000_randls_44_rotated.json,http://54.235.29.9/FacialAge/BNav_EC2/DepthDuration/v2_depth_duration_MTurk/v2_DepthDuration_HTML.html#362,362,1366,643,1366,768,8-29-2022,11-30-36,93,depth_duration_stimuli/002750_2014-06-22_19-08-03_094959634447_rgbf000094-resize_4/002750_2014-06-22_19-08-03_094959634447_rgbf000094-resize_4-target.png,1000,2.354,2,3208,992,meters,jsons/v1_VE1000_randls_44_rotated.json,1057620,2125740,34,Man
93,945231,DepthScenes,duration_manipulation_targetAtFixation,jsons/v1_VE1000_randls_44_rotated.json,http://54.235.29.9/FacialAge/BNav_EC2/DepthDuration/v2_depth_duration_MTurk/v2_DepthDuration_HTML.html#362,362,1366,643,1366,768,8-29-2022,11-30-36,94,depth_duration_stimuli/002549_2014-06-24_13-41-39_094959634447_rgbf000022-resize_3/002549_2014-06-24_13-41-39_094959634447_rgbf000022-resize_3-target.png,1000,1.476,2,3530,994,meters,jsons/v1_VE1000_randls_44_rotated.json,1057620,2125740,34,Man
94,945231,DepthScenes,duration_manipulation_targetAtFixation,jsons/v1_VE1000_randls_44_rotated.json,http://54.235.29.9/FacialAge/BNav_EC2/DepthDuration/v2_depth_duration_MTurk/v2_DepthDuration_HTML.html#362,362,1366,643,1366,768,8-29-2022,11-30-36,95,depth_duration_stimuli/001650_2014-06-20_12-09-00_260595134347_rgbf000087-resize_3/001650_2014-06-20_12-09-00_260595134347_rgbf000087-resize_3-target.png,1000,1.9505,1,3802,990,meters,jsons/v1_VE1000_randls_44_rotated.json,1057620,2125740,34,Man
95,945231,DepthScenes,duration_manipulation_targetAtFixation,jsons/v1_VE1000_randls_44_rotated.json,http://54.235.29.9/FacialAge/BNav_EC2/DepthDuration/v2_depth_duration_MTurk/v2_DepthDuration_HTML.html#362,362,1366,643,1366,768,8-29-2022,11-30-36,96,depth_duration_stimuli/000682_2014-06-08_23-14-58_260595134347_rgbf000041-resize_5/000682_2014-06-08_23-14-58_260595134347_rgbf000041-resize_5-target.png,1000,2.7239999999999998,2,3331,1006,meters,jsons/v1_VE1000_randls_44_rotated.json,1057620,2125740,34,Man
96,945231,DepthScenes,duration_manipulation_targetAtFixation,jsons/v1_VE1000_randls_44_rotated.json,http://54.235.29.9/FacialAge/BNav_EC2/DepthDuration/v2_depth_duration_MTurk/v2_DepthDuration_HTML.html#362,362,1366,643,1366,768,8-29-2022,11-30-36,97,depth_duration_stimuli/001447_2014-06-19_17-00-32_260595134347_rgbf000082-resize_5/001447_2014-06-19_17-00-32_260595134347_rgbf000082-resize_5-target.png,1000,4.13775,1,3212,993,meters,jsons/v1_VE1000_randls_44_rotated.json,1057620,2125740,34,Man
97,945231,DepthScenes,duration_manipulation_targetAtFixation,jsons/v1_VE1000_randls_44_rotated.json,http://54.235.29.9/FacialAge/BNav_EC2/DepthDuration/v2_depth_duration_MTurk/v2_DepthDuration_HTML.html#362,362,1366,643,1366,768,8-29-2022,11-30-36,98,depth_duration_stimuli/000447_2014-06-08_16-15-46_260595134347_rgbf000130-resize_1/000447_2014-06-08_16-15-46_260595134347_rgbf000130-resize_1-target.png,1000,4.479,2,5934,990,meters,jsons/v1_VE1000_randls_44_rotated.json,1057620,2125740,34,Man
98,945231,DepthScenes,duration_manipulation_targetAtFixation,jsons/v1_VE1000_randls_44_rotated.json,http://54.235.29.9/FacialAge/BNav_EC2/DepthDuration/v2_depth_duration_MTurk/v2_DepthDuration_HTML.html#362,362,1366,643,1366,768,8-29-2022,11-30-36,99,depth_duration_stimuli/001222_2014-06-17_16-24-06_260595134347_rgbf000073-resize_0/001222_2014-06-17_16-24-06_260595134347_rgbf000073-resize-original.jpg,1000,1.4385,2,4179,1005,meters,jsons/v1_VE1000_randls_44_rotated.json,1057620,2125740,34,Man
99,945231,DepthScenes,duration_manipulation_targetAtFixation,jsons/v1_VE1000_randls_44_rotated.json,http://54.235.29.9/FacialAge/BNav_EC2/DepthDuration/v2_depth_duration_MTurk/v2_DepthDuration_HTML.html#362,362,1366,643,1366,768,8-29-2022,11-30-36,100,depth_duration_stimuli/000866_2014-06-09_20-45-42_260595134347_rgbf000139-resize_1/000866_2014-06-09_20-45-42_260595134347_rgbf000139-resize_1-target.png,1000,3.2155,1,4270,1005,meters,jsons/v1_VE1000_randls_44_rotated.json,1057620,2125740,34,Man
100,945231,DepthScenes,duration_manipulation_targetAtFixation,jsons/v1_VE1000_randls_44_rotated.json,http://54.235.29.9/FacialAge/BNav_EC2/DepthDuration/v2_depth_duration_MTurk/v2_DepthDuration_HTML.html#362,362,1366,643,1366,768,8-29-2022,11-30-36,101,depth_duration_stimuli/002989_2014-06-15_12-25-03_094959634447_rgbf000150-resize_3/002989_2014-06-15_12-25-03_094959634447_rgbf000150-resize_3-target.png,1000,4.1975,0,99114,1004,meters,jsons/v1_VE1000_randls_44_rotated.json,1057620,2125740,34,Man
101,945231,DepthScenes,duration_manipulation_targetAtFixation,jsons/v1_VE1000_randls_44_rotated.json,http://54.235.29.9/FacialAge/BNav_EC2/DepthDuration/v2_depth_duration_MTurk/v2_DepthDuration_HTML.html#362,362,1366,643,1366,768,8-29-2022,11-30-36,102,depth_duration_stimuli/002949_2014-06-26_15-57-42_094959634447_rgbf000079-resize_1/002949_2014-06-26_15-57-42_094959634447_rgbf000079-resize_1-target.png,1000,1.8915,1,3509,1012,meters,jsons/v1_VE1000_randls_44_rotated.json,1057620,2125740,34,Man
102,945231,DepthScenes,duration_manipulation_targetAtFixation,jsons/v1_VE1000_randls_44_rotated.json,http://54.235.29.9/FacialAge/BNav_EC2/DepthDuration/v2_depth_duration_MTurk/v2_DepthDuration_HTML.html#362,362,1366,643,1366,768,8-29-2022,11-30-36,103,depth_duration_stimuli/000522_2014-06-08_13-35-06_260595134347_rgbf000244-resize_1/000522_2014-06-08_13-35-06_260595134347_rgbf000244-resize_1-target.png,1000,2.3715,2,3436,1008,meters,jsons/v1_VE1000_randls_44_rotated.json,1057620,2125740,34,Man
103,945231,DepthScenes,duration_manipulation_targetAtFixation,jsons/v1_VE1000_randls_44_rotated.json,http://54.235.29.9/FacialAge/BNav_EC2/DepthDuration/v2_depth_duration_MTurk/v2_DepthDuration_HTML.html#362,362,1366,643,1366,768,8-29-2022,11-30-36,104,depth_duration_stimuli/002344_2014-06-28_20-06-29_260595134347_rgbf000030-resize_1/002344_2014-06-28_20-06-29_260595134347_rgbf000030-resize_1-target.png,1000,1.5795,1,3281,1009,meters,jsons/v1_VE1000_randls_44_rotated.json,1057620,2125740,34,Man
104,945231,DepthScenes,duration_manipulation_targetAtFixation,jsons/v1_VE1000_randls_44_rotated.json,http://54.235.29.9/FacialAge/BNav_EC2/DepthDuration/v2_depth_duration_MTurk/v2_DepthDuration_HTML.html#362,362,1366,643,1366,768,8-29-2022,11-30-36,105,depth_duration_stimuli/002725_2014-06-22_11-47-51_094959634447_rgbf000070-resize_1/002725_2014-06-22_11-47-51_094959634447_rgbf000070-resize_1-target.png,1000,2.195,2,3693,994,meters,jsons/v1_VE1000_randls_44_rotated.json,1057620,2125740,34,Man
105,945231,DepthScenes,duration_manipulation_targetAtFixation,jsons/v1_VE1000_randls_44_rotated.json,http://54.235.29.9/FacialAge/BNav_EC2/DepthDuration/v2_depth_duration_MTurk/v2_DepthDuration_HTML.html#362,362,1366,643,1366,768,8-29-2022,11-30-36,106,depth_duration_stimuli/000943_2014-06-09_19-31-07_260595134347_rgbf000128-resize_1/000943_2014-06-09_19-31-07_260595134347_rgbf000128-resize_1-target.png,1000,1.9765,1,3203,1002,meters,jsons/v1_VE1000_randls_44_rotated.json,1057620,2125740,34,Man
106,945231,DepthScenes,duration_manipulation_targetAtFixation,jsons/v1_VE1000_randls_44_rotated.json,http://54.235.29.9/FacialAge/BNav_EC2/DepthDuration/v2_depth_duration_MTurk/v2_DepthDuration_HTML.html#362,362,1366,643,1366,768,8-29-2022,11-30-36,107,depth_duration_stimuli/003070_2014-06-15_14-58-27_094959634447_rgbf000150-resize_3/003070_2014-06-15_14-58-27_094959634447_rgbf000150-resize_3-target.png,1000,2.9415,2,3034,993,meters,jsons/v1_VE1000_randls_44_rotated.json,1057620,2125740,34,Man
107,945231,DepthScenes,duration_manipulation_targetAtFixation,jsons/v1_VE1000_randls_44_rotated.json,http://54.235.29.9/FacialAge/BNav_EC2/DepthDuration/v2_depth_duration_MTurk/v2_DepthDuration_HTML.html#362,362,1366,643,1366,768,8-29-2022,11-30-36,108,depth_duration_stimuli/002758_2014-06-22_19-11-20_094959634447_rgbf000128-resize_1/002758_2014-06-22_19-11-20_094959634447_rgbf000128-resize_1-target.png,1000,2.555,1,3405,1011,meters,jsons/v1_VE1000_randls_44_rotated.json,1057620,2125740,34,Man
108,945231,DepthScenes,duration_manipulation_targetAtFixation,jsons/v1_VE1000_randls_44_rotated.json,http://54.235.29.9/FacialAge/BNav_EC2/DepthDuration/v2_depth_duration_MTurk/v2_DepthDuration_HTML.html#362,362,1366,643,1366,768,8-29-2022,11-30-36,109,depth_duration_stimuli/002630_2014-06-24_14-47-50_094959634447_rgbf000055-resize_1/002630_2014-06-24_14-47-50_094959634447_rgbf000055-resize_1-target.png,1000,3.0095,2,3307,1007,meters,jsons/v1_VE1000_randls_44_rotated.json,1057620,2125740,34,Man
109,945231,DepthScenes,duration_manipulation_targetAtFixation,jsons/v1_VE1000_randls_44_rotated.json,http://54.235.29.9/FacialAge/BNav_EC2/DepthDuration/v2_depth_duration_MTurk/v2_DepthDuration_HTML.html#362,362,1366,643,1366,768,8-29-2022,11-30-36,110,depth_duration_stimuli/002340_2014-06-28_20-05-46_260595134347_rgbf000113-resize_0/002340_2014-06-28_20-05-46_260595134347_rgbf000113-resize_0-target.png,1000,2.4735,1,5625,1009,meters,jsons/v1_VE1000_randls_44_rotated.json,1057620,2125740,34,Man
110,945231,DepthScenes,duration_manipulation_targetAtFixation,jsons/v1_VE1000_randls_44_rotated.json,http://54.235.29.9/FacialAge/BNav_EC2/DepthDuration/v2_depth_duration_MTurk/v2_DepthDuration_HTML.html#362,362,1366,643,1366,768,8-29-2022,11-30-36,111,depth_duration_stimuli/001016_2014-06-09_16-16-10_260595134347_rgbf000112-resize_5/001016_2014-06-09_16-16-10_260595134347_rgbf000112-resize_5-target.png,1000,1.6565,0,42033,994,meters,jsons/v1_VE1000_randls_44_rotated.json,1057620,2125740,34,Man
111,945231,DepthScenes,duration_manipulation_targetAtFixation,jsons/v1_VE1000_randls_44_rotated.json,http://54.235.29.9/FacialAge/BNav_EC2/DepthDuration/v2_depth_duration_MTurk/v2_DepthDuration_HTML.html#362,362,1366,643,1366,768,8-29-2022,11-30-36,112,depth_duration_stimuli/001584_2014-06-20_11-07-43_260595134347_rgbf000002-resize_1/001584_2014-06-20_11-07-43_260595134347_rgbf000002-resize_1-target.png,1000,3.53,1,3900,990,meters,jsons/v1_VE1000_randls_44_rotated.json,1057620,2125740,34,Man
112,945231,DepthScenes,duration_manipulation_targetAtFixation,jsons/v1_VE1000_randls_44_rotated.json,http://54.235.29.9/FacialAge/BNav_EC2/DepthDuration/v2_depth_duration_MTurk/v2_DepthDuration_HTML.html#362,362,1366,643,1366,768,8-29-2022,11-30-36,113,depth_duration_stimuli/003621_2014-05-23_18-06-08_094959634447_rgbf000101-resize_1/003621_2014-05-23_18-06-08_094959634447_rgbf000101-resize_1-target.png,1000,3.9835,2,3533,993,meters,jsons/v1_VE1000_randls_44_rotated.json,1057620,2125740,34,Man
113,945231,DepthScenes,duration_manipulation_targetAtFixation,jsons/v1_VE1000_randls_44_rotated.json,http://54.235.29.9/FacialAge/BNav_EC2/DepthDuration/v2_depth_duration_MTurk/v2_DepthDuration_HTML.html#362,362,1366,643,1366,768,8-29-2022,11-30-36,114,depth_duration_stimuli/001617_2014-06-20_11-35-32_260595134347_rgbf000066-resize_1/001617_2014-06-20_11-35-32_260595134347_rgbf000066-resize_1-target.png,1000,3.7910000000000004,1,6175,992,meters,jsons/v1_VE1000_randls_44_rotated.json,1057620,2125740,34,Man
114,945231,DepthScenes,duration_manipulation_targetAtFixation,jsons/v1_VE1000_randls_44_rotated.json,http://54.235.29.9/FacialAge/BNav_EC2/DepthDuration/v2_depth_duration_MTurk/v2_DepthDuration_HTML.html#362,362,1366,643,1366,768,8-29-2022,11-30-36,115,depth_duration_stimuli/001806_2014-06-26_20-50-20_260595134347_rgbf000091-resize_1/001806_2014-06-26_20-50-20_260595134347_rgbf000091-resize_1-target.png,1000,2.7305,2,3879,994,meters,jsons/v1_VE1000_randls_44_rotated.json,1057620,2125740,34,Man
115,945231,DepthScenes,duration_manipulation_targetAtFixation,jsons/v1_VE1000_randls_44_rotated.json,http://54.235.29.9/FacialAge/BNav_EC2/DepthDuration/v2_depth_duration_MTurk/v2_DepthDuration_HTML.html#362,362,1366,643,1366,768,8-29-2022,11-30-36,116,depth_duration_stimuli/000502_2014-06-08_23-02-32_260595134347_rgbf000063-resize_4/000502_2014-06-08_23-02-32_260595134347_rgbf000063-resize_4-target.png,1000,2.431,2,3958,993,meters,jsons/v1_VE1000_randls_44_rotated.json,1057620,2125740,34,Man
116,945231,DepthScenes,duration_manipulation_targetAtFixation,jsons/v1_VE1000_randls_44_rotated.json,http://54.235.29.9/FacialAge/BNav_EC2/DepthDuration/v2_depth_duration_MTurk/v2_DepthDuration_HTML.html#362,362,1366,643,1366,768,8-29-2022,11-30-36,117,depth_duration_stimuli/001199_2014-06-17_16-03-48_260595134347_rgbf000077-resize_0/001199_2014-06-17_16-03-48_260595134347_rgbf000077-resize_0-target.png,1000,3.4375,1,3552,1009,meters,jsons/v1_VE1000_randls_44_rotated.json,1057620,2125740,34,Man
117,945231,DepthScenes,duration_manipulation_targetAtFixation,jsons/v1_VE1000_randls_44_rotated.json,http://54.235.29.9/FacialAge/BNav_EC2/DepthDuration/v2_depth_duration_MTurk/v2_DepthDuration_HTML.html#362,362,1366,643,1366,768,8-29-2022,11-30-36,118,depth_duration_stimuli/002953_2014-06-08_17-32-18_094959634447_rgbf000059-resize_5/002953_2014-06-08_17-32-18_094959634447_rgbf000059-resize_5-target.png,1000,1.551,1,5027,1008,meters,jsons/v1_VE1000_randls_44_rotated.json,1057620,2125740,34,Man
118,945231,DepthScenes,duration_manipulation_targetAtFixation,jsons/v1_VE1000_randls_44_rotated.json,http://54.235.29.9/FacialAge/BNav_EC2/DepthDuration/v2_depth_duration_MTurk/v2_DepthDuration_HTML.html#362,362,1366,643,1366,768,8-29-2022,11-30-36,119,depth_duration_stimuli/000878_2014-06-08_22-52-45_260595134347_rgbf000045-resize_2/000878_2014-06-08_22-52-45_260595134347_rgbf000045-resize_2-target.png,1000,2.092,2,4014,1008,meters,jsons/v1_VE1000_randls_44_rotated.json,1057620,2125740,34,Man
119,945231,DepthScenes,duration_manipulation_targetAtFixation,jsons/v1_VE1000_randls_44_rotated.json,http://54.235.29.9/FacialAge/BNav_EC2/DepthDuration/v2_depth_duration_MTurk/v2_DepthDuration_HTML.html#362,362,1366,643,1366,768,8-29-2022,11-30-36,120,depth_duration_stimuli/000787_2014-06-08_22-33-53_260595134347_rgbf000175-resize_1/000787_2014-06-08_22-33-53_260595134347_rgbf000175-resize-original.jpg,1000,4.784,2,4111,989,meters,jsons/v1_VE1000_randls_44_rotated.json,1057620,2125740,34,Man
120,945231,DepthScenes,duration_manipulation_targetAtFixation,jsons/v1_VE1000_randls_44_rotated.json,http://54.235.29.9/FacialAge/BNav_EC2/DepthDuration/v2_depth_duration_MTurk/v2_DepthDuration_HTML.html#362,362,1366,643,1366,768,8-29-2022,11-30-36,121,depth_duration_stimuli/001136_2014-06-17_15-19-41_260595134347_rgbf000076-resize_3/001136_2014-06-17_15-19-41_260595134347_rgbf000076-resize_3-target.png,1000,1.8655,1,3774,1011,meters,jsons/v1_VE1000_randls_44_rotated.json,1057620,2125740,34,Man
121,945231,DepthScenes,duration_manipulation_targetAtFixation,jsons/v1_VE1000_randls_44_rotated.json,http://54.235.29.9/FacialAge/BNav_EC2/DepthDuration/v2_depth_duration_MTurk/v2_DepthDuration_HTML.html#362,362,1366,643,1366,768,8-29-2022,11-30-36,122,depth_duration_stimuli/001164_2014-06-17_15-35-46_260595134347_rgbf000085-resize_3/001164_2014-06-17_15-35-46_260595134347_rgbf000085-resize_3-target.png,1000,2.354,2,2941,1003,meters,jsons/v1_VE1000_randls_44_rotated.json,1057620,2125740,34,Man
122,945231,DepthScenes,duration_manipulation_targetAtFixation,jsons/v1_VE1000_randls_44_rotated.json,http://54.235.29.9/FacialAge/BNav_EC2/DepthDuration/v2_depth_duration_MTurk/v2_DepthDuration_HTML.html#362,362,1366,643,1366,768,8-29-2022,11-30-36,123,depth_duration_stimuli/000409_2014-06-04_19-23-33_260595134347_rgbf000067-resize_0/000409_2014-06-04_19-23-33_260595134347_rgbf000067-resize_0-target.png,1000,3.7335,1,5001,1006,meters,jsons/v1_VE1000_randls_44_rotated.json,1057620,2125740,34,Man
123,945231,DepthScenes,duration_manipulation_targetAtFixation,jsons/v1_VE1000_randls_44_rotated.json,http://54.235.29.9/FacialAge/BNav_EC2/DepthDuration/v2_depth_duration_MTurk/v2_DepthDuration_HTML.html#362,362,1366,643,1366,768,8-29-2022,11-30-36,124,depth_duration_stimuli/002663_2014-06-13_15-50-26_094959634447_rgbf000075-resize_1/002663_2014-06-13_15-50-26_094959634447_rgbf000075-resize_1-target.png,1000,4.7495,1,3452,994,meters,jsons/v1_VE1000_randls_44_rotated.json,1057620,2125740,34,Man
124,945231,DepthScenes,duration_manipulation_targetAtFixation,jsons/v1_VE1000_randls_44_rotated.json,http://54.235.29.9/FacialAge/BNav_EC2/DepthDuration/v2_depth_duration_MTurk/v2_DepthDuration_HTML.html#362,362,1366,643,1366,768,8-29-2022,11-30-36,125,depth_duration_stimuli/003490_2014-05-21_15-50-11_094959634447_rgbf000101-resize_3/003490_2014-05-21_15-50-11_094959634447_rgbf000101-resize_3-target.png,1000,3.6445,2,4402,1007,meters,jsons/v1_VE1000_randls_44_rotated.json,1057620,2125740,34,Man
125,945231,DepthScenes,duration_manipulation_targetAtFixation,jsons/v1_VE1000_randls_44_rotated.json,http://54.235.29.9/FacialAge/BNav_EC2/DepthDuration/v2_depth_duration_MTurk/v2_DepthDuration_HTML.html#362,362,1366,643,1366,768,8-29-2022,11-30-36,126,depth_duration_stimuli/001175_2014-06-17_15-45-55_260595134347_rgbf000129-resize_4/001175_2014-06-17_15-45-55_260595134347_rgbf000129-resize_4-target.png,1000,4.255,1,3381,988,meters,jsons/v1_VE1000_randls_44_rotated.json,1057620,2125740,34,Man
126,945231,DepthScenes,duration_manipulation_targetAtFixation,jsons/v1_VE1000_randls_44_rotated.json,http://54.235.29.9/FacialAge/BNav_EC2/DepthDuration/v2_depth_duration_MTurk/v2_DepthDuration_HTML.html#362,362,1366,643,1366,768,8-29-2022,11-30-36,127,depth_duration_stimuli/000734_2014-06-08_17-39-11_260595134347_rgbf000128-resize_2/000734_2014-06-08_17-39-11_260595134347_rgbf000128-resize_2-target.png,1000,4.098,2,3430,1001,meters,jsons/v1_VE1000_randls_44_rotated.json,1057620,2125740,34,Man
127,945231,DepthScenes,duration_manipulation_targetAtFixation,jsons/v1_VE1000_randls_44_rotated.json,http://54.235.29.9/FacialAge/BNav_EC2/DepthDuration/v2_depth_duration_MTurk/v2_DepthDuration_HTML.html#362,362,1366,643,1366,768,8-29-2022,11-30-36,128,depth_duration_stimuli/000739_2014-06-08_18-45-58_260595134347_rgbf000068-resize_1/000739_2014-06-08_18-45-58_260595134347_rgbf000068-resize_1-target.png,1000,3.534,3,3708,989,meters,jsons/v1_VE1000_randls_44_rotated.json,1057620,2125740,34,Man
128,945231,DepthScenes,duration_manipulation_targetAtFixation,jsons/v1_VE1000_randls_44_rotated.json,http://54.235.29.9/FacialAge/BNav_EC2/DepthDuration/v2_depth_duration_MTurk/v2_DepthDuration_HTML.html#362,362,1366,643,1366,768,8-29-2022,11-30-36,129,depth_duration_stimuli/002103_2014-06-25_20-00-40_260595134347_rgbf000049-resize_0/002103_2014-06-25_20-00-40_260595134347_rgbf000049-resize_0-target.png,1000,4.105,1,4766,1010,meters,jsons/v1_VE1000_randls_44_rotated.json,1057620,2125740,34,Man
129,945231,DepthScenes,duration_manipulation_targetAtFixation,jsons/v1_VE1000_randls_44_rotated.json,http://54.235.29.9/FacialAge/BNav_EC2/DepthDuration/v2_depth_duration_MTurk/v2_DepthDuration_HTML.html#362,362,1366,643,1366,768,8-29-2022,11-30-36,130,depth_duration_stimuli/002039_2014-06-24_20-22-38_260595134347_rgbf000084-resize_1/002039_2014-06-24_20-22-38_260595134347_rgbf000084-resize_1-target.png,1000,4.408,2,3609,1008,meters,jsons/v1_VE1000_randls_44_rotated.json,1057620,2125740,34,Man
130,945231,DepthScenes,duration_manipulation_targetAtFixation,jsons/v1_VE1000_randls_44_rotated.json,http://54.235.29.9/FacialAge/BNav_EC2/DepthDuration/v2_depth_duration_MTurk/v2_DepthDuration_HTML.html#362,362,1366,643,1366,768,8-29-2022,11-30-36,131,depth_duration_stimuli/000457_2014-06-08_16-52-43_260595134347_rgbf000199-resize_1/000457_2014-06-08_16-52-43_260595134347_rgbf000199-resize_1-target.png,1000,3.6489999999999996,2,4141,1004,meters,jsons/v1_VE1000_randls_44_rotated.json,1057620,2125740,34,Man
131,945231,DepthScenes,duration_manipulation_targetAtFixation,jsons/v1_VE1000_randls_44_rotated.json,http://54.235.29.9/FacialAge/BNav_EC2/DepthDuration/v2_depth_duration_MTurk/v2_DepthDuration_HTML.html#362,362,1366,643,1366,768,8-29-2022,11-30-36,132,depth_duration_stimuli/000929_2014-06-09_16-33-19_260595134347_rgbf000139-resize_0/000929_2014-06-09_16-33-19_260595134347_rgbf000139-resize_0-target.png,1000,2.8680000000000003,1,5495,989,meters,jsons/v1_VE1000_randls_44_rotated.json,1057620,2125740,34,Man
132,945231,DepthScenes,duration_manipulation_targetAtFixation,jsons/v1_VE1000_randls_44_rotated.json,http://54.235.29.9/FacialAge/BNav_EC2/DepthDuration/v2_depth_duration_MTurk/v2_DepthDuration_HTML.html#362,362,1366,643,1366,768,8-29-2022,11-30-36,133,depth_duration_stimuli/000635_2014-06-08_16-38-42_260595134347_rgbf000106-resize_1/000635_2014-06-08_16-38-42_260595134347_rgbf000106-resize_1-target.png,1000,2.074,2,3336,993,meters,jsons/v1_VE1000_randls_44_rotated.json,1057620,2125740,34,Man
133,945231,DepthScenes,duration_manipulation_targetAtFixation,jsons/v1_VE1000_randls_44_rotated.json,http://54.235.29.9/FacialAge/BNav_EC2/DepthDuration/v2_depth_duration_MTurk/v2_DepthDuration_HTML.html#362,362,1366,643,1366,768,8-29-2022,11-30-36,134,depth_duration_stimuli/002279_2014-06-28_18-55-32_260595134347_rgbf000040-resize_5/002279_2014-06-28_18-55-32_260595134347_rgbf000040-resize_5-target.png,1000,1.5043333333333,2,8619,993,meters,jsons/v1_VE1000_randls_44_rotated.json,1057620,2125740,34,Man
134,945231,DepthScenes,duration_manipulation_targetAtFixation,jsons/v1_VE1000_randls_44_rotated.json,http://54.235.29.9/FacialAge/BNav_EC2/DepthDuration/v2_depth_duration_MTurk/v2_DepthDuration_HTML.html#362,362,1366,643,1366,768,8-29-2022,11-30-36,135,depth_duration_stimuli/000375_2014-06-08_11-17-29_260595134347_rgbf000133-resize_2/000375_2014-06-08_11-17-29_260595134347_rgbf000133-resize-original.jpg,1000,4.718,0,3536,1001,meters,jsons/v1_VE1000_randls_44_rotated.json,1057620,2125740,34,Man
135,945231,DepthScenes,duration_manipulation_targetAtFixation,jsons/v1_VE1000_randls_44_rotated.json,http://54.235.29.9/FacialAge/BNav_EC2/DepthDuration/v2_depth_duration_MTurk/v2_DepthDuration_HTML.html#362,362,1366,643,1366,768,8-29-2022,11-30-36,136,depth_duration_stimuli/003081_2014-06-15_15-19-16_094959634447_rgbf000150-resize_1/003081_2014-06-15_15-19-16_094959634447_rgbf000150-resize_1-target.png,1000,3.9125,2,4614,990,meters,jsons/v1_VE1000_randls_44_rotated.json,1057620,2125740,34,Man
136,945231,DepthScenes,duration_manipulation_targetAtFixation,jsons/v1_VE1000_randls_44_rotated.json,http://54.235.29.9/FacialAge/BNav_EC2/DepthDuration/v2_depth_duration_MTurk/v2_DepthDuration_HTML.html#362,362,1366,643,1366,768,8-29-2022,11-30-36,137,depth_duration_stimuli/001417_2014-06-19_16-25-36_260595134347_rgbf000115-resize_5/001417_2014-06-19_16-25-36_260595134347_rgbf000115-resize_5-target.png,1000,4.6255,2,4391,1006,meters,jsons/v1_VE1000_randls_44_rotated.json,1057620,2125740,34,Man
137,945231,DepthScenes,duration_manipulation_targetAtFixation,jsons/v1_VE1000_randls_44_rotated.json,http://54.235.29.9/FacialAge/BNav_EC2/DepthDuration/v2_depth_duration_MTurk/v2_DepthDuration_HTML.html#362,362,1366,643,1366,768,8-29-2022,11-30-36,138,depth_duration_stimuli/001132_2014-06-17_14-48-54_260595134347_rgbf000100-resize_2/001132_2014-06-17_14-48-54_260595134347_rgbf000100-resize_2-target.png,1000,3.753,1,2900,1010,meters,jsons/v1_VE1000_randls_44_rotated.json,1057620,2125740,34,Man
138,945231,DepthScenes,duration_manipulation_targetAtFixation,jsons/v1_VE1000_randls_44_rotated.json,http://54.235.29.9/FacialAge/BNav_EC2/DepthDuration/v2_depth_duration_MTurk/v2_DepthDuration_HTML.html#362,362,1366,643,1366,768,8-29-2022,11-30-36,139,depth_duration_stimuli/001133_2014-06-17_14-49-16_260595134347_rgbf000100-resize_0/001133_2014-06-17_14-49-16_260595134347_rgbf000100-resize_0-target.png,1000,4.2115,2,4264,995,meters,jsons/v1_VE1000_randls_44_rotated.json,1057620,2125740,34,Man
139,945231,DepthScenes,duration_manipulation_targetAtFixation,jsons/v1_VE1000_randls_44_rotated.json,http://54.235.29.9/FacialAge/BNav_EC2/DepthDuration/v2_depth_duration_MTurk/v2_DepthDuration_HTML.html#362,362,1366,643,1366,768,8-29-2022,11-30-36,140,depth_duration_stimuli/002425_2014-06-28_20-27-29_260595134347_rgbf000031-resize_8/002425_2014-06-28_20-27-29_260595134347_rgbf000031-resize_8-target.png,1000,3.8960000000000004,1,3524,992,meters,jsons/v1_VE1000_randls_44_rotated.json,1057620,2125740,34,Man
140,945231,DepthScenes,duration_manipulation_targetAtFixation,jsons/v1_VE1000_randls_44_rotated.json,http://54.235.29.9/FacialAge/BNav_EC2/DepthDuration/v2_depth_duration_MTurk/v2_DepthDuration_HTML.html#362,362,1366,643,1366,768,8-29-2022,11-30-36,141,depth_duration_stimuli/000642_2014-06-08_16-59-25_260595134347_rgbf000098-resize_2/000642_2014-06-08_16-59-25_260595134347_rgbf000098-resize_2-target.png,1000,2.8815,2,3771,992,meters,jsons/v1_VE1000_randls_44_rotated.json,1057620,2125740,34,Man
141,945231,DepthScenes,duration_manipulation_targetAtFixation,jsons/v1_VE1000_randls_44_rotated.json,http://54.235.29.9/FacialAge/BNav_EC2/DepthDuration/v2_depth_duration_MTurk/v2_DepthDuration_HTML.html#362,362,1366,643,1366,768,8-29-2022,11-30-36,142,depth_duration_stimuli/000691_2014-06-08_13-08-50_260595134347_rgbf000132-resize_3/000691_2014-06-08_13-08-50_260595134347_rgbf000132-resize_3-target.png,1000,4.1530000000000005,1,3215,971,meters,jsons/v1_VE1000_randls_44_rotated.json,1057620,2125740,34,Man
142,945231,DepthScenes,duration_manipulation_targetAtFixation,jsons/v1_VE1000_randls_44_rotated.json,http://54.235.29.9/FacialAge/BNav_EC2/DepthDuration/v2_depth_duration_MTurk/v2_DepthDuration_HTML.html#362,362,1366,643,1366,768,8-29-2022,11-30-36,143,depth_duration_stimuli/002213_2014-06-28_18-37-58_260595134347_rgbf000055-resize_1/002213_2014-06-28_18-37-58_260595134347_rgbf000055-resize_1-target.png,1000,3.62,2,3876,1010,meters,jsons/v1_VE1000_randls_44_rotated.json,1057620,2125740,34,Man
143,945231,DepthScenes,duration_manipulation_targetAtFixation,jsons/v1_VE1000_randls_44_rotated.json,http://54.235.29.9/FacialAge/BNav_EC2/DepthDuration/v2_depth_duration_MTurk/v2_DepthDuration_HTML.html#362,362,1366,643,1366,768,8-29-2022,11-30-36,144,depth_duration_stimuli/002657_2014-06-13_15-29-54_094959634447_rgbf000150-resize_1/002657_2014-06-13_15-29-54_094959634447_rgbf000150-resize_1-target.png,1000,4.919,2,3432,1010,meters,jsons/v1_VE1000_randls_44_rotated.json,1057620,2125740,34,Man
144,945231,DepthScenes,duration_manipulation_targetAtFixation,jsons/v1_VE1000_randls_44_rotated.json,http://54.235.29.9/FacialAge/BNav_EC2/DepthDuration/v2_depth_duration_MTurk/v2_DepthDuration_HTML.html#362,362,1366,643,1366,768,8-29-2022,11-30-36,145,depth_duration_stimuli/002375_2014-06-28_20-13-44_260595134347_rgbf000032-resize_1/002375_2014-06-28_20-13-44_260595134347_rgbf000032-resize_1-target.png,1000,4.0175,2,3569,1008,meters,jsons/v1_VE1000_randls_44_rotated.json,1057620,2125740,34,Man
145,945231,DepthScenes,duration_manipulation_targetAtFixation,jsons/v1_VE1000_randls_44_rotated.json,http://54.235.29.9/FacialAge/BNav_EC2/DepthDuration/v2_depth_duration_MTurk/v2_DepthDuration_HTML.html#362,362,1366,643,1366,768,8-29-2022,11-30-36,146,depth_duration_stimuli/000109_2014-05-14_23-41-52_260595134347_rgbf000035-resize_9/000109_2014-05-14_23-41-52_260595134347_rgbf000035-resize_9-target.png,1000,1.3545,1,3091,1008,meters,jsons/v1_VE1000_randls_44_rotated.json,1057620,2125740,34,Man
146,945231,DepthScenes,duration_manipulation_targetAtFixation,jsons/v1_VE1000_randls_44_rotated.json,http://54.235.29.9/FacialAge/BNav_EC2/DepthDuration/v2_depth_duration_MTurk/v2_DepthDuration_HTML.html#362,362,1366,643,1366,768,8-29-2022,11-30-36,147,depth_duration_stimuli/000470_2014-06-09_19-42-40_260595134347_rgbf000094-resize_1/000470_2014-06-09_19-42-40_260595134347_rgbf000094-resize_1-target.png,1000,1.831,2,4058,994,meters,jsons/v1_VE1000_randls_44_rotated.json,1057620,2125740,34,Man
147,945231,DepthScenes,duration_manipulation_targetAtFixation,jsons/v1_VE1000_randls_44_rotated.json,http://54.235.29.9/FacialAge/BNav_EC2/DepthDuration/v2_depth_duration_MTurk/v2_DepthDuration_HTML.html#362,362,1366,643,1366,768,8-29-2022,11-30-36,148,depth_duration_stimuli/000780_2014-06-08_22-28-29_260595134347_rgbf000126-resize_1/000780_2014-06-08_22-28-29_260595134347_rgbf000126-resize_1-target.png,1000,3.3825,3,4177,995,meters,jsons/v1_VE1000_randls_44_rotated.json,1057620,2125740,34,Man
148,945231,DepthScenes,duration_manipulation_targetAtFixation,jsons/v1_VE1000_randls_44_rotated.json,http://54.235.29.9/FacialAge/BNav_EC2/DepthDuration/v2_depth_duration_MTurk/v2_DepthDuration_HTML.html#362,362,1366,643,1366,768,8-29-2022,11-30-36,149,depth_duration_stimuli/002445_2014-06-28_20-32-16_260595134347_rgbf000029-resize_4/002445_2014-06-28_20-32-16_260595134347_rgbf000029-resize_4-target.png,1000,2.5315,1,3175,995,meters,jsons/v1_VE1000_randls_44_rotated.json,1057620,2125740,34,Man
149,945231,DepthScenes,duration_manipulation_targetAtFixation,jsons/v1_VE1000_randls_44_rotated.json,http://54.235.29.9/FacialAge/BNav_EC2/DepthDuration/v2_depth_duration_MTurk/v2_DepthDuration_HTML.html#362,362,1366,643,1366,768,8-29-2022,11-30-36,150,depth_duration_stimuli/001094_2014-06-15_17-36-00_260595134347_rgbf000205-resize_0/001094_2014-06-15_17-36-00_260595134347_rgbf000205-resize_0-target.png,1000,4.2175,1,3153,996,meters,jsons/v1_VE1000_randls_44_rotated.json,1057620,2125740,34,Man
150,945231,DepthScenes,duration_manipulation_targetAtFixation,jsons/v1_VE1000_randls_44_rotated.json,http://54.235.29.9/FacialAge/BNav_EC2/DepthDuration/v2_depth_duration_MTurk/v2_DepthDuration_HTML.html#362,362,1366,643,1366,768,8-29-2022,11-30-36,151,depth_duration_stimuli/000692_2014-06-08_13-09-42_260595134347_rgbf000199-resize_2/000692_2014-06-08_13-09-42_260595134347_rgbf000199-resize_2-target.png,1000,3.661,2,4042,1007,meters,jsons/v1_VE1000_randls_44_rotated.json,1057620,2125740,34,Man
151,945231,DepthScenes,duration_manipulation_targetAtFixation,jsons/v1_VE1000_randls_44_rotated.json,http://54.235.29.9/FacialAge/BNav_EC2/DepthDuration/v2_depth_duration_MTurk/v2_DepthDuration_HTML.html#362,362,1366,643,1366,768,8-29-2022,11-30-36,152,depth_duration_stimuli/000569_2014-06-09_22-51-47_260595134347_rgbf000141-resize_3/000569_2014-06-09_22-51-47_260595134347_rgbf000141-resize-original.jpg,1000,4.512,1,3411,1005,meters,jsons/v1_VE1000_randls_44_rotated.json,1057620,2125740,34,Man
152,945231,DepthScenes,duration_manipulation_targetAtFixation,jsons/v1_VE1000_randls_44_rotated.json,http://54.235.29.9/FacialAge/BNav_EC2/DepthDuration/v2_depth_duration_MTurk/v2_DepthDuration_HTML.html#362,362,1366,643,1366,768,8-29-2022,11-30-36,153,depth_duration_stimuli/001214_2014-06-17_16-13-55_260595134347_rgbf000111-resize_0/001214_2014-06-17_16-13-55_260595134347_rgbf000111-resize_0-target.png,1000,2.6505,1,4363,992,meters,jsons/v1_VE1000_randls_44_rotated.json,1057620,2125740,34,Man
153,945231,DepthScenes,duration_manipulation_targetAtFixation,jsons/v1_VE1000_randls_44_rotated.json,http://54.235.29.9/FacialAge/BNav_EC2/DepthDuration/v2_depth_duration_MTurk/v2_DepthDuration_HTML.html#362,362,1366,643,1366,768,8-29-2022,11-30-36,154,depth_duration_stimuli/000810_2014-06-08_17-20-01_260595134347_rgbf000105-resize_0/000810_2014-06-08_17-20-01_260595134347_rgbf000105-resize_0-target.png,1000,1.4865,2,3324,994,meters,jsons/v1_VE1000_randls_44_rotated.json,1057620,2125740,34,Man
154,945231,DepthScenes,duration_manipulation_targetAtFixation,jsons/v1_VE1000_randls_44_rotated.json,http://54.235.29.9/FacialAge/BNav_EC2/DepthDuration/v2_depth_duration_MTurk/v2_DepthDuration_HTML.html#362,362,1366,643,1366,768,8-29-2022,11-30-36,155,depth_duration_stimuli/001516_2014-06-20_16-25-09_260595134347_rgbf000076-resize_2/001516_2014-06-20_16-25-09_260595134347_rgbf000076-resize_2-target.png,1000,1.7445,3,3650,1008,meters,jsons/v1_VE1000_randls_44_rotated.json,1057620,2125740,34,Man
155,945231,DepthScenes,duration_manipulation_targetAtFixation,jsons/v1_VE1000_randls_44_rotated.json,http://54.235.29.9/FacialAge/BNav_EC2/DepthDuration/v2_depth_duration_MTurk/v2_DepthDuration_HTML.html#362,362,1366,643,1366,768,8-29-2022,11-30-36,156,depth_duration_stimuli/002118_2014-06-25_20-32-08_260595134347_rgbf000078-resize_1/002118_2014-06-25_20-32-08_260595134347_rgbf000078-resize_1-target.png,1000,2.6460000000000004,1,4581,996,meters,jsons/v1_VE1000_randls_44_rotated.json,1057620,2125740,34,Man
156,945231,DepthScenes,duration_manipulation_targetAtFixation,jsons/v1_VE1000_randls_44_rotated.json,http://54.235.29.9/FacialAge/BNav_EC2/DepthDuration/v2_depth_duration_MTurk/v2_DepthDuration_HTML.html#362,362,1366,643,1366,768,8-29-2022,11-30-36,157,depth_duration_stimuli/002467_2014-06-28_20-38-07_260595134347_rgbf000026-resize_2/002467_2014-06-28_20-38-07_260595134347_rgbf000026-resize_2-target.png,1000,4.742,2,24885,1092,meters,jsons/v1_VE1000_randls_44_rotated.json,1057620,2125740,34,Man
157,945231,DepthScenes,duration_manipulation_targetAtFixation,jsons/v1_VE1000_randls_44_rotated.json,http://54.235.29.9/FacialAge/BNav_EC2/DepthDuration/v2_depth_duration_MTurk/v2_DepthDuration_HTML.html#362,362,1366,643,1366,768,8-29-2022,11-30-36,158,depth_duration_stimuli/002570_2014-06-24_13-59-54_094959634447_rgbf000059-resize_0/002570_2014-06-24_13-59-54_094959634447_rgbf000059-resize_0-target.png,1000,4.037,2,34613,1011,meters,jsons/v1_VE1000_randls_44_rotated.json,1057620,2125740,34,Man
158,945231,DepthScenes,duration_manipulation_targetAtFixation,jsons/v1_VE1000_randls_44_rotated.json,http://54.235.29.9/FacialAge/BNav_EC2/DepthDuration/v2_depth_duration_MTurk/v2_DepthDuration_HTML.html#362,362,1366,643,1366,768,8-29-2022,11-30-36,159,depth_duration_stimuli/001828_2014-06-26_21-40-03_260595134347_rgbf000024-resize_0/001828_2014-06-26_21-40-03_260595134347_rgbf000024-resize_0-target.png,1000,4.8260000000000005,1,3634,993,meters,jsons/v1_VE1000_randls_44_rotated.json,1057620,2125740,34,Man
159,945231,DepthScenes,duration_manipulation_targetAtFixation,jsons/v1_VE1000_randls_44_rotated.json,http://54.235.29.9/FacialAge/BNav_EC2/DepthDuration/v2_depth_duration_MTurk/v2_DepthDuration_HTML.html#362,362,1366,643,1366,768,8-29-2022,11-30-36,160,depth_duration_stimuli/000009_2014-05-26_14-32-05_260595134347_rgbf000034-resize_3/000009_2014-05-26_14-32-05_260595134347_rgbf000034-resize_3-target.png,1000,3.8715,2,3069,1011,meters,jsons/v1_VE1000_randls_44_rotated.json,1057620,2125740,34,Man
160,945231,DepthScenes,duration_manipulation_targetAtFixation,jsons/v1_VE1000_randls_44_rotated.json,http://54.235.29.9/FacialAge/BNav_EC2/DepthDuration/v2_depth_duration_MTurk/v2_DepthDuration_HTML.html#362,362,1366,643,1366,768,8-29-2022,11-30-36,161,depth_duration_stimuli/002414_2014-06-28_20-24-58_260595134347_rgbf000067-resize_4/002414_2014-06-28_20-24-58_260595134347_rgbf000067-resize_4-target.png,1000,4.363,1,3140,994,meters,jsons/v1_VE1000_randls_44_rotated.json,1057620,2125740,34,Man
161,945231,DepthScenes,duration_manipulation_targetAtFixation,jsons/v1_VE1000_randls_44_rotated.json,http://54.235.29.9/FacialAge/BNav_EC2/DepthDuration/v2_depth_duration_MTurk/v2_DepthDuration_HTML.html#362,362,1366,643,1366,768,8-29-2022,11-30-36,162,depth_duration_stimuli/000773_2014-06-08_22-24-54_260595134347_rgbf000093-resize_1/000773_2014-06-08_22-24-54_260595134347_rgbf000093-resize_1-target.png,1000,4.973,2,3063,995,meters,jsons/v1_VE1000_randls_44_rotated.json,1057620,2125740,34,Man
162,945231,DepthScenes,duration_manipulation_targetAtFixation,jsons/v1_VE1000_randls_44_rotated.json,http://54.235.29.9/FacialAge/BNav_EC2/DepthDuration/v2_depth_duration_MTurk/v2_DepthDuration_HTML.html#362,362,1366,643,1366,768,8-29-2022,11-30-36,163,depth_duration_stimuli/000927_2014-06-09_16-32-30_260595134347_rgbf000123-resize_3/000927_2014-06-09_16-32-30_260595134347_rgbf000123-resize_3-target.png,1000,2.6785,1,3234,1007,meters,jsons/v1_VE1000_randls_44_rotated.json,1057620,2125740,34,Man
163,945231,DepthScenes,duration_manipulation_targetAtFixation,jsons/v1_VE1000_randls_44_rotated.json,http://54.235.29.9/FacialAge/BNav_EC2/DepthDuration/v2_depth_duration_MTurk/v2_DepthDuration_HTML.html#362,362,1366,643,1366,768,8-29-2022,11-30-36,164,depth_duration_stimuli/001110_2014-06-15_17-25-28_260595134347_rgbf000150-resize_1/001110_2014-06-15_17-25-28_260595134347_rgbf000150-resize_1-target.png,1000,1.7115,2,22405,1007,meters,jsons/v1_VE1000_randls_44_rotated.json,1057620,2125740,34,Man
