,subjID,experimentName,versionName,sequenceName,url,selected_row,windowWidth,windowHeight,screenWidth,screenHeight,startDate,startTime,trial,stimulus,duration,actual_depth,depth_estimate,trial_RT,log_sceneDuration,unitSelection,seq_filepath,experimentTime,totalTime,age,gender
0,946823,DepthScenes,duration_manipulation_targetAtFixation,jsons/VE125_randls_43.json,http://54.235.29.9/FacialAge/BNav_EC2/DepthDuration/v2_depth_duration_MTurk/v2_DepthDuration_HTML.html#26,26,1366,625,1366,768,8-21-2022,10-35-38,1,depth_duration_stimuli/001092_2014-06-15_17-34-58_260595134347_rgbf000171-resize_3/001092_2014-06-15_17-34-58_260595134347_rgbf000171-resize_3-target.png,125,2.6935,5,22654,124,meters,jsons/VE125_randls_43.json,931446,1074788,35,Woman
1,946823,DepthScenes,duration_manipulation_targetAtFixation,jsons/VE125_randls_43.json,http://54.235.29.9/FacialAge/BNav_EC2/DepthDuration/v2_depth_duration_MTurk/v2_DepthDuration_HTML.html#26,26,1366,625,1366,768,8-21-2022,10-35-38,2,depth_duration_stimuli/002545_2014-06-24_13-38-53_094959634447_rgbf000080-resize_4/002545_2014-06-24_13-38-53_094959634447_rgbf000080-resize_4-target.png,125,1.9205,5,6517,137,meters,jsons/VE125_randls_43.json,931446,1074788,35,Woman
2,946823,DepthScenes,duration_manipulation_targetAtFixation,jsons/VE125_randls_43.json,http://54.235.29.9/FacialAge/BNav_EC2/DepthDuration/v2_depth_duration_MTurk/v2_DepthDuration_HTML.html#26,26,1366,625,1366,768,8-21-2022,10-35-38,3,depth_duration_stimuli/000368_2014-06-09_15-53-01_260595134347_rgbf000155-resize_2/000368_2014-06-09_15-53-01_260595134347_rgbf000155-resize_2-target.png,125,2.4859999999999998,3,6690,126,meters,jsons/VE125_randls_43.json,931446,1074788,35,Woman
3,946823,DepthScenes,duration_manipulation_targetAtFixation,jsons/VE125_randls_43.json,http://54.235.29.9/FacialAge/BNav_EC2/DepthDuration/v2_depth_duration_MTurk/v2_DepthDuration_HTML.html#26,26,1366,625,1366,768,8-21-2022,10-35-38,4,depth_duration_stimuli/002678_2014-06-13_16-15-32_094959634447_rgbf000151-resize_6/002678_2014-06-13_16-15-32_094959634447_rgbf000151-resize_6-target.png,125,2.1830000000000003,5,5660,122,meters,jsons/VE125_randls_43.json,931446,1074788,35,Woman
4,946823,DepthScenes,duration_manipulation_targetAtFixation,jsons/VE125_randls_43.json,http://54.235.29.9/FacialAge/BNav_EC2/DepthDuration/v2_depth_duration_MTurk/v2_DepthDuration_HTML.html#26,26,1366,625,1366,768,8-21-2022,10-35-38,5,depth_duration_stimuli/001055_2014-06-08_18-45-35_260595134347_rgbf000111-resize_4/001055_2014-06-08_18-45-35_260595134347_rgbf000111-resize_4-target.png,125,2.4290000000000003,5,4646,127,meters,jsons/VE125_randls_43.json,931446,1074788,35,Woman
5,946823,DepthScenes,duration_manipulation_targetAtFixation,jsons/VE125_randls_43.json,http://54.235.29.9/FacialAge/BNav_EC2/DepthDuration/v2_depth_duration_MTurk/v2_DepthDuration_HTML.html#26,26,1366,625,1366,768,8-21-2022,10-35-38,6,depth_duration_stimuli/000549_2014-06-08_22-10-24_260595134347_rgbf000247-resize_3/000549_2014-06-08_22-10-24_260595134347_rgbf000247-resize_3-target.png,125,1.841,5,3884,123,meters,jsons/VE125_randls_43.json,931446,1074788,35,Woman
6,946823,DepthScenes,duration_manipulation_targetAtFixation,jsons/VE125_randls_43.json,http://54.235.29.9/FacialAge/BNav_EC2/DepthDuration/v2_depth_duration_MTurk/v2_DepthDuration_HTML.html#26,26,1366,625,1366,768,8-21-2022,10-35-38,7,depth_duration_stimuli/000773_2014-06-08_22-24-54_260595134347_rgbf000093-resize_1/000773_2014-06-08_22-24-54_260595134347_rgbf000093-resize_1-target.png,125,4.973,5,6585,119,meters,jsons/VE125_randls_43.json,931446,1074788,35,Woman
7,946823,DepthScenes,duration_manipulation_targetAtFixation,jsons/VE125_randls_43.json,http://54.235.29.9/FacialAge/BNav_EC2/DepthDuration/v2_depth_duration_MTurk/v2_DepthDuration_HTML.html#26,26,1366,625,1366,768,8-21-2022,10-35-38,8,depth_duration_stimuli/002414_2014-06-28_20-24-58_260595134347_rgbf000067-resize_4/002414_2014-06-28_20-24-58_260595134347_rgbf000067-resize_4-target.png,125,4.363,4,5257,124,meters,jsons/VE125_randls_43.json,931446,1074788,35,Woman
8,946823,DepthScenes,duration_manipulation_targetAtFixation,jsons/VE125_randls_43.json,http://54.235.29.9/FacialAge/BNav_EC2/DepthDuration/v2_depth_duration_MTurk/v2_DepthDuration_HTML.html#26,26,1366,625,1366,768,8-21-2022,10-35-38,9,depth_duration_stimuli/003292_2014-05-14_21-53-49_094959634447_rgbf000100-resize_2/003292_2014-05-14_21-53-49_094959634447_rgbf000100-resize_2-target.png,125,3.4815,5,6764,139,meters,jsons/VE125_randls_43.json,931446,1074788,35,Woman
9,946823,DepthScenes,duration_manipulation_targetAtFixation,jsons/VE125_randls_43.json,http://54.235.29.9/FacialAge/BNav_EC2/DepthDuration/v2_depth_duration_MTurk/v2_DepthDuration_HTML.html#26,26,1366,625,1366,768,8-21-2022,10-35-38,10,depth_duration_stimuli/002639_2014-06-24_14-51-37_094959634447_rgbf000074-resize_4/002639_2014-06-24_14-51-37_094959634447_rgbf000074-resize_4-target.png,125,4.0375,4,5097,108,meters,jsons/VE125_randls_43.json,931446,1074788,35,Woman
10,946823,DepthScenes,duration_manipulation_targetAtFixation,jsons/VE125_randls_43.json,http://54.235.29.9/FacialAge/BNav_EC2/DepthDuration/v2_depth_duration_MTurk/v2_DepthDuration_HTML.html#26,26,1366,625,1366,768,8-21-2022,10-35-38,11,depth_duration_stimuli/001167_2014-06-17_15-38-07_260595134347_rgbf000108-resize_0/001167_2014-06-17_15-38-07_260595134347_rgbf000108-resize_0-target.png,125,1.8505,4,3886,126,meters,jsons/VE125_randls_43.json,931446,1074788,35,Woman
11,946823,DepthScenes,duration_manipulation_targetAtFixation,jsons/VE125_randls_43.json,http://54.235.29.9/FacialAge/BNav_EC2/DepthDuration/v2_depth_duration_MTurk/v2_DepthDuration_HTML.html#26,26,1366,625,1366,768,8-21-2022,10-35-38,12,depth_duration_stimuli/003587_2014-05-23_16-48-02_094959634447_rgbf002384-resize_2/003587_2014-05-23_16-48-02_094959634447_rgbf002384-resize_2-target.png,125,1.357,5,5217,122,meters,jsons/VE125_randls_43.json,931446,1074788,35,Woman
12,946823,DepthScenes,duration_manipulation_targetAtFixation,jsons/VE125_randls_43.json,http://54.235.29.9/FacialAge/BNav_EC2/DepthDuration/v2_depth_duration_MTurk/v2_DepthDuration_HTML.html#26,26,1366,625,1366,768,8-21-2022,10-35-38,13,depth_duration_stimuli/000569_2014-06-09_22-51-47_260595134347_rgbf000141-resize_3/000569_2014-06-09_22-51-47_260595134347_rgbf000141-resize-original.jpg,125,4.512,5,129396,132,meters,jsons/VE125_randls_43.json,931446,1074788,35,Woman
13,946823,DepthScenes,duration_manipulation_targetAtFixation,jsons/VE125_randls_43.json,http://54.235.29.9/FacialAge/BNav_EC2/DepthDuration/v2_depth_duration_MTurk/v2_DepthDuration_HTML.html#26,26,1366,625,1366,768,8-21-2022,10-35-38,14,depth_duration_stimuli/002748_2014-06-22_19-07-22_094959634447_rgbf000078-resize_1/002748_2014-06-22_19-07-22_094959634447_rgbf000078-resize_1-target.png,125,4.6705,6,6210,126,meters,jsons/VE125_randls_43.json,931446,1074788,35,Woman
14,946823,DepthScenes,duration_manipulation_targetAtFixation,jsons/VE125_randls_43.json,http://54.235.29.9/FacialAge/BNav_EC2/DepthDuration/v2_depth_duration_MTurk/v2_DepthDuration_HTML.html#26,26,1366,625,1366,768,8-21-2022,10-35-38,15,depth_duration_stimuli/002995_2014-06-15_12-31-26_094959634447_rgbf000150-resize_1/002995_2014-06-15_12-31-26_094959634447_rgbf000150-resize_1-target.png,125,3.8360000000000003,4,4776,128,meters,jsons/VE125_randls_43.json,931446,1074788,35,Woman
15,946823,DepthScenes,duration_manipulation_targetAtFixation,jsons/VE125_randls_43.json,http://54.235.29.9/FacialAge/BNav_EC2/DepthDuration/v2_depth_duration_MTurk/v2_DepthDuration_HTML.html#26,26,1366,625,1366,768,8-21-2022,10-35-38,16,depth_duration_stimuli/000470_2014-06-09_19-42-40_260595134347_rgbf000094-resize_1/000470_2014-06-09_19-42-40_260595134347_rgbf000094-resize_1-target.png,125,1.831,0,3018,126,meters,jsons/VE125_randls_43.json,931446,1074788,35,Woman
16,946823,DepthScenes,duration_manipulation_targetAtFixation,jsons/VE125_randls_43.json,http://54.235.29.9/FacialAge/BNav_EC2/DepthDuration/v2_depth_duration_MTurk/v2_DepthDuration_HTML.html#26,26,1366,625,1366,768,8-21-2022,10-35-38,17,depth_duration_stimuli/000109_2014-05-14_23-41-52_260595134347_rgbf000035-resize_9/000109_2014-05-14_23-41-52_260595134347_rgbf000035-resize_9-target.png,125,1.3545,3,3507,110,meters,jsons/VE125_randls_43.json,931446,1074788,35,Woman
17,946823,DepthScenes,duration_manipulation_targetAtFixation,jsons/VE125_randls_43.json,http://54.235.29.9/FacialAge/BNav_EC2/DepthDuration/v2_depth_duration_MTurk/v2_DepthDuration_HTML.html#26,26,1366,625,1366,768,8-21-2022,10-35-38,18,depth_duration_stimuli/001810_2014-06-26_20-51-35_260595134347_rgbf000040-resize_3/001810_2014-06-26_20-51-35_260595134347_rgbf000040-resize_3-target.png,125,2.2525,3,3006,126,meters,jsons/VE125_randls_43.json,931446,1074788,35,Woman
18,946823,DepthScenes,duration_manipulation_targetAtFixation,jsons/VE125_randls_43.json,http://54.235.29.9/FacialAge/BNav_EC2/DepthDuration/v2_depth_duration_MTurk/v2_DepthDuration_HTML.html#26,26,1366,625,1366,768,8-21-2022,10-35-38,19,depth_duration_stimuli/003010_2014-06-15_12-54-35_094959634447_rgbf000112-resize_0/003010_2014-06-15_12-54-35_094959634447_rgbf000112-resize_0-target.png,125,3.1185,6,18427,112,meters,jsons/VE125_randls_43.json,931446,1074788,35,Woman
19,946823,DepthScenes,duration_manipulation_targetAtFixation,jsons/VE125_randls_43.json,http://54.235.29.9/FacialAge/BNav_EC2/DepthDuration/v2_depth_duration_MTurk/v2_DepthDuration_HTML.html#26,26,1366,625,1366,768,8-21-2022,10-35-38,20,depth_duration_stimuli/001808_2014-06-26_20-50-58_260595134347_rgbf000029-resize_1/001808_2014-06-26_20-50-58_260595134347_rgbf000029-resize_1-target.png,125,4.249,4,4170,124,meters,jsons/VE125_randls_43.json,931446,1074788,35,Woman
20,946823,DepthScenes,duration_manipulation_targetAtFixation,jsons/VE125_randls_43.json,http://54.235.29.9/FacialAge/BNav_EC2/DepthDuration/v2_depth_duration_MTurk/v2_DepthDuration_HTML.html#26,26,1366,625,1366,768,8-21-2022,10-35-38,21,depth_duration_stimuli/001815_2014-06-26_20-52-55_260595134347_rgbf000020-resize_0/001815_2014-06-26_20-52-55_260595134347_rgbf000020-resize_0-target.png,125,3.3865,0,3523,124,meters,jsons/VE125_randls_43.json,931446,1074788,35,Woman
21,946823,DepthScenes,duration_manipulation_targetAtFixation,jsons/VE125_randls_43.json,http://54.235.29.9/FacialAge/BNav_EC2/DepthDuration/v2_depth_duration_MTurk/v2_DepthDuration_HTML.html#26,26,1366,625,1366,768,8-21-2022,10-35-38,22,depth_duration_stimuli/000739_2014-06-08_18-45-58_260595134347_rgbf000068-resize_1/000739_2014-06-08_18-45-58_260595134347_rgbf000068-resize_1-target.png,125,3.534,4,3230,119,meters,jsons/VE125_randls_43.json,931446,1074788,35,Woman
22,946823,DepthScenes,duration_manipulation_targetAtFixation,jsons/VE125_randls_43.json,http://54.235.29.9/FacialAge/BNav_EC2/DepthDuration/v2_depth_duration_MTurk/v2_DepthDuration_HTML.html#26,26,1366,625,1366,768,8-21-2022,10-35-38,23,depth_duration_stimuli/000734_2014-06-08_17-39-11_260595134347_rgbf000128-resize_2/000734_2014-06-08_17-39-11_260595134347_rgbf000128-resize_2-target.png,125,4.098,2,5058,124,meters,jsons/VE125_randls_43.json,931446,1074788,35,Woman
23,946823,DepthScenes,duration_manipulation_targetAtFixation,jsons/VE125_randls_43.json,http://54.235.29.9/FacialAge/BNav_EC2/DepthDuration/v2_depth_duration_MTurk/v2_DepthDuration_HTML.html#26,26,1366,625,1366,768,8-21-2022,10-35-38,24,depth_duration_stimuli/003621_2014-05-23_18-06-08_094959634447_rgbf000101-resize_1/003621_2014-05-23_18-06-08_094959634447_rgbf000101-resize_1-target.png,125,3.9835,6,3962,126,meters,jsons/VE125_randls_43.json,931446,1074788,35,Woman
24,946823,DepthScenes,duration_manipulation_targetAtFixation,jsons/VE125_randls_43.json,http://54.235.29.9/FacialAge/BNav_EC2/DepthDuration/v2_depth_duration_MTurk/v2_DepthDuration_HTML.html#26,26,1366,625,1366,768,8-21-2022,10-35-38,25,depth_duration_stimuli/001584_2014-06-20_11-07-43_260595134347_rgbf000002-resize_1/001584_2014-06-20_11-07-43_260595134347_rgbf000002-resize_1-target.png,125,3.53,5,3429,125,meters,jsons/VE125_randls_43.json,931446,1074788,35,Woman
25,946823,DepthScenes,duration_manipulation_targetAtFixation,jsons/VE125_randls_43.json,http://54.235.29.9/FacialAge/BNav_EC2/DepthDuration/v2_depth_duration_MTurk/v2_DepthDuration_HTML.html#26,26,1366,625,1366,768,8-21-2022,10-35-38,26,depth_duration_stimuli/003070_2014-06-15_14-58-27_094959634447_rgbf000150-resize_3/003070_2014-06-15_14-58-27_094959634447_rgbf000150-resize_3-target.png,125,2.9415,5,4133,132,meters,jsons/VE125_randls_43.json,931446,1074788,35,Woman
26,946823,DepthScenes,duration_manipulation_targetAtFixation,jsons/VE125_randls_43.json,http://54.235.29.9/FacialAge/BNav_EC2/DepthDuration/v2_depth_duration_MTurk/v2_DepthDuration_HTML.html#26,26,1366,625,1366,768,8-21-2022,10-35-38,27,depth_duration_stimuli/000943_2014-06-09_19-31-07_260595134347_rgbf000128-resize_1/000943_2014-06-09_19-31-07_260595134347_rgbf000128-resize_1-target.png,125,1.9765,5,3002,132,meters,jsons/VE125_randls_43.json,931446,1074788,35,Woman
27,946823,DepthScenes,duration_manipulation_targetAtFixation,jsons/VE125_randls_43.json,http://54.235.29.9/FacialAge/BNav_EC2/DepthDuration/v2_depth_duration_MTurk/v2_DepthDuration_HTML.html#26,26,1366,625,1366,768,8-21-2022,10-35-38,28,depth_duration_stimuli/001029_2014-06-08_13-17-57_260595134347_rgbf000065-resize_1/001029_2014-06-08_13-17-57_260595134347_rgbf000065-resize_1-target.png,125,3.0835,9,3917,122,meters,jsons/VE125_randls_43.json,931446,1074788,35,Woman
28,946823,DepthScenes,duration_manipulation_targetAtFixation,jsons/VE125_randls_43.json,http://54.235.29.9/FacialAge/BNav_EC2/DepthDuration/v2_depth_duration_MTurk/v2_DepthDuration_HTML.html#26,26,1366,625,1366,768,8-21-2022,10-35-38,29,depth_duration_stimuli/000677_2014-06-08_23-10-32_260595134347_rgbf000158-resize_6/000677_2014-06-08_23-10-32_260595134347_rgbf000158-resize_6-target.png,125,3.556,2,3190,126,meters,jsons/VE125_randls_43.json,931446,1074788,35,Woman
29,946823,DepthScenes,duration_manipulation_targetAtFixation,jsons/VE125_randls_43.json,http://54.235.29.9/FacialAge/BNav_EC2/DepthDuration/v2_depth_duration_MTurk/v2_DepthDuration_HTML.html#26,26,1366,625,1366,768,8-21-2022,10-35-38,30,depth_duration_stimuli/000375_2014-06-08_11-17-29_260595134347_rgbf000133-resize_2/000375_2014-06-08_11-17-29_260595134347_rgbf000133-resize-original.jpg,125,4.718,5,3066,125,meters,jsons/VE125_randls_43.json,931446,1074788,35,Woman
30,946823,DepthScenes,duration_manipulation_targetAtFixation,jsons/VE125_randls_43.json,http://54.235.29.9/FacialAge/BNav_EC2/DepthDuration/v2_depth_duration_MTurk/v2_DepthDuration_HTML.html#26,26,1366,625,1366,768,8-21-2022,10-35-38,31,depth_duration_stimuli/000878_2014-06-08_22-52-45_260595134347_rgbf000045-resize_2/000878_2014-06-08_22-52-45_260595134347_rgbf000045-resize_2-target.png,125,2.092,4,3292,115,meters,jsons/VE125_randls_43.json,931446,1074788,35,Woman
31,946823,DepthScenes,duration_manipulation_targetAtFixation,jsons/VE125_randls_43.json,http://54.235.29.9/FacialAge/BNav_EC2/DepthDuration/v2_depth_duration_MTurk/v2_DepthDuration_HTML.html#26,26,1366,625,1366,768,8-21-2022,10-35-38,32,depth_duration_stimuli/002953_2014-06-08_17-32-18_094959634447_rgbf000059-resize_5/002953_2014-06-08_17-32-18_094959634447_rgbf000059-resize_5-target.png,125,1.551,8,2944,132,meters,jsons/VE125_randls_43.json,931446,1074788,35,Woman
32,946823,DepthScenes,duration_manipulation_targetAtFixation,jsons/VE125_randls_43.json,http://54.235.29.9/FacialAge/BNav_EC2/DepthDuration/v2_depth_duration_MTurk/v2_DepthDuration_HTML.html#26,26,1366,625,1366,768,8-21-2022,10-35-38,33,depth_duration_stimuli/002663_2014-06-13_15-50-26_094959634447_rgbf000075-resize_1/002663_2014-06-13_15-50-26_094959634447_rgbf000075-resize_1-target.png,125,4.7495,2,3691,109,meters,jsons/VE125_randls_43.json,931446,1074788,35,Woman
33,946823,DepthScenes,duration_manipulation_targetAtFixation,jsons/VE125_randls_43.json,http://54.235.29.9/FacialAge/BNav_EC2/DepthDuration/v2_depth_duration_MTurk/v2_DepthDuration_HTML.html#26,26,1366,625,1366,768,8-21-2022,10-35-38,34,depth_duration_stimuli/000409_2014-06-04_19-23-33_260595134347_rgbf000067-resize_0/000409_2014-06-04_19-23-33_260595134347_rgbf000067-resize_0-target.png,125,3.7335,4,2835,124,meters,jsons/VE125_randls_43.json,931446,1074788,35,Woman
34,946823,DepthScenes,duration_manipulation_targetAtFixation,jsons/VE125_randls_43.json,http://54.235.29.9/FacialAge/BNav_EC2/DepthDuration/v2_depth_duration_MTurk/v2_DepthDuration_HTML.html#26,26,1366,625,1366,768,8-21-2022,10-35-38,35,depth_duration_stimuli/000929_2014-06-09_16-33-19_260595134347_rgbf000139-resize_0/000929_2014-06-09_16-33-19_260595134347_rgbf000139-resize_0-target.png,125,2.8680000000000003,2,3176,112,meters,jsons/VE125_randls_43.json,931446,1074788,35,Woman
35,946823,DepthScenes,duration_manipulation_targetAtFixation,jsons/VE125_randls_43.json,http://54.235.29.9/FacialAge/BNav_EC2/DepthDuration/v2_depth_duration_MTurk/v2_DepthDuration_HTML.html#26,26,1366,625,1366,768,8-21-2022,10-35-38,36,depth_duration_stimuli/000457_2014-06-08_16-52-43_260595134347_rgbf000199-resize_1/000457_2014-06-08_16-52-43_260595134347_rgbf000199-resize_1-target.png,125,3.6489999999999996,2,3155,123,meters,jsons/VE125_randls_43.json,931446,1074788,35,Woman
36,946823,DepthScenes,duration_manipulation_targetAtFixation,jsons/VE125_randls_43.json,http://54.235.29.9/FacialAge/BNav_EC2/DepthDuration/v2_depth_duration_MTurk/v2_DepthDuration_HTML.html#26,26,1366,625,1366,768,8-21-2022,10-35-38,37,depth_duration_stimuli/002549_2014-06-24_13-41-39_094959634447_rgbf000022-resize_3/002549_2014-06-24_13-41-39_094959634447_rgbf000022-resize_3-target.png,125,1.476,4,2809,124,meters,jsons/VE125_randls_43.json,931446,1074788,35,Woman
37,946823,DepthScenes,duration_manipulation_targetAtFixation,jsons/VE125_randls_43.json,http://54.235.29.9/FacialAge/BNav_EC2/DepthDuration/v2_depth_duration_MTurk/v2_DepthDuration_HTML.html#26,26,1366,625,1366,768,8-21-2022,10-35-38,38,depth_duration_stimuli/002750_2014-06-22_19-08-03_094959634447_rgbf000094-resize_4/002750_2014-06-22_19-08-03_094959634447_rgbf000094-resize_4-target.png,125,2.354,5,3268,124,meters,jsons/VE125_randls_43.json,931446,1074788,35,Woman
38,946823,DepthScenes,duration_manipulation_targetAtFixation,jsons/VE125_randls_43.json,http://54.235.29.9/FacialAge/BNav_EC2/DepthDuration/v2_depth_duration_MTurk/v2_DepthDuration_HTML.html#26,26,1366,625,1366,768,8-21-2022,10-35-38,39,depth_duration_stimuli/000906_2014-06-08_13-35-43_260595134347_rgbf000155-resize_1/000906_2014-06-08_13-35-43_260595134347_rgbf000155-resize_1-target.png,125,2.8489999999999998,4,3706,123,meters,jsons/VE125_randls_43.json,931446,1074788,35,Woman
39,946823,DepthScenes,duration_manipulation_targetAtFixation,jsons/VE125_randls_43.json,http://54.235.29.9/FacialAge/BNav_EC2/DepthDuration/v2_depth_duration_MTurk/v2_DepthDuration_HTML.html#26,26,1366,625,1366,768,8-21-2022,10-35-38,40,depth_duration_stimuli/002805_2014-06-22_19-54-03_094959634447_rgbf000079-resize_1/002805_2014-06-22_19-54-03_094959634447_rgbf000079-resize_1-target.png,125,3.1439999999999997,4,3173,124,meters,jsons/VE125_randls_43.json,931446,1074788,35,Woman
40,946823,DepthScenes,duration_manipulation_targetAtFixation,jsons/VE125_randls_43.json,http://54.235.29.9/FacialAge/BNav_EC2/DepthDuration/v2_depth_duration_MTurk/v2_DepthDuration_HTML.html#26,26,1366,625,1366,768,8-21-2022,10-35-38,41,depth_duration_stimuli/000642_2014-06-08_16-59-25_260595134347_rgbf000098-resize_2/000642_2014-06-08_16-59-25_260595134347_rgbf000098-resize_2-target.png,125,2.8815,5,3318,124,meters,jsons/VE125_randls_43.json,931446,1074788,35,Woman
41,946823,DepthScenes,duration_manipulation_targetAtFixation,jsons/VE125_randls_43.json,http://54.235.29.9/FacialAge/BNav_EC2/DepthDuration/v2_depth_duration_MTurk/v2_DepthDuration_HTML.html#26,26,1366,625,1366,768,8-21-2022,10-35-38,42,depth_duration_stimuli/002425_2014-06-28_20-27-29_260595134347_rgbf000031-resize_8/002425_2014-06-28_20-27-29_260595134347_rgbf000031-resize_8-target.png,125,3.8960000000000004,4,3709,127,meters,jsons/VE125_randls_43.json,931446,1074788,35,Woman
42,946823,DepthScenes,duration_manipulation_targetAtFixation,jsons/VE125_randls_43.json,http://54.235.29.9/FacialAge/BNav_EC2/DepthDuration/v2_depth_duration_MTurk/v2_DepthDuration_HTML.html#26,26,1366,625,1366,768,8-21-2022,10-35-38,43,depth_duration_stimuli/002445_2014-06-28_20-32-16_260595134347_rgbf000029-resize_4/002445_2014-06-28_20-32-16_260595134347_rgbf000029-resize_4-target.png,125,2.5315,5,2760,120,meters,jsons/VE125_randls_43.json,931446,1074788,35,Woman
43,946823,DepthScenes,duration_manipulation_targetAtFixation,jsons/VE125_randls_43.json,http://54.235.29.9/FacialAge/BNav_EC2/DepthDuration/v2_depth_duration_MTurk/v2_DepthDuration_HTML.html#26,26,1366,625,1366,768,8-21-2022,10-35-38,44,depth_duration_stimuli/000780_2014-06-08_22-28-29_260595134347_rgbf000126-resize_1/000780_2014-06-08_22-28-29_260595134347_rgbf000126-resize_1-target.png,125,3.3825,5,4072,123,meters,jsons/VE125_randls_43.json,931446,1074788,35,Woman
44,946823,DepthScenes,duration_manipulation_targetAtFixation,jsons/VE125_randls_43.json,http://54.235.29.9/FacialAge/BNav_EC2/DepthDuration/v2_depth_duration_MTurk/v2_DepthDuration_HTML.html#26,26,1366,625,1366,768,8-21-2022,10-35-38,45,depth_duration_stimuli/000787_2014-06-08_22-33-53_260595134347_rgbf000175-resize_1/000787_2014-06-08_22-33-53_260595134347_rgbf000175-resize-original.jpg,125,4.784,5,3181,137,meters,jsons/VE125_randls_43.json,931446,1074788,35,Woman
45,946823,DepthScenes,duration_manipulation_targetAtFixation,jsons/VE125_randls_43.json,http://54.235.29.9/FacialAge/BNav_EC2/DepthDuration/v2_depth_duration_MTurk/v2_DepthDuration_HTML.html#26,26,1366,625,1366,768,8-21-2022,10-35-38,46,depth_duration_stimuli/002057_2014-06-24_21-00-13_260595134347_rgbf000120-resize_1/002057_2014-06-24_21-00-13_260595134347_rgbf000120-resize_1-target.png,125,2.967,4,3220,118,meters,jsons/VE125_randls_43.json,931446,1074788,35,Woman
46,946823,DepthScenes,duration_manipulation_targetAtFixation,jsons/VE125_randls_43.json,http://54.235.29.9/FacialAge/BNav_EC2/DepthDuration/v2_depth_duration_MTurk/v2_DepthDuration_HTML.html#26,26,1366,625,1366,768,8-21-2022,10-35-38,47,depth_duration_stimuli/000709_2014-06-08_13-51-55_260595134347_rgbf000068-resize_3/000709_2014-06-08_13-51-55_260595134347_rgbf000068-resize_3-target.png,125,1.8030000000000002,4,2776,109,meters,jsons/VE125_randls_43.json,931446,1074788,35,Woman
47,946823,DepthScenes,duration_manipulation_targetAtFixation,jsons/VE125_randls_43.json,http://54.235.29.9/FacialAge/BNav_EC2/DepthDuration/v2_depth_duration_MTurk/v2_DepthDuration_HTML.html#26,26,1366,625,1366,768,8-21-2022,10-35-38,48,depth_duration_stimuli/000447_2014-06-08_16-15-46_260595134347_rgbf000130-resize_1/000447_2014-06-08_16-15-46_260595134347_rgbf000130-resize_1-target.png,125,4.479,5,2538,125,meters,jsons/VE125_randls_43.json,931446,1074788,35,Woman
48,946823,DepthScenes,duration_manipulation_targetAtFixation,jsons/VE125_randls_43.json,http://54.235.29.9/FacialAge/BNav_EC2/DepthDuration/v2_depth_duration_MTurk/v2_DepthDuration_HTML.html#26,26,1366,625,1366,768,8-21-2022,10-35-38,49,depth_duration_stimuli/001447_2014-06-19_17-00-32_260595134347_rgbf000082-resize_5/001447_2014-06-19_17-00-32_260595134347_rgbf000082-resize_5-target.png,125,4.13775,5,3865,124,meters,jsons/VE125_randls_43.json,931446,1074788,35,Woman
49,946823,DepthScenes,duration_manipulation_targetAtFixation,jsons/VE125_randls_43.json,http://54.235.29.9/FacialAge/BNav_EC2/DepthDuration/v2_depth_duration_MTurk/v2_DepthDuration_HTML.html#26,26,1366,625,1366,768,8-21-2022,10-35-38,50,depth_duration_stimuli/002988_2014-06-15_12-24-20_094959634447_rgbf000150-resize_1/002988_2014-06-15_12-24-20_094959634447_rgbf000150-resize_1-target.png,125,4.7669999999999995,5,2640,129,meters,jsons/VE125_randls_43.json,931446,1074788,35,Woman
50,946823,DepthScenes,duration_manipulation_targetAtFixation,jsons/VE125_randls_43.json,http://54.235.29.9/FacialAge/BNav_EC2/DepthDuration/v2_depth_duration_MTurk/v2_DepthDuration_HTML.html#26,26,1366,625,1366,768,8-21-2022,10-35-38,51,depth_duration_stimuli/001052_2014-06-08_18-24-54_260595134347_rgbf000130-resize_1/001052_2014-06-08_18-24-54_260595134347_rgbf000130-resize_1-target.png,125,4.1045,4,2722,125,meters,jsons/VE125_randls_43.json,931446,1074788,35,Woman
51,946823,DepthScenes,duration_manipulation_targetAtFixation,jsons/VE125_randls_43.json,http://54.235.29.9/FacialAge/BNav_EC2/DepthDuration/v2_depth_duration_MTurk/v2_DepthDuration_HTML.html#26,26,1366,625,1366,768,8-21-2022,10-35-38,52,depth_duration_stimuli/002153_2014-06-25_21-27-18_260595134347_rgbf000038-resize_5/002153_2014-06-25_21-27-18_260595134347_rgbf000038-resize_5-target.png,125,2.505,4,2619,127,meters,jsons/VE125_randls_43.json,931446,1074788,35,Woman
52,946823,DepthScenes,duration_manipulation_targetAtFixation,jsons/VE125_randls_43.json,http://54.235.29.9/FacialAge/BNav_EC2/DepthDuration/v2_depth_duration_MTurk/v2_DepthDuration_HTML.html#26,26,1366,625,1366,768,8-21-2022,10-35-38,53,depth_duration_stimuli/002660_2014-06-13_15-44-18_094959634447_rgbf001878-resize_2/002660_2014-06-13_15-44-18_094959634447_rgbf001878-resize_2-target.png,125,3.576,5,2457,121,meters,jsons/VE125_randls_43.json,931446,1074788,35,Woman
53,946823,DepthScenes,duration_manipulation_targetAtFixation,jsons/VE125_randls_43.json,http://54.235.29.9/FacialAge/BNav_EC2/DepthDuration/v2_depth_duration_MTurk/v2_DepthDuration_HTML.html#26,26,1366,625,1366,768,8-21-2022,10-35-38,54,depth_duration_stimuli/001150_2014-06-17_15-27-34_260595134347_rgbf000108-resize_2/001150_2014-06-17_15-27-34_260595134347_rgbf000108-resize_2-target.png,125,4.0325,8,2586,124,meters,jsons/VE125_randls_43.json,931446,1074788,35,Woman
54,946823,DepthScenes,duration_manipulation_targetAtFixation,jsons/VE125_randls_43.json,http://54.235.29.9/FacialAge/BNav_EC2/DepthDuration/v2_depth_duration_MTurk/v2_DepthDuration_HTML.html#26,26,1366,625,1366,768,8-21-2022,10-35-38,55,depth_duration_stimuli/000665_2014-06-09_20-42-35_260595134347_rgbf000110-resize_1/000665_2014-06-09_20-42-35_260595134347_rgbf000110-resize_1-target.png,125,3.057,6,3618,110,meters,jsons/VE125_randls_43.json,931446,1074788,35,Woman
55,946823,DepthScenes,duration_manipulation_targetAtFixation,jsons/VE125_randls_43.json,http://54.235.29.9/FacialAge/BNav_EC2/DepthDuration/v2_depth_duration_MTurk/v2_DepthDuration_HTML.html#26,26,1366,625,1366,768,8-21-2022,10-35-38,56,depth_duration_stimuli/001056_2014-06-08_18-46-44_260595134347_rgbf000068-resize_0/001056_2014-06-08_18-46-44_260595134347_rgbf000068-resize_0-target.png,125,2.6625,6,2441,124,meters,jsons/VE125_randls_43.json,931446,1074788,35,Woman
56,946823,DepthScenes,duration_manipulation_targetAtFixation,jsons/VE125_randls_43.json,http://54.235.29.9/FacialAge/BNav_EC2/DepthDuration/v2_depth_duration_MTurk/v2_DepthDuration_HTML.html#26,26,1366,625,1366,768,8-21-2022,10-35-38,57,depth_duration_stimuli/002199_2014-06-28_18-33-56_260595134347_rgbf000074-resize_0/002199_2014-06-28_18-33-56_260595134347_rgbf000074-resize_0-target.png,125,1.996,5,2520,128,meters,jsons/VE125_randls_43.json,931446,1074788,35,Woman
57,946823,DepthScenes,duration_manipulation_targetAtFixation,jsons/VE125_randls_43.json,http://54.235.29.9/FacialAge/BNav_EC2/DepthDuration/v2_depth_duration_MTurk/v2_DepthDuration_HTML.html#26,26,1366,625,1366,768,8-21-2022,10-35-38,58,depth_duration_stimuli/002784_2014-06-22_19-26-30_094959634447_rgbf000083-resize_3/002784_2014-06-22_19-26-30_094959634447_rgbf000083-resize_3-target.png,125,1.8046666666667,4,2542,128,meters,jsons/VE125_randls_43.json,931446,1074788,35,Woman
58,946823,DepthScenes,duration_manipulation_targetAtFixation,jsons/VE125_randls_43.json,http://54.235.29.9/FacialAge/BNav_EC2/DepthDuration/v2_depth_duration_MTurk/v2_DepthDuration_HTML.html#26,26,1366,625,1366,768,8-21-2022,10-35-38,59,depth_duration_stimuli/001100_2014-06-15_17-46-26_260595134347_rgbf000225-resize_2/001100_2014-06-15_17-46-26_260595134347_rgbf000225-resize_2-target.png,125,2.24,4,2692,123,meters,jsons/VE125_randls_43.json,931446,1074788,35,Woman
59,946823,DepthScenes,duration_manipulation_targetAtFixation,jsons/VE125_randls_43.json,http://54.235.29.9/FacialAge/BNav_EC2/DepthDuration/v2_depth_duration_MTurk/v2_DepthDuration_HTML.html#26,26,1366,625,1366,768,8-21-2022,10-35-38,60,depth_duration_stimuli/002213_2014-06-28_18-37-58_260595134347_rgbf000055-resize_1/002213_2014-06-28_18-37-58_260595134347_rgbf000055-resize_1-target.png,125,3.62,7,2606,130,meters,jsons/VE125_randls_43.json,931446,1074788,35,Woman
60,946823,DepthScenes,duration_manipulation_targetAtFixation,jsons/VE125_randls_43.json,http://54.235.29.9/FacialAge/BNav_EC2/DepthDuration/v2_depth_duration_MTurk/v2_DepthDuration_HTML.html#26,26,1366,625,1366,768,8-21-2022,10-35-38,61,depth_duration_stimuli/000691_2014-06-08_13-08-50_260595134347_rgbf000132-resize_3/000691_2014-06-08_13-08-50_260595134347_rgbf000132-resize_3-target.png,125,4.1530000000000005,4,2534,122,meters,jsons/VE125_randls_43.json,931446,1074788,35,Woman
61,946823,DepthScenes,duration_manipulation_targetAtFixation,jsons/VE125_randls_43.json,http://54.235.29.9/FacialAge/BNav_EC2/DepthDuration/v2_depth_duration_MTurk/v2_DepthDuration_HTML.html#26,26,1366,625,1366,768,8-21-2022,10-35-38,62,depth_duration_stimuli/000414_2014-06-04_19-49-13_260595134347_rgbf000044-resize_0/000414_2014-06-04_19-49-13_260595134347_rgbf000044-resize_0-target.png,125,4.329,4,2535,113,meters,jsons/VE125_randls_43.json,931446,1074788,35,Woman
62,946823,DepthScenes,duration_manipulation_targetAtFixation,jsons/VE125_randls_43.json,http://54.235.29.9/FacialAge/BNav_EC2/DepthDuration/v2_depth_duration_MTurk/v2_DepthDuration_HTML.html#26,26,1366,625,1366,768,8-21-2022,10-35-38,63,depth_duration_stimuli/003129_2014-05-12_10-48-10_094959634447_rgbf000100-resize_0/003129_2014-05-12_10-48-10_094959634447_rgbf000100-resize_0-target.png,125,4.9305,5,2973,126,meters,jsons/VE125_randls_43.json,931446,1074788,35,Woman
63,946823,DepthScenes,duration_manipulation_targetAtFixation,jsons/VE125_randls_43.json,http://54.235.29.9/FacialAge/BNav_EC2/DepthDuration/v2_depth_duration_MTurk/v2_DepthDuration_HTML.html#26,26,1366,625,1366,768,8-21-2022,10-35-38,64,depth_duration_stimuli/002905_2014-06-03_18-04-43_094959634447_rgbf000151-resize_2/002905_2014-06-03_18-04-43_094959634447_rgbf000151-resize_2-target.png,125,2.0295,7,2581,122,meters,jsons/VE125_randls_43.json,931446,1074788,35,Woman
64,946823,DepthScenes,duration_manipulation_targetAtFixation,jsons/VE125_randls_43.json,http://54.235.29.9/FacialAge/BNav_EC2/DepthDuration/v2_depth_duration_MTurk/v2_DepthDuration_HTML.html#26,26,1366,625,1366,768,8-21-2022,10-35-38,65,depth_duration_stimuli/003423_2014-05-21_10-23-26_094959634447_rgbf002665-resize_2/003423_2014-05-21_10-23-26_094959634447_rgbf002665-resize_2-target.png,125,3.2575,4,2535,125,meters,jsons/VE125_randls_43.json,931446,1074788,35,Woman
65,946823,DepthScenes,duration_manipulation_targetAtFixation,jsons/VE125_randls_43.json,http://54.235.29.9/FacialAge/BNav_EC2/DepthDuration/v2_depth_duration_MTurk/v2_DepthDuration_HTML.html#26,26,1366,625,1366,768,8-21-2022,10-35-38,66,depth_duration_stimuli/001222_2014-06-17_16-24-06_260595134347_rgbf000073-resize_0/001222_2014-06-17_16-24-06_260595134347_rgbf000073-resize-original.jpg,125,1.4385,6,2432,132,meters,jsons/VE125_randls_43.json,931446,1074788,35,Woman
66,946823,DepthScenes,duration_manipulation_targetAtFixation,jsons/VE125_randls_43.json,http://54.235.29.9/FacialAge/BNav_EC2/DepthDuration/v2_depth_duration_MTurk/v2_DepthDuration_HTML.html#26,26,1366,625,1366,768,8-21-2022,10-35-38,67,depth_duration_stimuli/002272_2014-06-28_18-53-56_260595134347_rgbf000067-resize_2/002272_2014-06-28_18-53-56_260595134347_rgbf000067-resize_2-target.png,125,1.138,4,2938,114,meters,jsons/VE125_randls_43.json,931446,1074788,35,Woman
67,946823,DepthScenes,duration_manipulation_targetAtFixation,jsons/VE125_randls_43.json,http://54.235.29.9/FacialAge/BNav_EC2/DepthDuration/v2_depth_duration_MTurk/v2_DepthDuration_HTML.html#26,26,1366,625,1366,768,8-21-2022,10-35-38,68,depth_duration_stimuli/001571_2014-06-20_17-21-32_260595134347_rgbf000089-resize_1/001571_2014-06-20_17-21-32_260595134347_rgbf000089-resize_1-target.png,125,1.86,4,2995,110,meters,jsons/VE125_randls_43.json,931446,1074788,35,Woman
68,946823,DepthScenes,duration_manipulation_targetAtFixation,jsons/VE125_randls_43.json,http://54.235.29.9/FacialAge/BNav_EC2/DepthDuration/v2_depth_duration_MTurk/v2_DepthDuration_HTML.html#26,26,1366,625,1366,768,8-21-2022,10-35-38,69,depth_duration_stimuli/002118_2014-06-25_20-32-08_260595134347_rgbf000078-resize_1/002118_2014-06-25_20-32-08_260595134347_rgbf000078-resize_1-target.png,125,2.6460000000000004,4,2554,125,meters,jsons/VE125_randls_43.json,931446,1074788,35,Woman
69,946823,DepthScenes,duration_manipulation_targetAtFixation,jsons/VE125_randls_43.json,http://54.235.29.9/FacialAge/BNav_EC2/DepthDuration/v2_depth_duration_MTurk/v2_DepthDuration_HTML.html#26,26,1366,625,1366,768,8-21-2022,10-35-38,70,depth_duration_stimuli/001516_2014-06-20_16-25-09_260595134347_rgbf000076-resize_2/001516_2014-06-20_16-25-09_260595134347_rgbf000076-resize_2-target.png,125,1.7445,5,2860,133,meters,jsons/VE125_randls_43.json,931446,1074788,35,Woman
70,946823,DepthScenes,duration_manipulation_targetAtFixation,jsons/VE125_randls_43.json,http://54.235.29.9/FacialAge/BNav_EC2/DepthDuration/v2_depth_duration_MTurk/v2_DepthDuration_HTML.html#26,26,1366,625,1366,768,8-21-2022,10-35-38,71,depth_duration_stimuli/002763_2014-06-22_19-13-10_094959634447_rgbf000075-resize_4/002763_2014-06-22_19-13-10_094959634447_rgbf000075-resize_4-target.png,125,1.68375,5,2155,124,meters,jsons/VE125_randls_43.json,931446,1074788,35,Woman
71,946823,DepthScenes,duration_manipulation_targetAtFixation,jsons/VE125_randls_43.json,http://54.235.29.9/FacialAge/BNav_EC2/DepthDuration/v2_depth_duration_MTurk/v2_DepthDuration_HTML.html#26,26,1366,625,1366,768,8-21-2022,10-35-38,72,depth_duration_stimuli/002209_2014-06-28_18-36-10_260595134347_rgbf000051-resize_1/002209_2014-06-28_18-36-10_260595134347_rgbf000051-resize_1-target.png,125,2.057,5,2664,128,meters,jsons/VE125_randls_43.json,931446,1074788,35,Woman
72,946823,DepthScenes,duration_manipulation_targetAtFixation,jsons/VE125_randls_43.json,http://54.235.29.9/FacialAge/BNav_EC2/DepthDuration/v2_depth_duration_MTurk/v2_DepthDuration_HTML.html#26,26,1366,625,1366,768,8-21-2022,10-35-38,73,depth_duration_stimuli/001570_2014-06-20_17-21-09_260595134347_rgbf000135-resize_4/001570_2014-06-20_17-21-09_260595134347_rgbf000135-resize_4-target.png,125,4.467,0,2780,125,meters,jsons/VE125_randls_43.json,931446,1074788,35,Woman
73,946823,DepthScenes,duration_manipulation_targetAtFixation,jsons/VE125_randls_43.json,http://54.235.29.9/FacialAge/BNav_EC2/DepthDuration/v2_depth_duration_MTurk/v2_DepthDuration_HTML.html#26,26,1366,625,1366,768,8-21-2022,10-35-38,74,depth_duration_stimuli/001392_2014-06-19_16-07-59_260595134347_rgbf000046-resize_1/001392_2014-06-19_16-07-59_260595134347_rgbf000046-resize_1-target.png,125,4.135,5,2567,119,meters,jsons/VE125_randls_43.json,931446,1074788,35,Woman
74,946823,DepthScenes,duration_manipulation_targetAtFixation,jsons/VE125_randls_43.json,http://54.235.29.9/FacialAge/BNav_EC2/DepthDuration/v2_depth_duration_MTurk/v2_DepthDuration_HTML.html#26,26,1366,625,1366,768,8-21-2022,10-35-38,75,depth_duration_stimuli/002509_2014-06-24_13-19-22_094959634447_rgbf000077-resize_0/002509_2014-06-24_13-19-22_094959634447_rgbf000077-resize_0-target.png,125,1.3065,5,2639,127,meters,jsons/VE125_randls_43.json,931446,1074788,35,Woman
75,946823,DepthScenes,duration_manipulation_targetAtFixation,jsons/VE125_randls_43.json,http://54.235.29.9/FacialAge/BNav_EC2/DepthDuration/v2_depth_duration_MTurk/v2_DepthDuration_HTML.html#26,26,1366,625,1366,768,8-21-2022,10-35-38,76,depth_duration_stimuli/003338_2014-05-20_11-01-23_094959634447_rgbf000051-resize_6/003338_2014-05-20_11-01-23_094959634447_rgbf000051-resize_6-target.png,125,1.693,4,2733,125,meters,jsons/VE125_randls_43.json,931446,1074788,35,Woman
76,946823,DepthScenes,duration_manipulation_targetAtFixation,jsons/VE125_randls_43.json,http://54.235.29.9/FacialAge/BNav_EC2/DepthDuration/v2_depth_duration_MTurk/v2_DepthDuration_HTML.html#26,26,1366,625,1366,768,8-21-2022,10-35-38,77,depth_duration_stimuli/000682_2014-06-08_23-14-58_260595134347_rgbf000041-resize_5/000682_2014-06-08_23-14-58_260595134347_rgbf000041-resize_5-target.png,125,2.7239999999999998,3,2939,131,meters,jsons/VE125_randls_43.json,931446,1074788,35,Woman
77,946823,DepthScenes,duration_manipulation_targetAtFixation,jsons/VE125_randls_43.json,http://54.235.29.9/FacialAge/BNav_EC2/DepthDuration/v2_depth_duration_MTurk/v2_DepthDuration_HTML.html#26,26,1366,625,1366,768,8-21-2022,10-35-38,78,depth_duration_stimuli/001650_2014-06-20_12-09-00_260595134347_rgbf000087-resize_3/001650_2014-06-20_12-09-00_260595134347_rgbf000087-resize_3-target.png,125,1.9505,8,2586,109,meters,jsons/VE125_randls_43.json,931446,1074788,35,Woman
78,946823,DepthScenes,duration_manipulation_targetAtFixation,jsons/VE125_randls_43.json,http://54.235.29.9/FacialAge/BNav_EC2/DepthDuration/v2_depth_duration_MTurk/v2_DepthDuration_HTML.html#26,26,1366,625,1366,768,8-21-2022,10-35-38,79,depth_duration_stimuli/001066_2014-06-08_22-03-20_260595134347_rgbf000066-resize_4/001066_2014-06-08_22-03-20_260595134347_rgbf000066-resize_4-target.png,125,4.2330000000000005,5,6501,113,meters,jsons/VE125_randls_43.json,931446,1074788,35,Woman
79,946823,DepthScenes,duration_manipulation_targetAtFixation,jsons/VE125_randls_43.json,http://54.235.29.9/FacialAge/BNav_EC2/DepthDuration/v2_depth_duration_MTurk/v2_DepthDuration_HTML.html#26,26,1366,625,1366,768,8-21-2022,10-35-38,80,depth_duration_stimuli/000742_2014-06-08_18-48-09_260595134347_rgbf000164-resize_4/000742_2014-06-08_18-48-09_260595134347_rgbf000164-resize_4-target.png,125,4.632,5,3000,109,meters,jsons/VE125_randls_43.json,931446,1074788,35,Woman
80,946823,DepthScenes,duration_manipulation_targetAtFixation,jsons/VE125_randls_43.json,http://54.235.29.9/FacialAge/BNav_EC2/DepthDuration/v2_depth_duration_MTurk/v2_DepthDuration_HTML.html#26,26,1366,625,1366,768,8-21-2022,10-35-38,81,depth_duration_stimuli/002989_2014-06-15_12-25-03_094959634447_rgbf000150-resize_3/002989_2014-06-15_12-25-03_094959634447_rgbf000150-resize_3-target.png,125,4.1975,5,2905,138,meters,jsons/VE125_randls_43.json,931446,1074788,35,Woman
81,946823,DepthScenes,duration_manipulation_targetAtFixation,jsons/VE125_randls_43.json,http://54.235.29.9/FacialAge/BNav_EC2/DepthDuration/v2_depth_duration_MTurk/v2_DepthDuration_HTML.html#26,26,1366,625,1366,768,8-21-2022,10-35-38,82,depth_duration_stimuli/000866_2014-06-09_20-45-42_260595134347_rgbf000139-resize_1/000866_2014-06-09_20-45-42_260595134347_rgbf000139-resize_1-target.png,125,3.2155,7,2679,124,meters,jsons/VE125_randls_43.json,931446,1074788,35,Woman
82,946823,DepthScenes,duration_manipulation_targetAtFixation,jsons/VE125_randls_43.json,http://54.235.29.9/FacialAge/BNav_EC2/DepthDuration/v2_depth_duration_MTurk/v2_DepthDuration_HTML.html#26,26,1366,625,1366,768,8-21-2022,10-35-38,83,depth_duration_stimuli/001417_2014-06-19_16-25-36_260595134347_rgbf000115-resize_5/001417_2014-06-19_16-25-36_260595134347_rgbf000115-resize_5-target.png,125,4.6255,4,2821,139,meters,jsons/VE125_randls_43.json,931446,1074788,35,Woman
83,946823,DepthScenes,duration_manipulation_targetAtFixation,jsons/VE125_randls_43.json,http://54.235.29.9/FacialAge/BNav_EC2/DepthDuration/v2_depth_duration_MTurk/v2_DepthDuration_HTML.html#26,26,1366,625,1366,768,8-21-2022,10-35-38,84,depth_duration_stimuli/003081_2014-06-15_15-19-16_094959634447_rgbf000150-resize_1/003081_2014-06-15_15-19-16_094959634447_rgbf000150-resize_1-target.png,125,3.9125,5,2830,132,meters,jsons/VE125_randls_43.json,931446,1074788,35,Woman
84,946823,DepthScenes,duration_manipulation_targetAtFixation,jsons/VE125_randls_43.json,http://54.235.29.9/FacialAge/BNav_EC2/DepthDuration/v2_depth_duration_MTurk/v2_DepthDuration_HTML.html#26,26,1366,625,1366,768,8-21-2022,10-35-38,85,depth_duration_stimuli/001175_2014-06-17_15-45-55_260595134347_rgbf000129-resize_4/001175_2014-06-17_15-45-55_260595134347_rgbf000129-resize_4-target.png,125,4.255,0,35789,124,meters,jsons/VE125_randls_43.json,931446,1074788,35,Woman
85,946823,DepthScenes,duration_manipulation_targetAtFixation,jsons/VE125_randls_43.json,http://54.235.29.9/FacialAge/BNav_EC2/DepthDuration/v2_depth_duration_MTurk/v2_DepthDuration_HTML.html#26,26,1366,625,1366,768,8-21-2022,10-35-38,86,depth_duration_stimuli/003490_2014-05-21_15-50-11_094959634447_rgbf000101-resize_3/003490_2014-05-21_15-50-11_094959634447_rgbf000101-resize_3-target.png,125,3.6445,2,2755,123,meters,jsons/VE125_randls_43.json,931446,1074788,35,Woman
86,946823,DepthScenes,duration_manipulation_targetAtFixation,jsons/VE125_randls_43.json,http://54.235.29.9/FacialAge/BNav_EC2/DepthDuration/v2_depth_duration_MTurk/v2_DepthDuration_HTML.html#26,26,1366,625,1366,768,8-21-2022,10-35-38,87,depth_duration_stimuli/000788_2014-06-08_22-34-36_260595134347_rgbf000131-resize_1/000788_2014-06-08_22-34-36_260595134347_rgbf000131-resize_1-target.png,125,3.359,5,3048,108,meters,jsons/VE125_randls_43.json,931446,1074788,35,Woman
87,946823,DepthScenes,duration_manipulation_targetAtFixation,jsons/VE125_randls_43.json,http://54.235.29.9/FacialAge/BNav_EC2/DepthDuration/v2_depth_duration_MTurk/v2_DepthDuration_HTML.html#26,26,1366,625,1366,768,8-21-2022,10-35-38,88,depth_duration_stimuli/001235_2014-06-17_16-37-36_260595134347_rgbf000084-resize_4/001235_2014-06-17_16-37-36_260595134347_rgbf000084-resize_4-target.png,125,3.6605,4,3866,123,meters,jsons/VE125_randls_43.json,931446,1074788,35,Woman
88,946823,DepthScenes,duration_manipulation_targetAtFixation,jsons/VE125_randls_43.json,http://54.235.29.9/FacialAge/BNav_EC2/DepthDuration/v2_depth_duration_MTurk/v2_DepthDuration_HTML.html#26,26,1366,625,1366,768,8-21-2022,10-35-38,89,depth_duration_stimuli/000810_2014-06-08_17-20-01_260595134347_rgbf000105-resize_0/000810_2014-06-08_17-20-01_260595134347_rgbf000105-resize_0-target.png,125,1.4865,5,2558,110,meters,jsons/VE125_randls_43.json,931446,1074788,35,Woman
89,946823,DepthScenes,duration_manipulation_targetAtFixation,jsons/VE125_randls_43.json,http://54.235.29.9/FacialAge/BNav_EC2/DepthDuration/v2_depth_duration_MTurk/v2_DepthDuration_HTML.html#26,26,1366,625,1366,768,8-21-2022,10-35-38,90,depth_duration_stimuli/001214_2014-06-17_16-13-55_260595134347_rgbf000111-resize_0/001214_2014-06-17_16-13-55_260595134347_rgbf000111-resize_0-target.png,125,2.6505,5,2407,126,meters,jsons/VE125_randls_43.json,931446,1074788,35,Woman
90,946823,DepthScenes,duration_manipulation_targetAtFixation,jsons/VE125_randls_43.json,http://54.235.29.9/FacialAge/BNav_EC2/DepthDuration/v2_depth_duration_MTurk/v2_DepthDuration_HTML.html#26,26,1366,625,1366,768,8-21-2022,10-35-38,91,depth_duration_stimuli/002279_2014-06-28_18-55-32_260595134347_rgbf000040-resize_5/002279_2014-06-28_18-55-32_260595134347_rgbf000040-resize_5-target.png,125,1.5043333333333,6,2541,125,meters,jsons/VE125_randls_43.json,931446,1074788,35,Woman
91,946823,DepthScenes,duration_manipulation_targetAtFixation,jsons/VE125_randls_43.json,http://54.235.29.9/FacialAge/BNav_EC2/DepthDuration/v2_depth_duration_MTurk/v2_DepthDuration_HTML.html#26,26,1366,625,1366,768,8-21-2022,10-35-38,92,depth_duration_stimuli/000635_2014-06-08_16-38-42_260595134347_rgbf000106-resize_1/000635_2014-06-08_16-38-42_260595134347_rgbf000106-resize_1-target.png,125,2.074,4,2554,126,meters,jsons/VE125_randls_43.json,931446,1074788,35,Woman
92,946823,DepthScenes,duration_manipulation_targetAtFixation,jsons/VE125_randls_43.json,http://54.235.29.9/FacialAge/BNav_EC2/DepthDuration/v2_depth_duration_MTurk/v2_DepthDuration_HTML.html#26,26,1366,625,1366,768,8-21-2022,10-35-38,93,depth_duration_stimuli/001110_2014-06-15_17-25-28_260595134347_rgbf000150-resize_1/001110_2014-06-15_17-25-28_260595134347_rgbf000150-resize_1-target.png,125,1.7115,3,3177,125,meters,jsons/VE125_randls_43.json,931446,1074788,35,Woman
93,946823,DepthScenes,duration_manipulation_targetAtFixation,jsons/VE125_randls_43.json,http://54.235.29.9/FacialAge/BNav_EC2/DepthDuration/v2_depth_duration_MTurk/v2_DepthDuration_HTML.html#26,26,1366,625,1366,768,8-21-2022,10-35-38,94,depth_duration_stimuli/000927_2014-06-09_16-32-30_260595134347_rgbf000123-resize_3/000927_2014-06-09_16-32-30_260595134347_rgbf000123-resize_3-target.png,125,2.6785,4,3285,123,meters,jsons/VE125_randls_43.json,931446,1074788,35,Woman
94,946823,DepthScenes,duration_manipulation_targetAtFixation,jsons/VE125_randls_43.json,http://54.235.29.9/FacialAge/BNav_EC2/DepthDuration/v2_depth_duration_MTurk/v2_DepthDuration_HTML.html#26,26,1366,625,1366,768,8-21-2022,10-35-38,95,depth_duration_stimuli/002600_2014-06-24_14-27-04_094959634447_rgbf000074-resize_2/002600_2014-06-24_14-27-04_094959634447_rgbf000074-resize_2-target.png,125,2.7575,5,3069,125,meters,jsons/VE125_randls_43.json,931446,1074788,35,Woman
95,946823,DepthScenes,duration_manipulation_targetAtFixation,jsons/VE125_randls_43.json,http://54.235.29.9/FacialAge/BNav_EC2/DepthDuration/v2_depth_duration_MTurk/v2_DepthDuration_HTML.html#26,26,1366,625,1366,768,8-21-2022,10-35-38,96,depth_duration_stimuli/003228_2014-05-14_13-42-35_094959634447_rgbf000101-resize_1/003228_2014-05-14_13-42-35_094959634447_rgbf000101-resize_1-target.png,125,1.9680000000000002,7,2550,127,meters,jsons/VE125_randls_43.json,931446,1074788,35,Woman
96,946823,DepthScenes,duration_manipulation_targetAtFixation,jsons/VE125_randls_43.json,http://54.235.29.9/FacialAge/BNav_EC2/DepthDuration/v2_depth_duration_MTurk/v2_DepthDuration_HTML.html#26,26,1366,625,1366,768,8-21-2022,10-35-38,97,depth_duration_stimuli/000917_2014-06-09_22-45-29_260595134347_rgbf000149-resize_3/000917_2014-06-09_22-45-29_260595134347_rgbf000149-resize_3-target.png,125,4.1865,4,2570,128,meters,jsons/VE125_randls_43.json,931446,1074788,35,Woman
97,946823,DepthScenes,duration_manipulation_targetAtFixation,jsons/VE125_randls_43.json,http://54.235.29.9/FacialAge/BNav_EC2/DepthDuration/v2_depth_duration_MTurk/v2_DepthDuration_HTML.html#26,26,1366,625,1366,768,8-21-2022,10-35-38,98,depth_duration_stimuli/002323_2014-06-28_20-01-54_260595134347_rgbf000051-resize_4/002323_2014-06-28_20-01-54_260595134347_rgbf000051-resize_4-target.png,125,3.7310000000000003,5,2452,125,meters,jsons/VE125_randls_43.json,931446,1074788,35,Woman
98,946823,DepthScenes,duration_manipulation_targetAtFixation,jsons/VE125_randls_43.json,http://54.235.29.9/FacialAge/BNav_EC2/DepthDuration/v2_depth_duration_MTurk/v2_DepthDuration_HTML.html#26,26,1366,625,1366,768,8-21-2022,10-35-38,99,depth_duration_stimuli/001540_2014-06-20_17-01-05_260595134347_rgbf000086-resize_2/001540_2014-06-20_17-01-05_260595134347_rgbf000086-resize-original.jpg,125,1.459,5,2874,123,meters,jsons/VE125_randls_43.json,931446,1074788,35,Woman
99,946823,DepthScenes,duration_manipulation_targetAtFixation,jsons/VE125_randls_43.json,http://54.235.29.9/FacialAge/BNav_EC2/DepthDuration/v2_depth_duration_MTurk/v2_DepthDuration_HTML.html#26,26,1366,625,1366,768,8-21-2022,10-35-38,100,depth_duration_stimuli/001158_2014-06-17_15-32-16_260595134347_rgbf000138-resize_2/001158_2014-06-17_15-32-16_260595134347_rgbf000138-resize_2-target.png,125,4.5315,5,2321,122,meters,jsons/VE125_randls_43.json,931446,1074788,35,Woman
100,946823,DepthScenes,duration_manipulation_targetAtFixation,jsons/VE125_randls_43.json,http://54.235.29.9/FacialAge/BNav_EC2/DepthDuration/v2_depth_duration_MTurk/v2_DepthDuration_HTML.html#26,26,1366,625,1366,768,8-21-2022,10-35-38,101,depth_duration_stimuli/000556_2014-06-09_22-42-56_260595134347_rgbf000214-resize_1/000556_2014-06-09_22-42-56_260595134347_rgbf000214-resize_1-target.png,125,4.8415,4,2500,125,meters,jsons/VE125_randls_43.json,931446,1074788,35,Woman
101,946823,DepthScenes,duration_manipulation_targetAtFixation,jsons/VE125_randls_43.json,http://54.235.29.9/FacialAge/BNav_EC2/DepthDuration/v2_depth_duration_MTurk/v2_DepthDuration_HTML.html#26,26,1366,625,1366,768,8-21-2022,10-35-38,102,depth_duration_stimuli/000436_2014-06-09_22-25-11_260595134347_rgbf000137-resize_1/000436_2014-06-09_22-25-11_260595134347_rgbf000137-resize_1-target.png,125,4.0705,7,2488,123,meters,jsons/VE125_randls_43.json,931446,1074788,35,Woman
102,946823,DepthScenes,duration_manipulation_targetAtFixation,jsons/VE125_randls_43.json,http://54.235.29.9/FacialAge/BNav_EC2/DepthDuration/v2_depth_duration_MTurk/v2_DepthDuration_HTML.html#26,26,1366,625,1366,768,8-21-2022,10-35-38,103,depth_duration_stimuli/002444_2014-06-28_20-32-08_260595134347_rgbf000027-resize_0/002444_2014-06-28_20-32-08_260595134347_rgbf000027-resize_0-target.png,125,4.388999999999999,4,3417,124,meters,jsons/VE125_randls_43.json,931446,1074788,35,Woman
103,946823,DepthScenes,duration_manipulation_targetAtFixation,jsons/VE125_randls_43.json,http://54.235.29.9/FacialAge/BNav_EC2/DepthDuration/v2_depth_duration_MTurk/v2_DepthDuration_HTML.html#26,26,1366,625,1366,768,8-21-2022,10-35-38,104,depth_duration_stimuli/001011_2014-06-08_23-18-54_260595134347_rgbf000044-resize_4/001011_2014-06-08_23-18-54_260595134347_rgbf000044-resize_4-target.png,125,2.4730000000000003,7,2718,124,meters,jsons/VE125_randls_43.json,931446,1074788,35,Woman
104,946823,DepthScenes,duration_manipulation_targetAtFixation,jsons/VE125_randls_43.json,http://54.235.29.9/FacialAge/BNav_EC2/DepthDuration/v2_depth_duration_MTurk/v2_DepthDuration_HTML.html#26,26,1366,625,1366,768,8-21-2022,10-35-38,105,depth_duration_stimuli/002875_2014-06-01_15-19-00_094959634447_rgbf000151-resize_1/002875_2014-06-01_15-19-00_094959634447_rgbf000151-resize_1-target.png,125,1.9675,8,2582,121,meters,jsons/VE125_randls_43.json,931446,1074788,35,Woman
105,946823,DepthScenes,duration_manipulation_targetAtFixation,jsons/VE125_randls_43.json,http://54.235.29.9/FacialAge/BNav_EC2/DepthDuration/v2_depth_duration_MTurk/v2_DepthDuration_HTML.html#26,26,1366,625,1366,768,8-21-2022,10-35-38,106,depth_duration_stimuli/003492_2014-05-21_15-50-55_094959634447_rgbf000828-resize_1/003492_2014-05-21_15-50-55_094959634447_rgbf000828-resize_1-target.png,125,4.06875,5,2556,122,meters,jsons/VE125_randls_43.json,931446,1074788,35,Woman
106,946823,DepthScenes,duration_manipulation_targetAtFixation,jsons/VE125_randls_43.json,http://54.235.29.9/FacialAge/BNav_EC2/DepthDuration/v2_depth_duration_MTurk/v2_DepthDuration_HTML.html#26,26,1366,625,1366,768,8-21-2022,10-35-38,107,depth_duration_stimuli/002568_2014-06-24_13-59-21_094959634447_rgbf000062-resize_4/002568_2014-06-24_13-59-21_094959634447_rgbf000062-resize_4-target.png,125,3.015,5,2375,119,meters,jsons/VE125_randls_43.json,931446,1074788,35,Woman
107,946823,DepthScenes,duration_manipulation_targetAtFixation,jsons/VE125_randls_43.json,http://54.235.29.9/FacialAge/BNav_EC2/DepthDuration/v2_depth_duration_MTurk/v2_DepthDuration_HTML.html#26,26,1366,625,1366,768,8-21-2022,10-35-38,108,depth_duration_stimuli/001164_2014-06-17_15-35-46_260595134347_rgbf000085-resize_3/001164_2014-06-17_15-35-46_260595134347_rgbf000085-resize_3-target.png,125,2.354,4,2504,127,meters,jsons/VE125_randls_43.json,931446,1074788,35,Woman
108,946823,DepthScenes,duration_manipulation_targetAtFixation,jsons/VE125_randls_43.json,http://54.235.29.9/FacialAge/BNav_EC2/DepthDuration/v2_depth_duration_MTurk/v2_DepthDuration_HTML.html#26,26,1366,625,1366,768,8-21-2022,10-35-38,109,depth_duration_stimuli/001136_2014-06-17_15-19-41_260595134347_rgbf000076-resize_3/001136_2014-06-17_15-19-41_260595134347_rgbf000076-resize_3-target.png,125,1.8655,5,2456,116,meters,jsons/VE125_randls_43.json,931446,1074788,35,Woman
109,946823,DepthScenes,duration_manipulation_targetAtFixation,jsons/VE125_randls_43.json,http://54.235.29.9/FacialAge/BNav_EC2/DepthDuration/v2_depth_duration_MTurk/v2_DepthDuration_HTML.html#26,26,1366,625,1366,768,8-21-2022,10-35-38,110,depth_duration_stimuli/000506_2014-06-08_23-21-00_260595134347_rgbf000070-resize_7/000506_2014-06-08_23-21-00_260595134347_rgbf000070-resize_7-target.png,125,4.0585,8,2421,129,meters,jsons/VE125_randls_43.json,931446,1074788,35,Woman
110,946823,DepthScenes,duration_manipulation_targetAtFixation,jsons/VE125_randls_43.json,http://54.235.29.9/FacialAge/BNav_EC2/DepthDuration/v2_depth_duration_MTurk/v2_DepthDuration_HTML.html#26,26,1366,625,1366,768,8-21-2022,10-35-38,111,depth_duration_stimuli/003079_2014-06-15_15-18-20_094959634447_rgbf000152-resize_8/003079_2014-06-15_15-18-20_094959634447_rgbf000152-resize_8-target.png,125,2.8775,4,2651,124,meters,jsons/VE125_randls_43.json,931446,1074788,35,Woman
111,946823,DepthScenes,duration_manipulation_targetAtFixation,jsons/VE125_randls_43.json,http://54.235.29.9/FacialAge/BNav_EC2/DepthDuration/v2_depth_duration_MTurk/v2_DepthDuration_HTML.html#26,26,1366,625,1366,768,8-21-2022,10-35-38,112,depth_duration_stimuli/000493_2014-06-09_21-01-18_260595134347_rgbf000196-resize_3/000493_2014-06-09_21-01-18_260595134347_rgbf000196-resize_3-target.png,125,3.44,4,3488,128,meters,jsons/VE125_randls_43.json,931446,1074788,35,Woman
112,946823,DepthScenes,duration_manipulation_targetAtFixation,jsons/VE125_randls_43.json,http://54.235.29.9/FacialAge/BNav_EC2/DepthDuration/v2_depth_duration_MTurk/v2_DepthDuration_HTML.html#26,26,1366,625,1366,768,8-21-2022,10-35-38,113,depth_duration_stimuli/000191_2014-05-12_17-07-38_260595134347_rgbf000199-resize_0/000191_2014-05-12_17-07-38_260595134347_rgbf000199-resize_0-target.png,125,3.7995,0,78416,113,meters,jsons/VE125_randls_43.json,931446,1074788,35,Woman
113,946823,DepthScenes,duration_manipulation_targetAtFixation,jsons/VE125_randls_43.json,http://54.235.29.9/FacialAge/BNav_EC2/DepthDuration/v2_depth_duration_MTurk/v2_DepthDuration_HTML.html#26,26,1366,625,1366,768,8-21-2022,10-35-38,114,depth_duration_stimuli/000486_2014-06-09_20-47-20_260595134347_rgbf000143-resize_2/000486_2014-06-09_20-47-20_260595134347_rgbf000143-resize_2-target.png,125,4.8325,6,2793,123,meters,jsons/VE125_randls_43.json,931446,1074788,35,Woman
114,946823,DepthScenes,duration_manipulation_targetAtFixation,jsons/VE125_randls_43.json,http://54.235.29.9/FacialAge/BNav_EC2/DepthDuration/v2_depth_duration_MTurk/v2_DepthDuration_HTML.html#26,26,1366,625,1366,768,8-21-2022,10-35-38,115,depth_duration_stimuli/003083_2014-06-15_15-21-03_094959634447_rgbf000063-resize_1/003083_2014-06-15_15-21-03_094959634447_rgbf000063-resize_1-target.png,125,4.1405,5,2558,126,meters,jsons/VE125_randls_43.json,931446,1074788,35,Woman
115,946823,DepthScenes,duration_manipulation_targetAtFixation,jsons/VE125_randls_43.json,http://54.235.29.9/FacialAge/BNav_EC2/DepthDuration/v2_depth_duration_MTurk/v2_DepthDuration_HTML.html#26,26,1366,625,1366,768,8-21-2022,10-35-38,116,depth_duration_stimuli/001170_2014-06-17_15-43-44_260595134347_rgbf000096-resize_6/001170_2014-06-17_15-43-44_260595134347_rgbf000096-resize-original.jpg,125,1.1909999999999998,5,3526,125,meters,jsons/VE125_randls_43.json,931446,1074788,35,Woman
116,946823,DepthScenes,duration_manipulation_targetAtFixation,jsons/VE125_randls_43.json,http://54.235.29.9/FacialAge/BNav_EC2/DepthDuration/v2_depth_duration_MTurk/v2_DepthDuration_HTML.html#26,26,1366,625,1366,768,8-21-2022,10-35-38,117,depth_duration_stimuli/000469_2014-06-09_19-42-10_260595134347_rgbf000081-resize_1/000469_2014-06-09_19-42-10_260595134347_rgbf000081-resize_1-target.png,125,1.652,4,2820,126,meters,jsons/VE125_randls_43.json,931446,1074788,35,Woman
117,946823,DepthScenes,duration_manipulation_targetAtFixation,jsons/VE125_randls_43.json,http://54.235.29.9/FacialAge/BNav_EC2/DepthDuration/v2_depth_duration_MTurk/v2_DepthDuration_HTML.html#26,26,1366,625,1366,768,8-21-2022,10-35-38,118,depth_duration_stimuli/000483_2014-06-09_20-41-45_260595134347_rgbf000116-resize_4/000483_2014-06-09_20-41-45_260595134347_rgbf000116-resize_4-target.png,125,1.337,4,2697,122,meters,jsons/VE125_randls_43.json,931446,1074788,35,Woman
118,946823,DepthScenes,duration_manipulation_targetAtFixation,jsons/VE125_randls_43.json,http://54.235.29.9/FacialAge/BNav_EC2/DepthDuration/v2_depth_duration_MTurk/v2_DepthDuration_HTML.html#26,26,1366,625,1366,768,8-21-2022,10-35-38,119,depth_duration_stimuli/001449_2014-06-19_17-01-27_260595134347_rgbf000116-resize_2/001449_2014-06-19_17-01-27_260595134347_rgbf000116-resize_2-target.png,125,3.452,4,2989,127,meters,jsons/VE125_randls_43.json,931446,1074788,35,Woman
119,946823,DepthScenes,duration_manipulation_targetAtFixation,jsons/VE125_randls_43.json,http://54.235.29.9/FacialAge/BNav_EC2/DepthDuration/v2_depth_duration_MTurk/v2_DepthDuration_HTML.html#26,26,1366,625,1366,768,8-21-2022,10-35-38,120,depth_duration_stimuli/001450_2014-06-19_17-02-03_260595134347_rgbf000203-resize_4/001450_2014-06-19_17-02-03_260595134347_rgbf000203-resize_4-target.png,125,4.0106666666667,7,2983,126,meters,jsons/VE125_randls_43.json,931446,1074788,35,Woman
120,946823,DepthScenes,duration_manipulation_targetAtFixation,jsons/VE125_randls_43.json,http://54.235.29.9/FacialAge/BNav_EC2/DepthDuration/v2_depth_duration_MTurk/v2_DepthDuration_HTML.html#26,26,1366,625,1366,768,8-21-2022,10-35-38,121,depth_duration_stimuli/001244_2014-06-17_16-47-45_260595134347_rgbf000030-resize_4/001244_2014-06-17_16-47-45_260595134347_rgbf000030-resize_4-target.png,125,2.0425,5,2439,122,meters,jsons/VE125_randls_43.json,931446,1074788,35,Woman
121,946823,DepthScenes,duration_manipulation_targetAtFixation,jsons/VE125_randls_43.json,http://54.235.29.9/FacialAge/BNav_EC2/DepthDuration/v2_depth_duration_MTurk/v2_DepthDuration_HTML.html#26,26,1366,625,1366,768,8-21-2022,10-35-38,122,depth_duration_stimuli/003495_2014-05-21_16-01-51_094959634447_rgbf000100-resize_3/003495_2014-05-21_16-01-51_094959634447_rgbf000100-resize_3-target.png,125,1.6255,8,2621,125,meters,jsons/VE125_randls_43.json,931446,1074788,35,Woman
122,946823,DepthScenes,duration_manipulation_targetAtFixation,jsons/VE125_randls_43.json,http://54.235.29.9/FacialAge/BNav_EC2/DepthDuration/v2_depth_duration_MTurk/v2_DepthDuration_HTML.html#26,26,1366,625,1366,768,8-21-2022,10-35-38,123,depth_duration_stimuli/000009_2014-05-26_14-32-05_260595134347_rgbf000034-resize_3/000009_2014-05-26_14-32-05_260595134347_rgbf000034-resize_3-target.png,125,3.8715,4,2535,126,meters,jsons/VE125_randls_43.json,931446,1074788,35,Woman
123,946823,DepthScenes,duration_manipulation_targetAtFixation,jsons/VE125_randls_43.json,http://54.235.29.9/FacialAge/BNav_EC2/DepthDuration/v2_depth_duration_MTurk/v2_DepthDuration_HTML.html#26,26,1366,625,1366,768,8-21-2022,10-35-38,124,depth_duration_stimuli/001828_2014-06-26_21-40-03_260595134347_rgbf000024-resize_0/001828_2014-06-26_21-40-03_260595134347_rgbf000024-resize_0-target.png,125,4.8260000000000005,4,2818,123,meters,jsons/VE125_randls_43.json,931446,1074788,35,Woman
124,946823,DepthScenes,duration_manipulation_targetAtFixation,jsons/VE125_randls_43.json,http://54.235.29.9/FacialAge/BNav_EC2/DepthDuration/v2_depth_duration_MTurk/v2_DepthDuration_HTML.html#26,26,1366,625,1366,768,8-21-2022,10-35-38,125,depth_duration_stimuli/000522_2014-06-08_13-35-06_260595134347_rgbf000244-resize_1/000522_2014-06-08_13-35-06_260595134347_rgbf000244-resize_1-target.png,125,2.3715,5,2576,125,meters,jsons/VE125_randls_43.json,931446,1074788,35,Woman
125,946823,DepthScenes,duration_manipulation_targetAtFixation,jsons/VE125_randls_43.json,http://54.235.29.9/FacialAge/BNav_EC2/DepthDuration/v2_depth_duration_MTurk/v2_DepthDuration_HTML.html#26,26,1366,625,1366,768,8-21-2022,10-35-38,126,depth_duration_stimuli/002949_2014-06-26_15-57-42_094959634447_rgbf000079-resize_1/002949_2014-06-26_15-57-42_094959634447_rgbf000079-resize_1-target.png,125,1.8915,4,2553,124,meters,jsons/VE125_randls_43.json,931446,1074788,35,Woman
126,946823,DepthScenes,duration_manipulation_targetAtFixation,jsons/VE125_randls_43.json,http://54.235.29.9/FacialAge/BNav_EC2/DepthDuration/v2_depth_duration_MTurk/v2_DepthDuration_HTML.html#26,26,1366,625,1366,768,8-21-2022,10-35-38,127,depth_duration_stimuli/002043_2014-06-24_20-29-38_260595134347_rgbf000039-resize_4/002043_2014-06-24_20-29-38_260595134347_rgbf000039-resize_4-target.png,125,2.8435,4,2556,126,meters,jsons/VE125_randls_43.json,931446,1074788,35,Woman
127,946823,DepthScenes,duration_manipulation_targetAtFixation,jsons/VE125_randls_43.json,http://54.235.29.9/FacialAge/BNav_EC2/DepthDuration/v2_depth_duration_MTurk/v2_DepthDuration_HTML.html#26,26,1366,625,1366,768,8-21-2022,10-35-38,128,depth_duration_stimuli/003048_2014-06-15_13-49-43_094959634447_rgbf000150-resize_1/003048_2014-06-15_13-49-43_094959634447_rgbf000150-resize_1-target.png,125,4.0035,5,2440,122,meters,jsons/VE125_randls_43.json,931446,1074788,35,Woman
128,946823,DepthScenes,duration_manipulation_targetAtFixation,jsons/VE125_randls_43.json,http://54.235.29.9/FacialAge/BNav_EC2/DepthDuration/v2_depth_duration_MTurk/v2_DepthDuration_HTML.html#26,26,1366,625,1366,768,8-21-2022,10-35-38,129,depth_duration_stimuli/001133_2014-06-17_14-49-16_260595134347_rgbf000100-resize_0/001133_2014-06-17_14-49-16_260595134347_rgbf000100-resize_0-target.png,125,4.2115,5,2816,124,meters,jsons/VE125_randls_43.json,931446,1074788,35,Woman
129,946823,DepthScenes,duration_manipulation_targetAtFixation,jsons/VE125_randls_43.json,http://54.235.29.9/FacialAge/BNav_EC2/DepthDuration/v2_depth_duration_MTurk/v2_DepthDuration_HTML.html#26,26,1366,625,1366,768,8-21-2022,10-35-38,130,depth_duration_stimuli/001132_2014-06-17_14-48-54_260595134347_rgbf000100-resize_2/001132_2014-06-17_14-48-54_260595134347_rgbf000100-resize_2-target.png,125,3.753,5,2659,109,meters,jsons/VE125_randls_43.json,931446,1074788,35,Woman
130,946823,DepthScenes,duration_manipulation_targetAtFixation,jsons/VE125_randls_43.json,http://54.235.29.9/FacialAge/BNav_EC2/DepthDuration/v2_depth_duration_MTurk/v2_DepthDuration_HTML.html#26,26,1366,625,1366,768,8-21-2022,10-35-38,131,depth_duration_stimuli/002788_2014-06-22_19-36-03_094959634447_rgbf000088-resize_2/002788_2014-06-22_19-36-03_094959634447_rgbf000088-resize_2-target.png,125,1.6465,4,2338,123,meters,jsons/VE125_randls_43.json,931446,1074788,35,Woman
131,946823,DepthScenes,duration_manipulation_targetAtFixation,jsons/VE125_randls_43.json,http://54.235.29.9/FacialAge/BNav_EC2/DepthDuration/v2_depth_duration_MTurk/v2_DepthDuration_HTML.html#26,26,1366,625,1366,768,8-21-2022,10-35-38,132,depth_duration_stimuli/000749_2014-06-08_21-55-06_260595134347_rgbf000070-resize_2/000749_2014-06-08_21-55-06_260595134347_rgbf000070-resize_2-target.png,125,2.331,5,2959,125,meters,jsons/VE125_randls_43.json,931446,1074788,35,Woman
132,946823,DepthScenes,duration_manipulation_targetAtFixation,jsons/VE125_randls_43.json,http://54.235.29.9/FacialAge/BNav_EC2/DepthDuration/v2_depth_duration_MTurk/v2_DepthDuration_HTML.html#26,26,1366,625,1366,768,8-21-2022,10-35-38,133,depth_duration_stimuli/000758_2014-06-08_22-05-08_260595134347_rgbf000085-resize_0/000758_2014-06-08_22-05-08_260595134347_rgbf000085-resize_0-target.png,125,3.3810000000000002,4,2821,125,meters,jsons/VE125_randls_43.json,931446,1074788,35,Woman
133,946823,DepthScenes,duration_manipulation_targetAtFixation,jsons/VE125_randls_43.json,http://54.235.29.9/FacialAge/BNav_EC2/DepthDuration/v2_depth_duration_MTurk/v2_DepthDuration_HTML.html#26,26,1366,625,1366,768,8-21-2022,10-35-38,134,depth_duration_stimuli/000854_2014-06-09_19-43-13_260595134347_rgbf000066-resize_0/000854_2014-06-09_19-43-13_260595134347_rgbf000066-resize_0-target.png,125,3.068,5,2363,124,meters,jsons/VE125_randls_43.json,931446,1074788,35,Woman
134,946823,DepthScenes,duration_manipulation_targetAtFixation,jsons/VE125_randls_43.json,http://54.235.29.9/FacialAge/BNav_EC2/DepthDuration/v2_depth_duration_MTurk/v2_DepthDuration_HTML.html#26,26,1366,625,1366,768,8-21-2022,10-35-38,135,depth_duration_stimuli/002072_2014-06-24_21-48-06_260595134347_rgbf000115-resize_0/002072_2014-06-24_21-48-06_260595134347_rgbf000115-resize-original.jpg,125,4.702,4,2471,124,meters,jsons/VE125_randls_43.json,931446,1074788,35,Woman
135,946823,DepthScenes,duration_manipulation_targetAtFixation,jsons/VE125_randls_43.json,http://54.235.29.9/FacialAge/BNav_EC2/DepthDuration/v2_depth_duration_MTurk/v2_DepthDuration_HTML.html#26,26,1366,625,1366,768,8-21-2022,10-35-38,136,depth_duration_stimuli/002725_2014-06-22_11-47-51_094959634447_rgbf000070-resize_1/002725_2014-06-22_11-47-51_094959634447_rgbf000070-resize_1-target.png,125,2.195,4,2391,110,meters,jsons/VE125_randls_43.json,931446,1074788,35,Woman
136,946823,DepthScenes,duration_manipulation_targetAtFixation,jsons/VE125_randls_43.json,http://54.235.29.9/FacialAge/BNav_EC2/DepthDuration/v2_depth_duration_MTurk/v2_DepthDuration_HTML.html#26,26,1366,625,1366,768,8-21-2022,10-35-38,137,depth_duration_stimuli/002344_2014-06-28_20-06-29_260595134347_rgbf000030-resize_1/002344_2014-06-28_20-06-29_260595134347_rgbf000030-resize_1-target.png,125,1.5795,8,3001,124,meters,jsons/VE125_randls_43.json,931446,1074788,35,Woman
137,946823,DepthScenes,duration_manipulation_targetAtFixation,jsons/VE125_randls_43.json,http://54.235.29.9/FacialAge/BNav_EC2/DepthDuration/v2_depth_duration_MTurk/v2_DepthDuration_HTML.html#26,26,1366,625,1366,768,8-21-2022,10-35-38,138,depth_duration_stimuli/001016_2014-06-09_16-16-10_260595134347_rgbf000112-resize_5/001016_2014-06-09_16-16-10_260595134347_rgbf000112-resize_5-target.png,125,1.6565,5,2788,136,meters,jsons/VE125_randls_43.json,931446,1074788,35,Woman
138,946823,DepthScenes,duration_manipulation_targetAtFixation,jsons/VE125_randls_43.json,http://54.235.29.9/FacialAge/BNav_EC2/DepthDuration/v2_depth_duration_MTurk/v2_DepthDuration_HTML.html#26,26,1366,625,1366,768,8-21-2022,10-35-38,139,depth_duration_stimuli/002340_2014-06-28_20-05-46_260595134347_rgbf000113-resize_0/002340_2014-06-28_20-05-46_260595134347_rgbf000113-resize_0-target.png,125,2.4735,5,2675,124,meters,jsons/VE125_randls_43.json,931446,1074788,35,Woman
139,946823,DepthScenes,duration_manipulation_targetAtFixation,jsons/VE125_randls_43.json,http://54.235.29.9/FacialAge/BNav_EC2/DepthDuration/v2_depth_duration_MTurk/v2_DepthDuration_HTML.html#26,26,1366,625,1366,768,8-21-2022,10-35-38,140,depth_duration_stimuli/002375_2014-06-28_20-13-44_260595134347_rgbf000032-resize_1/002375_2014-06-28_20-13-44_260595134347_rgbf000032-resize_1-target.png,125,4.0175,7,2536,125,meters,jsons/VE125_randls_43.json,931446,1074788,35,Woman
140,946823,DepthScenes,duration_manipulation_targetAtFixation,jsons/VE125_randls_43.json,http://54.235.29.9/FacialAge/BNav_EC2/DepthDuration/v2_depth_duration_MTurk/v2_DepthDuration_HTML.html#26,26,1366,625,1366,768,8-21-2022,10-35-38,141,depth_duration_stimuli/002657_2014-06-13_15-29-54_094959634447_rgbf000150-resize_1/002657_2014-06-13_15-29-54_094959634447_rgbf000150-resize_1-target.png,125,4.919,4,2669,110,meters,jsons/VE125_randls_43.json,931446,1074788,35,Woman
141,946823,DepthScenes,duration_manipulation_targetAtFixation,jsons/VE125_randls_43.json,http://54.235.29.9/FacialAge/BNav_EC2/DepthDuration/v2_depth_duration_MTurk/v2_DepthDuration_HTML.html#26,26,1366,625,1366,768,8-21-2022,10-35-38,142,depth_duration_stimuli/001199_2014-06-17_16-03-48_260595134347_rgbf000077-resize_0/001199_2014-06-17_16-03-48_260595134347_rgbf000077-resize_0-target.png,125,3.4375,4,4730,115,meters,jsons/VE125_randls_43.json,931446,1074788,35,Woman
142,946823,DepthScenes,duration_manipulation_targetAtFixation,jsons/VE125_randls_43.json,http://54.235.29.9/FacialAge/BNav_EC2/DepthDuration/v2_depth_duration_MTurk/v2_DepthDuration_HTML.html#26,26,1366,625,1366,768,8-21-2022,10-35-38,143,depth_duration_stimuli/000502_2014-06-08_23-02-32_260595134347_rgbf000063-resize_4/000502_2014-06-08_23-02-32_260595134347_rgbf000063-resize_4-target.png,125,2.431,0,69366,124,meters,jsons/VE125_randls_43.json,931446,1074788,35,Woman
143,946823,DepthScenes,duration_manipulation_targetAtFixation,jsons/VE125_randls_43.json,http://54.235.29.9/FacialAge/BNav_EC2/DepthDuration/v2_depth_duration_MTurk/v2_DepthDuration_HTML.html#26,26,1366,625,1366,768,8-21-2022,10-35-38,144,depth_duration_stimuli/000692_2014-06-08_13-09-42_260595134347_rgbf000199-resize_2/000692_2014-06-08_13-09-42_260595134347_rgbf000199-resize_2-target.png,125,3.661,2,2793,125,meters,jsons/VE125_randls_43.json,931446,1074788,35,Woman
144,946823,DepthScenes,duration_manipulation_targetAtFixation,jsons/VE125_randls_43.json,http://54.235.29.9/FacialAge/BNav_EC2/DepthDuration/v2_depth_duration_MTurk/v2_DepthDuration_HTML.html#26,26,1366,625,1366,768,8-21-2022,10-35-38,145,depth_duration_stimuli/001094_2014-06-15_17-36-00_260595134347_rgbf000205-resize_0/001094_2014-06-15_17-36-00_260595134347_rgbf000205-resize_0-target.png,125,4.2175,5,2298,117,meters,jsons/VE125_randls_43.json,931446,1074788,35,Woman
145,946823,DepthScenes,duration_manipulation_targetAtFixation,jsons/VE125_randls_43.json,http://54.235.29.9/FacialAge/BNav_EC2/DepthDuration/v2_depth_duration_MTurk/v2_DepthDuration_HTML.html#26,26,1366,625,1366,768,8-21-2022,10-35-38,146,depth_duration_stimuli/001498_2014-06-19_17-45-14_260595134347_rgbf000129-resize_4/001498_2014-06-19_17-45-14_260595134347_rgbf000129-resize-original.jpg,125,1.4075,0,2435,130,meters,jsons/VE125_randls_43.json,931446,1074788,35,Woman
146,946823,DepthScenes,duration_manipulation_targetAtFixation,jsons/VE125_randls_43.json,http://54.235.29.9/FacialAge/BNav_EC2/DepthDuration/v2_depth_duration_MTurk/v2_DepthDuration_HTML.html#26,26,1366,625,1366,768,8-21-2022,10-35-38,147,depth_duration_stimuli/003534_2014-05-22_15-06-10_094959634447_rgbf000102-resize_4/003534_2014-05-22_15-06-10_094959634447_rgbf000102-resize_4-target.png,125,1.426,3,2737,125,meters,jsons/VE125_randls_43.json,931446,1074788,35,Woman
147,946823,DepthScenes,duration_manipulation_targetAtFixation,jsons/VE125_randls_43.json,http://54.235.29.9/FacialAge/BNav_EC2/DepthDuration/v2_depth_duration_MTurk/v2_DepthDuration_HTML.html#26,26,1366,625,1366,768,8-21-2022,10-35-38,148,depth_duration_stimuli/002637_2014-06-24_14-51-13_094959634447_rgbf000066-resize_4/002637_2014-06-24_14-51-13_094959634447_rgbf000066-resize_4-target.png,125,1.9955,5,3443,125,meters,jsons/VE125_randls_43.json,931446,1074788,35,Woman
148,946823,DepthScenes,duration_manipulation_targetAtFixation,jsons/VE125_randls_43.json,http://54.235.29.9/FacialAge/BNav_EC2/DepthDuration/v2_depth_duration_MTurk/v2_DepthDuration_HTML.html#26,26,1366,625,1366,768,8-21-2022,10-35-38,149,depth_duration_stimuli/001806_2014-06-26_20-50-20_260595134347_rgbf000091-resize_1/001806_2014-06-26_20-50-20_260595134347_rgbf000091-resize_1-target.png,125,2.7305,5,2443,127,meters,jsons/VE125_randls_43.json,931446,1074788,35,Woman
149,946823,DepthScenes,duration_manipulation_targetAtFixation,jsons/VE125_randls_43.json,http://54.235.29.9/FacialAge/BNav_EC2/DepthDuration/v2_depth_duration_MTurk/v2_DepthDuration_HTML.html#26,26,1366,625,1366,768,8-21-2022,10-35-38,150,depth_duration_stimuli/001617_2014-06-20_11-35-32_260595134347_rgbf000066-resize_1/001617_2014-06-20_11-35-32_260595134347_rgbf000066-resize_1-target.png,125,3.7910000000000004,5,2776,123,meters,jsons/VE125_randls_43.json,931446,1074788,35,Woman
150,946823,DepthScenes,duration_manipulation_targetAtFixation,jsons/VE125_randls_43.json,http://54.235.29.9/FacialAge/BNav_EC2/DepthDuration/v2_depth_duration_MTurk/v2_DepthDuration_HTML.html#26,26,1366,625,1366,768,8-21-2022,10-35-38,151,depth_duration_stimuli/001059_2014-06-08_21-53-27_260595134347_rgbf000061-resize_4/001059_2014-06-08_21-53-27_260595134347_rgbf000061-resize_4-target.png,125,2.4185,5,2624,126,meters,jsons/VE125_randls_43.json,931446,1074788,35,Woman
151,946823,DepthScenes,duration_manipulation_targetAtFixation,jsons/VE125_randls_43.json,http://54.235.29.9/FacialAge/BNav_EC2/DepthDuration/v2_depth_duration_MTurk/v2_DepthDuration_HTML.html#26,26,1366,625,1366,768,8-21-2022,10-35-38,152,depth_duration_stimuli/001032_2014-06-08_13-23-17_260595134347_rgbf000021-resize_3/001032_2014-06-08_13-23-17_260595134347_rgbf000021-resize_3-target.png,125,3.2725,4,3270,124,meters,jsons/VE125_randls_43.json,931446,1074788,35,Woman
152,946823,DepthScenes,duration_manipulation_targetAtFixation,jsons/VE125_randls_43.json,http://54.235.29.9/FacialAge/BNav_EC2/DepthDuration/v2_depth_duration_MTurk/v2_DepthDuration_HTML.html#26,26,1366,625,1366,768,8-21-2022,10-35-38,153,depth_duration_stimuli/001555_2014-06-20_17-12-10_260595134347_rgbf000065-resize_4/001555_2014-06-20_17-12-10_260595134347_rgbf000065-resize_4-target.png,125,1.633,4,2422,123,meters,jsons/VE125_randls_43.json,931446,1074788,35,Woman
153,946823,DepthScenes,duration_manipulation_targetAtFixation,jsons/VE125_randls_43.json,http://54.235.29.9/FacialAge/BNav_EC2/DepthDuration/v2_depth_duration_MTurk/v2_DepthDuration_HTML.html#26,26,1366,625,1366,768,8-21-2022,10-35-38,154,depth_duration_stimuli/000103_2014-05-14_22-01-17_260595134347_rgbf000152-resize_5/000103_2014-05-14_22-01-17_260595134347_rgbf000152-resize_5-target.png,125,1.993,4,2770,125,meters,jsons/VE125_randls_43.json,931446,1074788,35,Woman
154,946823,DepthScenes,duration_manipulation_targetAtFixation,jsons/VE125_randls_43.json,http://54.235.29.9/FacialAge/BNav_EC2/DepthDuration/v2_depth_duration_MTurk/v2_DepthDuration_HTML.html#26,26,1366,625,1366,768,8-21-2022,10-35-38,155,depth_duration_stimuli/002964_2014-06-08_17-46-11_094959634447_rgbf000091-resize_4/002964_2014-06-08_17-46-11_094959634447_rgbf000091-resize_4-target.png,125,1.6909999999999998,4,2605,124,meters,jsons/VE125_randls_43.json,931446,1074788,35,Woman
155,946823,DepthScenes,duration_manipulation_targetAtFixation,jsons/VE125_randls_43.json,http://54.235.29.9/FacialAge/BNav_EC2/DepthDuration/v2_depth_duration_MTurk/v2_DepthDuration_HTML.html#26,26,1366,625,1366,768,8-21-2022,10-35-38,156,depth_duration_stimuli/002136_2014-06-25_21-18-03_260595134347_rgbf000109-resize_3/002136_2014-06-25_21-18-03_260595134347_rgbf000109-resize_3-target.png,125,1.9569999999999999,4,3769,123,meters,jsons/VE125_randls_43.json,931446,1074788,35,Woman
156,946823,DepthScenes,duration_manipulation_targetAtFixation,jsons/VE125_randls_43.json,http://54.235.29.9/FacialAge/BNav_EC2/DepthDuration/v2_depth_duration_MTurk/v2_DepthDuration_HTML.html#26,26,1366,625,1366,768,8-21-2022,10-35-38,157,depth_duration_stimuli/002630_2014-06-24_14-47-50_094959634447_rgbf000055-resize_1/002630_2014-06-24_14-47-50_094959634447_rgbf000055-resize_1-target.png,125,3.0095,7,2987,124,meters,jsons/VE125_randls_43.json,931446,1074788,35,Woman
157,946823,DepthScenes,duration_manipulation_targetAtFixation,jsons/VE125_randls_43.json,http://54.235.29.9/FacialAge/BNav_EC2/DepthDuration/v2_depth_duration_MTurk/v2_DepthDuration_HTML.html#26,26,1366,625,1366,768,8-21-2022,10-35-38,158,depth_duration_stimuli/002758_2014-06-22_19-11-20_094959634447_rgbf000128-resize_1/002758_2014-06-22_19-11-20_094959634447_rgbf000128-resize_1-target.png,125,2.555,7,2555,123,meters,jsons/VE125_randls_43.json,931446,1074788,35,Woman
158,946823,DepthScenes,duration_manipulation_targetAtFixation,jsons/VE125_randls_43.json,http://54.235.29.9/FacialAge/BNav_EC2/DepthDuration/v2_depth_duration_MTurk/v2_DepthDuration_HTML.html#26,26,1366,625,1366,768,8-21-2022,10-35-38,159,depth_duration_stimuli/002039_2014-06-24_20-22-38_260595134347_rgbf000084-resize_1/002039_2014-06-24_20-22-38_260595134347_rgbf000084-resize_1-target.png,125,4.408,7,2570,126,meters,jsons/VE125_randls_43.json,931446,1074788,35,Woman
159,946823,DepthScenes,duration_manipulation_targetAtFixation,jsons/VE125_randls_43.json,http://54.235.29.9/FacialAge/BNav_EC2/DepthDuration/v2_depth_duration_MTurk/v2_DepthDuration_HTML.html#26,26,1366,625,1366,768,8-21-2022,10-35-38,160,depth_duration_stimuli/002103_2014-06-25_20-00-40_260595134347_rgbf000049-resize_0/002103_2014-06-25_20-00-40_260595134347_rgbf000049-resize_0-target.png,125,4.105,4,2876,125,meters,jsons/VE125_randls_43.json,931446,1074788,35,Woman
160,946823,DepthScenes,duration_manipulation_targetAtFixation,jsons/VE125_randls_43.json,http://54.235.29.9/FacialAge/BNav_EC2/DepthDuration/v2_depth_duration_MTurk/v2_DepthDuration_HTML.html#26,26,1366,625,1366,768,8-21-2022,10-35-38,161,depth_duration_stimuli/000736_2014-06-08_18-24-15_260595134347_rgbf000206-resize_3/000736_2014-06-08_18-24-15_260595134347_rgbf000206-resize_3-target.png,125,3.515,4,2507,124,meters,jsons/VE125_randls_43.json,931446,1074788,35,Woman
161,946823,DepthScenes,duration_manipulation_targetAtFixation,jsons/VE125_randls_43.json,http://54.235.29.9/FacialAge/BNav_EC2/DepthDuration/v2_depth_duration_MTurk/v2_DepthDuration_HTML.html#26,26,1366,625,1366,768,8-21-2022,10-35-38,162,depth_duration_stimuli/000137_2014-05-20_17-04-49_260595134347_rgbf000120-resize_1/000137_2014-05-20_17-04-49_260595134347_rgbf000120-resize_1-target.png,125,3.786,4,2522,108,meters,jsons/VE125_randls_43.json,931446,1074788,35,Woman
162,946823,DepthScenes,duration_manipulation_targetAtFixation,jsons/VE125_randls_43.json,http://54.235.29.9/FacialAge/BNav_EC2/DepthDuration/v2_depth_duration_MTurk/v2_DepthDuration_HTML.html#26,26,1366,625,1366,768,8-21-2022,10-35-38,163,depth_duration_stimuli/002570_2014-06-24_13-59-54_094959634447_rgbf000059-resize_0/002570_2014-06-24_13-59-54_094959634447_rgbf000059-resize_0-target.png,125,4.037,5,2943,125,meters,jsons/VE125_randls_43.json,931446,1074788,35,Woman
163,946823,DepthScenes,duration_manipulation_targetAtFixation,jsons/VE125_randls_43.json,http://54.235.29.9/FacialAge/BNav_EC2/DepthDuration/v2_depth_duration_MTurk/v2_DepthDuration_HTML.html#26,26,1366,625,1366,768,8-21-2022,10-35-38,164,depth_duration_stimuli/002467_2014-06-28_20-38-07_260595134347_rgbf000026-resize_2/002467_2014-06-28_20-38-07_260595134347_rgbf000026-resize_2-target.png,125,4.742,5,2376,129,meters,jsons/VE125_randls_43.json,931446,1074788,35,Woman
