,subjID,experimentName,versionName,sequenceName,url,selected_row,windowWidth,windowHeight,screenWidth,screenHeight,startDate,startTime,trial,stimulus,duration,actual_depth,depth_estimate,trial_RT,log_sceneDuration,unitSelection,seq_filepath,experimentTime,totalTime,age,gender
0,948666,DepthScenes,duration_manipulation_targetAtFixation,jsons/v1_VE250_randls_1.json,http://54.235.29.9/FacialAge/BNav_EC2/DepthDuration/v2_depth_duration_MTurk/v2_DepthDuration_HTML.html#296,296,1366,768,1366,768,8-29-2022,10-23-26,1,depth_duration_stimuli/002043_2014-06-24_20-29-38_260595134347_rgbf000039-resize_4/002043_2014-06-24_20-29-38_260595134347_rgbf000039-resize_4-target.png,250,2.8435,5,3327,250,feet,jsons/v1_VE250_randls_1.json,528625,1115486,29,Woman
1,948666,DepthScenes,duration_manipulation_targetAtFixation,jsons/v1_VE250_randls_1.json,http://54.235.29.9/FacialAge/BNav_EC2/DepthDuration/v2_depth_duration_MTurk/v2_DepthDuration_HTML.html#296,296,1366,768,1366,768,8-29-2022,10-23-26,2,depth_duration_stimuli/003048_2014-06-15_13-49-43_094959634447_rgbf000150-resize_1/003048_2014-06-15_13-49-43_094959634447_rgbf000150-resize_1-target.png,250,4.0035,8,3769,251,feet,jsons/v1_VE250_randls_1.json,528625,1115486,29,Woman
2,948666,DepthScenes,duration_manipulation_targetAtFixation,jsons/v1_VE250_randls_1.json,http://54.235.29.9/FacialAge/BNav_EC2/DepthDuration/v2_depth_duration_MTurk/v2_DepthDuration_HTML.html#296,296,1366,768,1366,768,8-29-2022,10-23-26,3,depth_duration_stimuli/000469_2014-06-09_19-42-10_260595134347_rgbf000081-resize_1/000469_2014-06-09_19-42-10_260595134347_rgbf000081-resize_1-target.png,250,1.652,2,2494,251,feet,jsons/v1_VE250_randls_1.json,528625,1115486,29,Woman
3,948666,DepthScenes,duration_manipulation_targetAtFixation,jsons/v1_VE250_randls_1.json,http://54.235.29.9/FacialAge/BNav_EC2/DepthDuration/v2_depth_duration_MTurk/v2_DepthDuration_HTML.html#296,296,1366,768,1366,768,8-29-2022,10-23-26,4,depth_duration_stimuli/000483_2014-06-09_20-41-45_260595134347_rgbf000116-resize_4/000483_2014-06-09_20-41-45_260595134347_rgbf000116-resize_4-target.png,250,1.337,2,2429,249,feet,jsons/v1_VE250_randls_1.json,528625,1115486,29,Woman
4,948666,DepthScenes,duration_manipulation_targetAtFixation,jsons/v1_VE250_randls_1.json,http://54.235.29.9/FacialAge/BNav_EC2/DepthDuration/v2_depth_duration_MTurk/v2_DepthDuration_HTML.html#296,296,1366,768,1366,768,8-29-2022,10-23-26,5,depth_duration_stimuli/000506_2014-06-08_23-21-00_260595134347_rgbf000070-resize_7/000506_2014-06-08_23-21-00_260595134347_rgbf000070-resize_7-target.png,250,4.0585,8,3118,248,feet,jsons/v1_VE250_randls_1.json,528625,1115486,29,Woman
5,948666,DepthScenes,duration_manipulation_targetAtFixation,jsons/v1_VE250_randls_1.json,http://54.235.29.9/FacialAge/BNav_EC2/DepthDuration/v2_depth_duration_MTurk/v2_DepthDuration_HTML.html#296,296,1366,768,1366,768,8-29-2022,10-23-26,6,depth_duration_stimuli/003079_2014-06-15_15-18-20_094959634447_rgbf000152-resize_8/003079_2014-06-15_15-18-20_094959634447_rgbf000152-resize_8-target.png,250,2.8775,9,3007,251,feet,jsons/v1_VE250_randls_1.json,528625,1115486,29,Woman
6,948666,DepthScenes,duration_manipulation_targetAtFixation,jsons/v1_VE250_randls_1.json,http://54.235.29.9/FacialAge/BNav_EC2/DepthDuration/v2_depth_duration_MTurk/v2_DepthDuration_HTML.html#296,296,1366,768,1366,768,8-29-2022,10-23-26,7,depth_duration_stimuli/000788_2014-06-08_22-34-36_260595134347_rgbf000131-resize_1/000788_2014-06-08_22-34-36_260595134347_rgbf000131-resize_1-target.png,250,3.359,6,2657,246,feet,jsons/v1_VE250_randls_1.json,528625,1115486,29,Woman
7,948666,DepthScenes,duration_manipulation_targetAtFixation,jsons/v1_VE250_randls_1.json,http://54.235.29.9/FacialAge/BNav_EC2/DepthDuration/v2_depth_duration_MTurk/v2_DepthDuration_HTML.html#296,296,1366,768,1366,768,8-29-2022,10-23-26,8,depth_duration_stimuli/001235_2014-06-17_16-37-36_260595134347_rgbf000084-resize_4/001235_2014-06-17_16-37-36_260595134347_rgbf000084-resize_4-target.png,250,3.6605,6,2800,250,feet,jsons/v1_VE250_randls_1.json,528625,1115486,29,Woman
8,948666,DepthScenes,duration_manipulation_targetAtFixation,jsons/v1_VE250_randls_1.json,http://54.235.29.9/FacialAge/BNav_EC2/DepthDuration/v2_depth_duration_MTurk/v2_DepthDuration_HTML.html#296,296,1366,768,1366,768,8-29-2022,10-23-26,9,depth_duration_stimuli/002057_2014-06-24_21-00-13_260595134347_rgbf000120-resize_1/002057_2014-06-24_21-00-13_260595134347_rgbf000120-resize_1-target.png,250,2.967,8,2336,251,feet,jsons/v1_VE250_randls_1.json,528625,1115486,29,Woman
9,948666,DepthScenes,duration_manipulation_targetAtFixation,jsons/v1_VE250_randls_1.json,http://54.235.29.9/FacialAge/BNav_EC2/DepthDuration/v2_depth_duration_MTurk/v2_DepthDuration_HTML.html#296,296,1366,768,1366,768,8-29-2022,10-23-26,10,depth_duration_stimuli/000709_2014-06-08_13-51-55_260595134347_rgbf000068-resize_3/000709_2014-06-08_13-51-55_260595134347_rgbf000068-resize_3-target.png,250,1.8030000000000002,4,2433,234,feet,jsons/v1_VE250_randls_1.json,528625,1115486,29,Woman
10,948666,DepthScenes,duration_manipulation_targetAtFixation,jsons/v1_VE250_randls_1.json,http://54.235.29.9/FacialAge/BNav_EC2/DepthDuration/v2_depth_duration_MTurk/v2_DepthDuration_HTML.html#296,296,1366,768,1366,768,8-29-2022,10-23-26,11,depth_duration_stimuli/002725_2014-06-22_11-47-51_094959634447_rgbf000070-resize_1/002725_2014-06-22_11-47-51_094959634447_rgbf000070-resize_1-target.png,250,2.195,5,2291,248,feet,jsons/v1_VE250_randls_1.json,528625,1115486,29,Woman
11,948666,DepthScenes,duration_manipulation_targetAtFixation,jsons/v1_VE250_randls_1.json,http://54.235.29.9/FacialAge/BNav_EC2/DepthDuration/v2_depth_duration_MTurk/v2_DepthDuration_HTML.html#296,296,1366,768,1366,768,8-29-2022,10-23-26,12,depth_duration_stimuli/002344_2014-06-28_20-06-29_260595134347_rgbf000030-resize_1/002344_2014-06-28_20-06-29_260595134347_rgbf000030-resize_1-target.png,250,1.5795,2,3085,250,feet,jsons/v1_VE250_randls_1.json,528625,1115486,29,Woman
12,948666,DepthScenes,duration_manipulation_targetAtFixation,jsons/v1_VE250_randls_1.json,http://54.235.29.9/FacialAge/BNav_EC2/DepthDuration/v2_depth_duration_MTurk/v2_DepthDuration_HTML.html#296,296,1366,768,1366,768,8-29-2022,10-23-26,13,depth_duration_stimuli/000569_2014-06-09_22-51-47_260595134347_rgbf000141-resize_3/000569_2014-06-09_22-51-47_260595134347_rgbf000141-resize-original.jpg,250,4.512,0,2229,253,feet,jsons/v1_VE250_randls_1.json,528625,1115486,29,Woman
13,948666,DepthScenes,duration_manipulation_targetAtFixation,jsons/v1_VE250_randls_1.json,http://54.235.29.9/FacialAge/BNav_EC2/DepthDuration/v2_depth_duration_MTurk/v2_DepthDuration_HTML.html#296,296,1366,768,1366,768,8-29-2022,10-23-26,14,depth_duration_stimuli/001150_2014-06-17_15-27-34_260595134347_rgbf000108-resize_2/001150_2014-06-17_15-27-34_260595134347_rgbf000108-resize_2-target.png,250,4.0325,8,2755,244,feet,jsons/v1_VE250_randls_1.json,528625,1115486,29,Woman
14,948666,DepthScenes,duration_manipulation_targetAtFixation,jsons/v1_VE250_randls_1.json,http://54.235.29.9/FacialAge/BNav_EC2/DepthDuration/v2_depth_duration_MTurk/v2_DepthDuration_HTML.html#296,296,1366,768,1366,768,8-29-2022,10-23-26,15,depth_duration_stimuli/000665_2014-06-09_20-42-35_260595134347_rgbf000110-resize_1/000665_2014-06-09_20-42-35_260595134347_rgbf000110-resize_1-target.png,250,3.057,4,2513,247,feet,jsons/v1_VE250_randls_1.json,528625,1115486,29,Woman
15,948666,DepthScenes,duration_manipulation_targetAtFixation,jsons/v1_VE250_randls_1.json,http://54.235.29.9/FacialAge/BNav_EC2/DepthDuration/v2_depth_duration_MTurk/v2_DepthDuration_HTML.html#296,296,1366,768,1366,768,8-29-2022,10-23-26,16,depth_duration_stimuli/000522_2014-06-08_13-35-06_260595134347_rgbf000244-resize_1/000522_2014-06-08_13-35-06_260595134347_rgbf000244-resize_1-target.png,250,2.3715,3,2443,235,feet,jsons/v1_VE250_randls_1.json,528625,1115486,29,Woman
16,948666,DepthScenes,duration_manipulation_targetAtFixation,jsons/v1_VE250_randls_1.json,http://54.235.29.9/FacialAge/BNav_EC2/DepthDuration/v2_depth_duration_MTurk/v2_DepthDuration_HTML.html#296,296,1366,768,1366,768,8-29-2022,10-23-26,17,depth_duration_stimuli/002949_2014-06-26_15-57-42_094959634447_rgbf000079-resize_1/002949_2014-06-26_15-57-42_094959634447_rgbf000079-resize_1-target.png,250,1.8915,4,3117,251,feet,jsons/v1_VE250_randls_1.json,528625,1115486,29,Woman
17,948666,DepthScenes,duration_manipulation_targetAtFixation,jsons/v1_VE250_randls_1.json,http://54.235.29.9/FacialAge/BNav_EC2/DepthDuration/v2_depth_duration_MTurk/v2_DepthDuration_HTML.html#296,296,1366,768,1366,768,8-29-2022,10-23-26,18,depth_duration_stimuli/002788_2014-06-22_19-36-03_094959634447_rgbf000088-resize_2/002788_2014-06-22_19-36-03_094959634447_rgbf000088-resize_2-target.png,250,1.6465,6,2835,250,feet,jsons/v1_VE250_randls_1.json,528625,1115486,29,Woman
18,948666,DepthScenes,duration_manipulation_targetAtFixation,jsons/v1_VE250_randls_1.json,http://54.235.29.9/FacialAge/BNav_EC2/DepthDuration/v2_depth_duration_MTurk/v2_DepthDuration_HTML.html#296,296,1366,768,1366,768,8-29-2022,10-23-26,19,depth_duration_stimuli/000749_2014-06-08_21-55-06_260595134347_rgbf000070-resize_2/000749_2014-06-08_21-55-06_260595134347_rgbf000070-resize_2-target.png,250,2.331,5,2243,250,feet,jsons/v1_VE250_randls_1.json,528625,1115486,29,Woman
19,948666,DepthScenes,duration_manipulation_targetAtFixation,jsons/v1_VE250_randls_1.json,http://54.235.29.9/FacialAge/BNav_EC2/DepthDuration/v2_depth_duration_MTurk/v2_DepthDuration_HTML.html#296,296,1366,768,1366,768,8-29-2022,10-23-26,20,depth_duration_stimuli/000878_2014-06-08_22-52-45_260595134347_rgbf000045-resize_2/000878_2014-06-08_22-52-45_260595134347_rgbf000045-resize_2-target.png,250,2.092,5,4593,247,feet,jsons/v1_VE250_randls_1.json,528625,1115486,29,Woman
20,948666,DepthScenes,duration_manipulation_targetAtFixation,jsons/v1_VE250_randls_1.json,http://54.235.29.9/FacialAge/BNav_EC2/DepthDuration/v2_depth_duration_MTurk/v2_DepthDuration_HTML.html#296,296,1366,768,1366,768,8-29-2022,10-23-26,21,depth_duration_stimuli/002953_2014-06-08_17-32-18_094959634447_rgbf000059-resize_5/002953_2014-06-08_17-32-18_094959634447_rgbf000059-resize_5-target.png,250,1.551,1,2706,250,feet,jsons/v1_VE250_randls_1.json,528625,1115486,29,Woman
21,948666,DepthScenes,duration_manipulation_targetAtFixation,jsons/v1_VE250_randls_1.json,http://54.235.29.9/FacialAge/BNav_EC2/DepthDuration/v2_depth_duration_MTurk/v2_DepthDuration_HTML.html#296,296,1366,768,1366,768,8-29-2022,10-23-26,22,depth_duration_stimuli/000810_2014-06-08_17-20-01_260595134347_rgbf000105-resize_0/000810_2014-06-08_17-20-01_260595134347_rgbf000105-resize_0-target.png,250,1.4865,3,2558,253,feet,jsons/v1_VE250_randls_1.json,528625,1115486,29,Woman
22,948666,DepthScenes,duration_manipulation_targetAtFixation,jsons/v1_VE250_randls_1.json,http://54.235.29.9/FacialAge/BNav_EC2/DepthDuration/v2_depth_duration_MTurk/v2_DepthDuration_HTML.html#296,296,1366,768,1366,768,8-29-2022,10-23-26,23,depth_duration_stimuli/001214_2014-06-17_16-13-55_260595134347_rgbf000111-resize_0/001214_2014-06-17_16-13-55_260595134347_rgbf000111-resize_0-target.png,250,2.6505,3,2227,251,feet,jsons/v1_VE250_randls_1.json,528625,1115486,29,Woman
23,948666,DepthScenes,duration_manipulation_targetAtFixation,jsons/v1_VE250_randls_1.json,http://54.235.29.9/FacialAge/BNav_EC2/DepthDuration/v2_depth_duration_MTurk/v2_DepthDuration_HTML.html#296,296,1366,768,1366,768,8-29-2022,10-23-26,24,depth_duration_stimuli/002445_2014-06-28_20-32-16_260595134347_rgbf000029-resize_4/002445_2014-06-28_20-32-16_260595134347_rgbf000029-resize_4-target.png,250,2.5315,4,2206,250,feet,jsons/v1_VE250_randls_1.json,528625,1115486,29,Woman
24,948666,DepthScenes,duration_manipulation_targetAtFixation,jsons/v1_VE250_randls_1.json,http://54.235.29.9/FacialAge/BNav_EC2/DepthDuration/v2_depth_duration_MTurk/v2_DepthDuration_HTML.html#296,296,1366,768,1366,768,8-29-2022,10-23-26,25,depth_duration_stimuli/000780_2014-06-08_22-28-29_260595134347_rgbf000126-resize_1/000780_2014-06-08_22-28-29_260595134347_rgbf000126-resize_1-target.png,250,3.3825,6,2467,250,feet,jsons/v1_VE250_randls_1.json,528625,1115486,29,Woman
25,948666,DepthScenes,duration_manipulation_targetAtFixation,jsons/v1_VE250_randls_1.json,http://54.235.29.9/FacialAge/BNav_EC2/DepthDuration/v2_depth_duration_MTurk/v2_DepthDuration_HTML.html#296,296,1366,768,1366,768,8-29-2022,10-23-26,26,depth_duration_stimuli/001449_2014-06-19_17-01-27_260595134347_rgbf000116-resize_2/001449_2014-06-19_17-01-27_260595134347_rgbf000116-resize_2-target.png,250,3.452,6,2445,258,feet,jsons/v1_VE250_randls_1.json,528625,1115486,29,Woman
26,948666,DepthScenes,duration_manipulation_targetAtFixation,jsons/v1_VE250_randls_1.json,http://54.235.29.9/FacialAge/BNav_EC2/DepthDuration/v2_depth_duration_MTurk/v2_DepthDuration_HTML.html#296,296,1366,768,1366,768,8-29-2022,10-23-26,27,depth_duration_stimuli/001450_2014-06-19_17-02-03_260595134347_rgbf000203-resize_4/001450_2014-06-19_17-02-03_260595134347_rgbf000203-resize_4-target.png,250,4.0106666666667,7,2478,251,feet,jsons/v1_VE250_randls_1.json,528625,1115486,29,Woman
27,948666,DepthScenes,duration_manipulation_targetAtFixation,jsons/v1_VE250_randls_1.json,http://54.235.29.9/FacialAge/BNav_EC2/DepthDuration/v2_depth_duration_MTurk/v2_DepthDuration_HTML.html#296,296,1366,768,1366,768,8-29-2022,10-23-26,28,depth_duration_stimuli/002748_2014-06-22_19-07-22_094959634447_rgbf000078-resize_1/002748_2014-06-22_19-07-22_094959634447_rgbf000078-resize_1-target.png,250,4.6705,10,2286,251,feet,jsons/v1_VE250_randls_1.json,528625,1115486,29,Woman
28,948666,DepthScenes,duration_manipulation_targetAtFixation,jsons/v1_VE250_randls_1.json,http://54.235.29.9/FacialAge/BNav_EC2/DepthDuration/v2_depth_duration_MTurk/v2_DepthDuration_HTML.html#296,296,1366,768,1366,768,8-29-2022,10-23-26,29,depth_duration_stimuli/002995_2014-06-15_12-31-26_094959634447_rgbf000150-resize_1/002995_2014-06-15_12-31-26_094959634447_rgbf000150-resize_1-target.png,250,3.8360000000000003,11,2572,236,feet,jsons/v1_VE250_randls_1.json,528625,1115486,29,Woman
29,948666,DepthScenes,duration_manipulation_targetAtFixation,jsons/v1_VE250_randls_1.json,http://54.235.29.9/FacialAge/BNav_EC2/DepthDuration/v2_depth_duration_MTurk/v2_DepthDuration_HTML.html#296,296,1366,768,1366,768,8-29-2022,10-23-26,30,depth_duration_stimuli/000375_2014-06-08_11-17-29_260595134347_rgbf000133-resize_2/000375_2014-06-08_11-17-29_260595134347_rgbf000133-resize-original.jpg,250,4.718,0,1995,250,feet,jsons/v1_VE250_randls_1.json,528625,1115486,29,Woman
30,948666,DepthScenes,duration_manipulation_targetAtFixation,jsons/v1_VE250_randls_1.json,http://54.235.29.9/FacialAge/BNav_EC2/DepthDuration/v2_depth_duration_MTurk/v2_DepthDuration_HTML.html#296,296,1366,768,1366,768,8-29-2022,10-23-26,31,depth_duration_stimuli/002600_2014-06-24_14-27-04_094959634447_rgbf000074-resize_2/002600_2014-06-24_14-27-04_094959634447_rgbf000074-resize_2-target.png,250,2.7575,6,2478,250,feet,jsons/v1_VE250_randls_1.json,528625,1115486,29,Woman
31,948666,DepthScenes,duration_manipulation_targetAtFixation,jsons/v1_VE250_randls_1.json,http://54.235.29.9/FacialAge/BNav_EC2/DepthDuration/v2_depth_duration_MTurk/v2_DepthDuration_HTML.html#296,296,1366,768,1366,768,8-29-2022,10-23-26,32,depth_duration_stimuli/003228_2014-05-14_13-42-35_094959634447_rgbf000101-resize_1/003228_2014-05-14_13-42-35_094959634447_rgbf000101-resize_1-target.png,250,1.9680000000000002,3,2350,251,feet,jsons/v1_VE250_randls_1.json,528625,1115486,29,Woman
32,948666,DepthScenes,duration_manipulation_targetAtFixation,jsons/v1_VE250_randls_1.json,http://54.235.29.9/FacialAge/BNav_EC2/DepthDuration/v2_depth_duration_MTurk/v2_DepthDuration_HTML.html#296,296,1366,768,1366,768,8-29-2022,10-23-26,33,depth_duration_stimuli/000436_2014-06-09_22-25-11_260595134347_rgbf000137-resize_1/000436_2014-06-09_22-25-11_260595134347_rgbf000137-resize_1-target.png,250,4.0705,0,2774,244,feet,jsons/v1_VE250_randls_1.json,528625,1115486,29,Woman
33,948666,DepthScenes,duration_manipulation_targetAtFixation,jsons/v1_VE250_randls_1.json,http://54.235.29.9/FacialAge/BNav_EC2/DepthDuration/v2_depth_duration_MTurk/v2_DepthDuration_HTML.html#296,296,1366,768,1366,768,8-29-2022,10-23-26,34,depth_duration_stimuli/002444_2014-06-28_20-32-08_260595134347_rgbf000027-resize_0/002444_2014-06-28_20-32-08_260595134347_rgbf000027-resize_0-target.png,250,4.388999999999999,8,2282,249,feet,jsons/v1_VE250_randls_1.json,528625,1115486,29,Woman
34,948666,DepthScenes,duration_manipulation_targetAtFixation,jsons/v1_VE250_randls_1.json,http://54.235.29.9/FacialAge/BNav_EC2/DepthDuration/v2_depth_duration_MTurk/v2_DepthDuration_HTML.html#296,296,1366,768,1366,768,8-29-2022,10-23-26,35,depth_duration_stimuli/002964_2014-06-08_17-46-11_094959634447_rgbf000091-resize_4/002964_2014-06-08_17-46-11_094959634447_rgbf000091-resize_4-target.png,250,1.6909999999999998,1,2485,246,feet,jsons/v1_VE250_randls_1.json,528625,1115486,29,Woman
35,948666,DepthScenes,duration_manipulation_targetAtFixation,jsons/v1_VE250_randls_1.json,http://54.235.29.9/FacialAge/BNav_EC2/DepthDuration/v2_depth_duration_MTurk/v2_DepthDuration_HTML.html#296,296,1366,768,1366,768,8-29-2022,10-23-26,36,depth_duration_stimuli/002136_2014-06-25_21-18-03_260595134347_rgbf000109-resize_3/002136_2014-06-25_21-18-03_260595134347_rgbf000109-resize_3-target.png,250,1.9569999999999999,3,2215,241,feet,jsons/v1_VE250_randls_1.json,528625,1115486,29,Woman
36,948666,DepthScenes,duration_manipulation_targetAtFixation,jsons/v1_VE250_randls_1.json,http://54.235.29.9/FacialAge/BNav_EC2/DepthDuration/v2_depth_duration_MTurk/v2_DepthDuration_HTML.html#296,296,1366,768,1366,768,8-29-2022,10-23-26,37,depth_duration_stimuli/002570_2014-06-24_13-59-54_094959634447_rgbf000059-resize_0/002570_2014-06-24_13-59-54_094959634447_rgbf000059-resize_0-target.png,250,4.037,5,2194,250,feet,jsons/v1_VE250_randls_1.json,528625,1115486,29,Woman
37,948666,DepthScenes,duration_manipulation_targetAtFixation,jsons/v1_VE250_randls_1.json,http://54.235.29.9/FacialAge/BNav_EC2/DepthDuration/v2_depth_duration_MTurk/v2_DepthDuration_HTML.html#296,296,1366,768,1366,768,8-29-2022,10-23-26,38,depth_duration_stimuli/002467_2014-06-28_20-38-07_260595134347_rgbf000026-resize_2/002467_2014-06-28_20-38-07_260595134347_rgbf000026-resize_2-target.png,250,4.742,8,2725,248,feet,jsons/v1_VE250_randls_1.json,528625,1115486,29,Woman
38,948666,DepthScenes,duration_manipulation_targetAtFixation,jsons/v1_VE250_randls_1.json,http://54.235.29.9/FacialAge/BNav_EC2/DepthDuration/v2_depth_duration_MTurk/v2_DepthDuration_HTML.html#296,296,1366,768,1366,768,8-29-2022,10-23-26,39,depth_duration_stimuli/001164_2014-06-17_15-35-46_260595134347_rgbf000085-resize_3/001164_2014-06-17_15-35-46_260595134347_rgbf000085-resize_3-target.png,250,2.354,6,2396,249,feet,jsons/v1_VE250_randls_1.json,528625,1115486,29,Woman
39,948666,DepthScenes,duration_manipulation_targetAtFixation,jsons/v1_VE250_randls_1.json,http://54.235.29.9/FacialAge/BNav_EC2/DepthDuration/v2_depth_duration_MTurk/v2_DepthDuration_HTML.html#296,296,1366,768,1366,768,8-29-2022,10-23-26,40,depth_duration_stimuli/001136_2014-06-17_15-19-41_260595134347_rgbf000076-resize_3/001136_2014-06-17_15-19-41_260595134347_rgbf000076-resize_3-target.png,250,1.8655,8,2152,250,feet,jsons/v1_VE250_randls_1.json,528625,1115486,29,Woman
40,948666,DepthScenes,duration_manipulation_targetAtFixation,jsons/v1_VE250_randls_1.json,http://54.235.29.9/FacialAge/BNav_EC2/DepthDuration/v2_depth_duration_MTurk/v2_DepthDuration_HTML.html#296,296,1366,768,1366,768,8-29-2022,10-23-26,41,depth_duration_stimuli/000447_2014-06-08_16-15-46_260595134347_rgbf000130-resize_1/000447_2014-06-08_16-15-46_260595134347_rgbf000130-resize_1-target.png,250,4.479,7,2351,251,feet,jsons/v1_VE250_randls_1.json,528625,1115486,29,Woman
41,948666,DepthScenes,duration_manipulation_targetAtFixation,jsons/v1_VE250_randls_1.json,http://54.235.29.9/FacialAge/BNav_EC2/DepthDuration/v2_depth_duration_MTurk/v2_DepthDuration_HTML.html#296,296,1366,768,1366,768,8-29-2022,10-23-26,42,depth_duration_stimuli/001447_2014-06-19_17-00-32_260595134347_rgbf000082-resize_5/001447_2014-06-19_17-00-32_260595134347_rgbf000082-resize_5-target.png,250,4.13775,4,2331,236,feet,jsons/v1_VE250_randls_1.json,528625,1115486,29,Woman
42,948666,DepthScenes,duration_manipulation_targetAtFixation,jsons/v1_VE250_randls_1.json,http://54.235.29.9/FacialAge/BNav_EC2/DepthDuration/v2_depth_duration_MTurk/v2_DepthDuration_HTML.html#296,296,1366,768,1366,768,8-29-2022,10-23-26,43,depth_duration_stimuli/001158_2014-06-17_15-32-16_260595134347_rgbf000138-resize_2/001158_2014-06-17_15-32-16_260595134347_rgbf000138-resize_2-target.png,250,4.5315,10,2152,250,feet,jsons/v1_VE250_randls_1.json,528625,1115486,29,Woman
43,948666,DepthScenes,duration_manipulation_targetAtFixation,jsons/v1_VE250_randls_1.json,http://54.235.29.9/FacialAge/BNav_EC2/DepthDuration/v2_depth_duration_MTurk/v2_DepthDuration_HTML.html#296,296,1366,768,1366,768,8-29-2022,10-23-26,44,depth_duration_stimuli/000556_2014-06-09_22-42-56_260595134347_rgbf000214-resize_1/000556_2014-06-09_22-42-56_260595134347_rgbf000214-resize_1-target.png,250,4.8415,9,3039,267,feet,jsons/v1_VE250_randls_1.json,528625,1115486,29,Woman
44,948666,DepthScenes,duration_manipulation_targetAtFixation,jsons/v1_VE250_randls_1.json,http://54.235.29.9/FacialAge/BNav_EC2/DepthDuration/v2_depth_duration_MTurk/v2_DepthDuration_HTML.html#296,296,1366,768,1366,768,8-29-2022,10-23-26,45,depth_duration_stimuli/000787_2014-06-08_22-33-53_260595134347_rgbf000175-resize_1/000787_2014-06-08_22-33-53_260595134347_rgbf000175-resize-original.jpg,250,4.784,0,2144,248,feet,jsons/v1_VE250_randls_1.json,528625,1115486,29,Woman
45,948666,DepthScenes,duration_manipulation_targetAtFixation,jsons/v1_VE250_randls_1.json,http://54.235.29.9/FacialAge/BNav_EC2/DepthDuration/v2_depth_duration_MTurk/v2_DepthDuration_HTML.html#296,296,1366,768,1366,768,8-29-2022,10-23-26,46,depth_duration_stimuli/000736_2014-06-08_18-24-15_260595134347_rgbf000206-resize_3/000736_2014-06-08_18-24-15_260595134347_rgbf000206-resize_3-target.png,250,3.515,4,2117,244,feet,jsons/v1_VE250_randls_1.json,528625,1115486,29,Woman
46,948666,DepthScenes,duration_manipulation_targetAtFixation,jsons/v1_VE250_randls_1.json,http://54.235.29.9/FacialAge/BNav_EC2/DepthDuration/v2_depth_duration_MTurk/v2_DepthDuration_HTML.html#296,296,1366,768,1366,768,8-29-2022,10-23-26,47,depth_duration_stimuli/000137_2014-05-20_17-04-49_260595134347_rgbf000120-resize_1/000137_2014-05-20_17-04-49_260595134347_rgbf000120-resize_1-target.png,250,3.786,7,2287,248,feet,jsons/v1_VE250_randls_1.json,528625,1115486,29,Woman
47,948666,DepthScenes,duration_manipulation_targetAtFixation,jsons/v1_VE250_randls_1.json,http://54.235.29.9/FacialAge/BNav_EC2/DepthDuration/v2_depth_duration_MTurk/v2_DepthDuration_HTML.html#296,296,1366,768,1366,768,8-29-2022,10-23-26,48,depth_duration_stimuli/002375_2014-06-28_20-13-44_260595134347_rgbf000032-resize_1/002375_2014-06-28_20-13-44_260595134347_rgbf000032-resize_1-target.png,250,4.0175,6,2951,250,feet,jsons/v1_VE250_randls_1.json,528625,1115486,29,Woman
48,948666,DepthScenes,duration_manipulation_targetAtFixation,jsons/v1_VE250_randls_1.json,http://54.235.29.9/FacialAge/BNav_EC2/DepthDuration/v2_depth_duration_MTurk/v2_DepthDuration_HTML.html#296,296,1366,768,1366,768,8-29-2022,10-23-26,49,depth_duration_stimuli/002657_2014-06-13_15-29-54_094959634447_rgbf000150-resize_1/002657_2014-06-13_15-29-54_094959634447_rgbf000150-resize_1-target.png,250,4.919,8,9558,247,feet,jsons/v1_VE250_randls_1.json,528625,1115486,29,Woman
49,948666,DepthScenes,duration_manipulation_targetAtFixation,jsons/v1_VE250_randls_1.json,http://54.235.29.9/FacialAge/BNav_EC2/DepthDuration/v2_depth_duration_MTurk/v2_DepthDuration_HTML.html#296,296,1366,768,1366,768,8-29-2022,10-23-26,50,depth_duration_stimuli/000642_2014-06-08_16-59-25_260595134347_rgbf000098-resize_2/000642_2014-06-08_16-59-25_260595134347_rgbf000098-resize_2-target.png,250,2.8815,8,2322,253,feet,jsons/v1_VE250_randls_1.json,528625,1115486,29,Woman
50,948666,DepthScenes,duration_manipulation_targetAtFixation,jsons/v1_VE250_randls_1.json,http://54.235.29.9/FacialAge/BNav_EC2/DepthDuration/v2_depth_duration_MTurk/v2_DepthDuration_HTML.html#296,296,1366,768,1366,768,8-29-2022,10-23-26,51,depth_duration_stimuli/002425_2014-06-28_20-27-29_260595134347_rgbf000031-resize_8/002425_2014-06-28_20-27-29_260595134347_rgbf000031-resize_8-target.png,250,3.8960000000000004,11,2277,236,feet,jsons/v1_VE250_randls_1.json,528625,1115486,29,Woman
51,948666,DepthScenes,duration_manipulation_targetAtFixation,jsons/v1_VE250_randls_1.json,http://54.235.29.9/FacialAge/BNav_EC2/DepthDuration/v2_depth_duration_MTurk/v2_DepthDuration_HTML.html#296,296,1366,768,1366,768,8-29-2022,10-23-26,52,depth_duration_stimuli/003534_2014-05-22_15-06-10_094959634447_rgbf000102-resize_4/003534_2014-05-22_15-06-10_094959634447_rgbf000102-resize_4-target.png,250,1.426,0,2021,241,feet,jsons/v1_VE250_randls_1.json,528625,1115486,29,Woman
52,948666,DepthScenes,duration_manipulation_targetAtFixation,jsons/v1_VE250_randls_1.json,http://54.235.29.9/FacialAge/BNav_EC2/DepthDuration/v2_depth_duration_MTurk/v2_DepthDuration_HTML.html#296,296,1366,768,1366,768,8-29-2022,10-23-26,53,depth_duration_stimuli/002637_2014-06-24_14-51-13_094959634447_rgbf000066-resize_4/002637_2014-06-24_14-51-13_094959634447_rgbf000066-resize_4-target.png,250,1.9955,4,4208,250,feet,jsons/v1_VE250_randls_1.json,528625,1115486,29,Woman
53,948666,DepthScenes,duration_manipulation_targetAtFixation,jsons/v1_VE250_randls_1.json,http://54.235.29.9/FacialAge/BNav_EC2/DepthDuration/v2_depth_duration_MTurk/v2_DepthDuration_HTML.html#296,296,1366,768,1366,768,8-29-2022,10-23-26,54,depth_duration_stimuli/001417_2014-06-19_16-25-36_260595134347_rgbf000115-resize_5/001417_2014-06-19_16-25-36_260595134347_rgbf000115-resize_5-target.png,250,4.6255,8,2875,251,feet,jsons/v1_VE250_randls_1.json,528625,1115486,29,Woman
54,948666,DepthScenes,duration_manipulation_targetAtFixation,jsons/v1_VE250_randls_1.json,http://54.235.29.9/FacialAge/BNav_EC2/DepthDuration/v2_depth_duration_MTurk/v2_DepthDuration_HTML.html#296,296,1366,768,1366,768,8-29-2022,10-23-26,55,depth_duration_stimuli/003081_2014-06-15_15-19-16_094959634447_rgbf000150-resize_1/003081_2014-06-15_15-19-16_094959634447_rgbf000150-resize_1-target.png,250,3.9125,8,2584,246,feet,jsons/v1_VE250_randls_1.json,528625,1115486,29,Woman
55,948666,DepthScenes,duration_manipulation_targetAtFixation,jsons/v1_VE250_randls_1.json,http://54.235.29.9/FacialAge/BNav_EC2/DepthDuration/v2_depth_duration_MTurk/v2_DepthDuration_HTML.html#296,296,1366,768,1366,768,8-29-2022,10-23-26,56,depth_duration_stimuli/001810_2014-06-26_20-51-35_260595134347_rgbf000040-resize_3/001810_2014-06-26_20-51-35_260595134347_rgbf000040-resize_3-target.png,250,2.2525,2,2116,249,feet,jsons/v1_VE250_randls_1.json,528625,1115486,29,Woman
56,948666,DepthScenes,duration_manipulation_targetAtFixation,jsons/v1_VE250_randls_1.json,http://54.235.29.9/FacialAge/BNav_EC2/DepthDuration/v2_depth_duration_MTurk/v2_DepthDuration_HTML.html#296,296,1366,768,1366,768,8-29-2022,10-23-26,57,depth_duration_stimuli/003010_2014-06-15_12-54-35_094959634447_rgbf000112-resize_0/003010_2014-06-15_12-54-35_094959634447_rgbf000112-resize_0-target.png,250,3.1185,0,3060,233,feet,jsons/v1_VE250_randls_1.json,528625,1115486,29,Woman
57,948666,DepthScenes,duration_manipulation_targetAtFixation,jsons/v1_VE250_randls_1.json,http://54.235.29.9/FacialAge/BNav_EC2/DepthDuration/v2_depth_duration_MTurk/v2_DepthDuration_HTML.html#296,296,1366,768,1366,768,8-29-2022,10-23-26,58,depth_duration_stimuli/002118_2014-06-25_20-32-08_260595134347_rgbf000078-resize_1/002118_2014-06-25_20-32-08_260595134347_rgbf000078-resize_1-target.png,250,2.6460000000000004,6,3262,250,feet,jsons/v1_VE250_randls_1.json,528625,1115486,29,Woman
58,948666,DepthScenes,duration_manipulation_targetAtFixation,jsons/v1_VE250_randls_1.json,http://54.235.29.9/FacialAge/BNav_EC2/DepthDuration/v2_depth_duration_MTurk/v2_DepthDuration_HTML.html#296,296,1366,768,1366,768,8-29-2022,10-23-26,59,depth_duration_stimuli/001516_2014-06-20_16-25-09_260595134347_rgbf000076-resize_2/001516_2014-06-20_16-25-09_260595134347_rgbf000076-resize_2-target.png,250,1.7445,3,2088,251,feet,jsons/v1_VE250_randls_1.json,528625,1115486,29,Woman
59,948666,DepthScenes,duration_manipulation_targetAtFixation,jsons/v1_VE250_randls_1.json,http://54.235.29.9/FacialAge/BNav_EC2/DepthDuration/v2_depth_duration_MTurk/v2_DepthDuration_HTML.html#296,296,1366,768,1366,768,8-29-2022,10-23-26,60,depth_duration_stimuli/001059_2014-06-08_21-53-27_260595134347_rgbf000061-resize_4/001059_2014-06-08_21-53-27_260595134347_rgbf000061-resize_4-target.png,250,2.4185,5,2309,250,feet,jsons/v1_VE250_randls_1.json,528625,1115486,29,Woman
60,948666,DepthScenes,duration_manipulation_targetAtFixation,jsons/v1_VE250_randls_1.json,http://54.235.29.9/FacialAge/BNav_EC2/DepthDuration/v2_depth_duration_MTurk/v2_DepthDuration_HTML.html#296,296,1366,768,1366,768,8-29-2022,10-23-26,61,depth_duration_stimuli/001032_2014-06-08_13-23-17_260595134347_rgbf000021-resize_3/001032_2014-06-08_13-23-17_260595134347_rgbf000021-resize_3-target.png,250,3.2725,4,2573,250,feet,jsons/v1_VE250_randls_1.json,528625,1115486,29,Woman
61,948666,DepthScenes,duration_manipulation_targetAtFixation,jsons/v1_VE250_randls_1.json,http://54.235.29.9/FacialAge/BNav_EC2/DepthDuration/v2_depth_duration_MTurk/v2_DepthDuration_HTML.html#296,296,1366,768,1366,768,8-29-2022,10-23-26,62,depth_duration_stimuli/000009_2014-05-26_14-32-05_260595134347_rgbf000034-resize_3/000009_2014-05-26_14-32-05_260595134347_rgbf000034-resize_3-target.png,250,3.8715,10,2315,256,feet,jsons/v1_VE250_randls_1.json,528625,1115486,29,Woman
62,948666,DepthScenes,duration_manipulation_targetAtFixation,jsons/v1_VE250_randls_1.json,http://54.235.29.9/FacialAge/BNav_EC2/DepthDuration/v2_depth_duration_MTurk/v2_DepthDuration_HTML.html#296,296,1366,768,1366,768,8-29-2022,10-23-26,63,depth_duration_stimuli/001828_2014-06-26_21-40-03_260595134347_rgbf000024-resize_0/001828_2014-06-26_21-40-03_260595134347_rgbf000024-resize_0-target.png,250,4.8260000000000005,11,2537,249,feet,jsons/v1_VE250_randls_1.json,528625,1115486,29,Woman
63,948666,DepthScenes,duration_manipulation_targetAtFixation,jsons/v1_VE250_randls_1.json,http://54.235.29.9/FacialAge/BNav_EC2/DepthDuration/v2_depth_duration_MTurk/v2_DepthDuration_HTML.html#296,296,1366,768,1366,768,8-29-2022,10-23-26,64,depth_duration_stimuli/000758_2014-06-08_22-05-08_260595134347_rgbf000085-resize_0/000758_2014-06-08_22-05-08_260595134347_rgbf000085-resize_0-target.png,250,3.3810000000000002,7,4840,251,feet,jsons/v1_VE250_randls_1.json,528625,1115486,29,Woman
64,948666,DepthScenes,duration_manipulation_targetAtFixation,jsons/v1_VE250_randls_1.json,http://54.235.29.9/FacialAge/BNav_EC2/DepthDuration/v2_depth_duration_MTurk/v2_DepthDuration_HTML.html#296,296,1366,768,1366,768,8-29-2022,10-23-26,65,depth_duration_stimuli/000854_2014-06-09_19-43-13_260595134347_rgbf000066-resize_0/000854_2014-06-09_19-43-13_260595134347_rgbf000066-resize_0-target.png,250,3.068,3,2761,253,feet,jsons/v1_VE250_randls_1.json,528625,1115486,29,Woman
65,948666,DepthScenes,duration_manipulation_targetAtFixation,jsons/v1_VE250_randls_1.json,http://54.235.29.9/FacialAge/BNav_EC2/DepthDuration/v2_depth_duration_MTurk/v2_DepthDuration_HTML.html#296,296,1366,768,1366,768,8-29-2022,10-23-26,66,depth_duration_stimuli/001222_2014-06-17_16-24-06_260595134347_rgbf000073-resize_0/001222_2014-06-17_16-24-06_260595134347_rgbf000073-resize-original.jpg,250,1.4385,0,2449,229,feet,jsons/v1_VE250_randls_1.json,528625,1115486,29,Woman
66,948666,DepthScenes,duration_manipulation_targetAtFixation,jsons/v1_VE250_randls_1.json,http://54.235.29.9/FacialAge/BNav_EC2/DepthDuration/v2_depth_duration_MTurk/v2_DepthDuration_HTML.html#296,296,1366,768,1366,768,8-29-2022,10-23-26,67,depth_duration_stimuli/002905_2014-06-03_18-04-43_094959634447_rgbf000151-resize_2/002905_2014-06-03_18-04-43_094959634447_rgbf000151-resize_2-target.png,250,2.0295,3,3217,253,feet,jsons/v1_VE250_randls_1.json,528625,1115486,29,Woman
67,948666,DepthScenes,duration_manipulation_targetAtFixation,jsons/v1_VE250_randls_1.json,http://54.235.29.9/FacialAge/BNav_EC2/DepthDuration/v2_depth_duration_MTurk/v2_DepthDuration_HTML.html#296,296,1366,768,1366,768,8-29-2022,10-23-26,68,depth_duration_stimuli/003423_2014-05-21_10-23-26_094959634447_rgbf002665-resize_2/003423_2014-05-21_10-23-26_094959634447_rgbf002665-resize_2-target.png,250,3.2575,7,2457,242,feet,jsons/v1_VE250_randls_1.json,528625,1115486,29,Woman
68,948666,DepthScenes,duration_manipulation_targetAtFixation,jsons/v1_VE250_randls_1.json,http://54.235.29.9/FacialAge/BNav_EC2/DepthDuration/v2_depth_duration_MTurk/v2_DepthDuration_HTML.html#296,296,1366,768,1366,768,8-29-2022,10-23-26,69,depth_duration_stimuli/001808_2014-06-26_20-50-58_260595134347_rgbf000029-resize_1/001808_2014-06-26_20-50-58_260595134347_rgbf000029-resize_1-target.png,250,4.249,11,2506,235,feet,jsons/v1_VE250_randls_1.json,528625,1115486,29,Woman
69,948666,DepthScenes,duration_manipulation_targetAtFixation,jsons/v1_VE250_randls_1.json,http://54.235.29.9/FacialAge/BNav_EC2/DepthDuration/v2_depth_duration_MTurk/v2_DepthDuration_HTML.html#296,296,1366,768,1366,768,8-29-2022,10-23-26,70,depth_duration_stimuli/001815_2014-06-26_20-52-55_260595134347_rgbf000020-resize_0/001815_2014-06-26_20-52-55_260595134347_rgbf000020-resize_0-target.png,250,3.3865,0,13317,250,feet,jsons/v1_VE250_randls_1.json,528625,1115486,29,Woman
70,948666,DepthScenes,duration_manipulation_targetAtFixation,jsons/v1_VE250_randls_1.json,http://54.235.29.9/FacialAge/BNav_EC2/DepthDuration/v2_depth_duration_MTurk/v2_DepthDuration_HTML.html#296,296,1366,768,1366,768,8-29-2022,10-23-26,71,depth_duration_stimuli/000773_2014-06-08_22-24-54_260595134347_rgbf000093-resize_1/000773_2014-06-08_22-24-54_260595134347_rgbf000093-resize_1-target.png,250,4.973,11,4111,250,feet,jsons/v1_VE250_randls_1.json,528625,1115486,29,Woman
71,948666,DepthScenes,duration_manipulation_targetAtFixation,jsons/v1_VE250_randls_1.json,http://54.235.29.9/FacialAge/BNav_EC2/DepthDuration/v2_depth_duration_MTurk/v2_DepthDuration_HTML.html#296,296,1366,768,1366,768,8-29-2022,10-23-26,72,depth_duration_stimuli/002414_2014-06-28_20-24-58_260595134347_rgbf000067-resize_4/002414_2014-06-28_20-24-58_260595134347_rgbf000067-resize_4-target.png,250,4.363,7,2908,251,feet,jsons/v1_VE250_randls_1.json,528625,1115486,29,Woman
72,948666,DepthScenes,duration_manipulation_targetAtFixation,jsons/v1_VE250_randls_1.json,http://54.235.29.9/FacialAge/BNav_EC2/DepthDuration/v2_depth_duration_MTurk/v2_DepthDuration_HTML.html#296,296,1366,768,1366,768,8-29-2022,10-23-26,73,depth_duration_stimuli/002989_2014-06-15_12-25-03_094959634447_rgbf000150-resize_3/002989_2014-06-15_12-25-03_094959634447_rgbf000150-resize_3-target.png,250,4.1975,11,2516,250,feet,jsons/v1_VE250_randls_1.json,528625,1115486,29,Woman
73,948666,DepthScenes,duration_manipulation_targetAtFixation,jsons/v1_VE250_randls_1.json,http://54.235.29.9/FacialAge/BNav_EC2/DepthDuration/v2_depth_duration_MTurk/v2_DepthDuration_HTML.html#296,296,1366,768,1366,768,8-29-2022,10-23-26,74,depth_duration_stimuli/000866_2014-06-09_20-45-42_260595134347_rgbf000139-resize_1/000866_2014-06-09_20-45-42_260595134347_rgbf000139-resize_1-target.png,250,3.2155,8,2395,235,feet,jsons/v1_VE250_randls_1.json,528625,1115486,29,Woman
74,948666,DepthScenes,duration_manipulation_targetAtFixation,jsons/v1_VE250_randls_1.json,http://54.235.29.9/FacialAge/BNav_EC2/DepthDuration/v2_depth_duration_MTurk/v2_DepthDuration_HTML.html#296,296,1366,768,1366,768,8-29-2022,10-23-26,75,depth_duration_stimuli/001016_2014-06-09_16-16-10_260595134347_rgbf000112-resize_5/001016_2014-06-09_16-16-10_260595134347_rgbf000112-resize_5-target.png,250,1.6565,5,2535,250,feet,jsons/v1_VE250_randls_1.json,528625,1115486,29,Woman
75,948666,DepthScenes,duration_manipulation_targetAtFixation,jsons/v1_VE250_randls_1.json,http://54.235.29.9/FacialAge/BNav_EC2/DepthDuration/v2_depth_duration_MTurk/v2_DepthDuration_HTML.html#296,296,1366,768,1366,768,8-29-2022,10-23-26,76,depth_duration_stimuli/002340_2014-06-28_20-05-46_260595134347_rgbf000113-resize_0/002340_2014-06-28_20-05-46_260595134347_rgbf000113-resize_0-target.png,250,2.4735,10,2759,253,feet,jsons/v1_VE250_randls_1.json,528625,1115486,29,Woman
76,948666,DepthScenes,duration_manipulation_targetAtFixation,jsons/v1_VE250_randls_1.json,http://54.235.29.9/FacialAge/BNav_EC2/DepthDuration/v2_depth_duration_MTurk/v2_DepthDuration_HTML.html#296,296,1366,768,1366,768,8-29-2022,10-23-26,77,depth_duration_stimuli/002763_2014-06-22_19-13-10_094959634447_rgbf000075-resize_4/002763_2014-06-22_19-13-10_094959634447_rgbf000075-resize_4-target.png,250,1.68375,5,2185,249,feet,jsons/v1_VE250_randls_1.json,528625,1115486,29,Woman
77,948666,DepthScenes,duration_manipulation_targetAtFixation,jsons/v1_VE250_randls_1.json,http://54.235.29.9/FacialAge/BNav_EC2/DepthDuration/v2_depth_duration_MTurk/v2_DepthDuration_HTML.html#296,296,1366,768,1366,768,8-29-2022,10-23-26,78,depth_duration_stimuli/002209_2014-06-28_18-36-10_260595134347_rgbf000051-resize_1/002209_2014-06-28_18-36-10_260595134347_rgbf000051-resize_1-target.png,250,2.057,3,2181,248,feet,jsons/v1_VE250_randls_1.json,528625,1115486,29,Woman
78,948666,DepthScenes,duration_manipulation_targetAtFixation,jsons/v1_VE250_randls_1.json,http://54.235.29.9/FacialAge/BNav_EC2/DepthDuration/v2_depth_duration_MTurk/v2_DepthDuration_HTML.html#296,296,1366,768,1366,768,8-29-2022,10-23-26,79,depth_duration_stimuli/000486_2014-06-09_20-47-20_260595134347_rgbf000143-resize_2/000486_2014-06-09_20-47-20_260595134347_rgbf000143-resize_2-target.png,250,4.8325,7,2354,236,feet,jsons/v1_VE250_randls_1.json,528625,1115486,29,Woman
79,948666,DepthScenes,duration_manipulation_targetAtFixation,jsons/v1_VE250_randls_1.json,http://54.235.29.9/FacialAge/BNav_EC2/DepthDuration/v2_depth_duration_MTurk/v2_DepthDuration_HTML.html#296,296,1366,768,1366,768,8-29-2022,10-23-26,80,depth_duration_stimuli/003083_2014-06-15_15-21-03_094959634447_rgbf000063-resize_1/003083_2014-06-15_15-21-03_094959634447_rgbf000063-resize_1-target.png,250,4.1405,12,2342,249,feet,jsons/v1_VE250_randls_1.json,528625,1115486,29,Woman
80,948666,DepthScenes,duration_manipulation_targetAtFixation,jsons/v1_VE250_randls_1.json,http://54.235.29.9/FacialAge/BNav_EC2/DepthDuration/v2_depth_duration_MTurk/v2_DepthDuration_HTML.html#296,296,1366,768,1366,768,8-29-2022,10-23-26,81,depth_duration_stimuli/003292_2014-05-14_21-53-49_094959634447_rgbf000100-resize_2/003292_2014-05-14_21-53-49_094959634447_rgbf000100-resize_2-target.png,250,3.4815,5,2369,249,feet,jsons/v1_VE250_randls_1.json,528625,1115486,29,Woman
81,948666,DepthScenes,duration_manipulation_targetAtFixation,jsons/v1_VE250_randls_1.json,http://54.235.29.9/FacialAge/BNav_EC2/DepthDuration/v2_depth_duration_MTurk/v2_DepthDuration_HTML.html#296,296,1366,768,1366,768,8-29-2022,10-23-26,82,depth_duration_stimuli/002639_2014-06-24_14-51-37_094959634447_rgbf000074-resize_4/002639_2014-06-24_14-51-37_094959634447_rgbf000074-resize_4-target.png,250,4.0375,8,2391,233,feet,jsons/v1_VE250_randls_1.json,528625,1115486,29,Woman
82,948666,DepthScenes,duration_manipulation_targetAtFixation,jsons/v1_VE250_randls_1.json,http://54.235.29.9/FacialAge/BNav_EC2/DepthDuration/v2_depth_duration_MTurk/v2_DepthDuration_HTML.html#296,296,1366,768,1366,768,8-29-2022,10-23-26,83,depth_duration_stimuli/001110_2014-06-15_17-25-28_260595134347_rgbf000150-resize_1/001110_2014-06-15_17-25-28_260595134347_rgbf000150-resize_1-target.png,250,1.7115,4,2492,247,feet,jsons/v1_VE250_randls_1.json,528625,1115486,29,Woman
83,948666,DepthScenes,duration_manipulation_targetAtFixation,jsons/v1_VE250_randls_1.json,http://54.235.29.9/FacialAge/BNav_EC2/DepthDuration/v2_depth_duration_MTurk/v2_DepthDuration_HTML.html#296,296,1366,768,1366,768,8-29-2022,10-23-26,84,depth_duration_stimuli/000927_2014-06-09_16-32-30_260595134347_rgbf000123-resize_3/000927_2014-06-09_16-32-30_260595134347_rgbf000123-resize_3-target.png,250,2.6785,5,2538,246,feet,jsons/v1_VE250_randls_1.json,528625,1115486,29,Woman
84,948666,DepthScenes,duration_manipulation_targetAtFixation,jsons/v1_VE250_randls_1.json,http://54.235.29.9/FacialAge/BNav_EC2/DepthDuration/v2_depth_duration_MTurk/v2_DepthDuration_HTML.html#296,296,1366,768,1366,768,8-29-2022,10-23-26,85,depth_duration_stimuli/000368_2014-06-09_15-53-01_260595134347_rgbf000155-resize_2/000368_2014-06-09_15-53-01_260595134347_rgbf000155-resize_2-target.png,250,2.4859999999999998,4,2849,251,feet,jsons/v1_VE250_randls_1.json,528625,1115486,29,Woman
85,948666,DepthScenes,duration_manipulation_targetAtFixation,jsons/v1_VE250_randls_1.json,http://54.235.29.9/FacialAge/BNav_EC2/DepthDuration/v2_depth_duration_MTurk/v2_DepthDuration_HTML.html#296,296,1366,768,1366,768,8-29-2022,10-23-26,86,depth_duration_stimuli/002678_2014-06-13_16-15-32_094959634447_rgbf000151-resize_6/002678_2014-06-13_16-15-32_094959634447_rgbf000151-resize_6-target.png,250,2.1830000000000003,8,2679,246,feet,jsons/v1_VE250_randls_1.json,528625,1115486,29,Woman
86,948666,DepthScenes,duration_manipulation_targetAtFixation,jsons/v1_VE250_randls_1.json,http://54.235.29.9/FacialAge/BNav_EC2/DepthDuration/v2_depth_duration_MTurk/v2_DepthDuration_HTML.html#296,296,1366,768,1366,768,8-29-2022,10-23-26,87,depth_duration_stimuli/002663_2014-06-13_15-50-26_094959634447_rgbf000075-resize_1/002663_2014-06-13_15-50-26_094959634447_rgbf000075-resize_1-target.png,250,4.7495,12,2185,221,feet,jsons/v1_VE250_randls_1.json,528625,1115486,29,Woman
87,948666,DepthScenes,duration_manipulation_targetAtFixation,jsons/v1_VE250_randls_1.json,http://54.235.29.9/FacialAge/BNav_EC2/DepthDuration/v2_depth_duration_MTurk/v2_DepthDuration_HTML.html#296,296,1366,768,1366,768,8-29-2022,10-23-26,88,depth_duration_stimuli/000409_2014-06-04_19-23-33_260595134347_rgbf000067-resize_0/000409_2014-06-04_19-23-33_260595134347_rgbf000067-resize_0-target.png,250,3.7335,6,2575,248,feet,jsons/v1_VE250_randls_1.json,528625,1115486,29,Woman
88,948666,DepthScenes,duration_manipulation_targetAtFixation,jsons/v1_VE250_randls_1.json,http://54.235.29.9/FacialAge/BNav_EC2/DepthDuration/v2_depth_duration_MTurk/v2_DepthDuration_HTML.html#296,296,1366,768,1366,768,8-29-2022,10-23-26,89,depth_duration_stimuli/002279_2014-06-28_18-55-32_260595134347_rgbf000040-resize_5/002279_2014-06-28_18-55-32_260595134347_rgbf000040-resize_5-target.png,250,1.5043333333333,4,2514,248,feet,jsons/v1_VE250_randls_1.json,528625,1115486,29,Woman
89,948666,DepthScenes,duration_manipulation_targetAtFixation,jsons/v1_VE250_randls_1.json,http://54.235.29.9/FacialAge/BNav_EC2/DepthDuration/v2_depth_duration_MTurk/v2_DepthDuration_HTML.html#296,296,1366,768,1366,768,8-29-2022,10-23-26,90,depth_duration_stimuli/000635_2014-06-08_16-38-42_260595134347_rgbf000106-resize_1/000635_2014-06-08_16-38-42_260595134347_rgbf000106-resize_1-target.png,250,2.074,5,2066,233,feet,jsons/v1_VE250_randls_1.json,528625,1115486,29,Woman
90,948666,DepthScenes,duration_manipulation_targetAtFixation,jsons/v1_VE250_randls_1.json,http://54.235.29.9/FacialAge/BNav_EC2/DepthDuration/v2_depth_duration_MTurk/v2_DepthDuration_HTML.html#296,296,1366,768,1366,768,8-29-2022,10-23-26,91,depth_duration_stimuli/001055_2014-06-08_18-45-35_260595134347_rgbf000111-resize_4/001055_2014-06-08_18-45-35_260595134347_rgbf000111-resize_4-target.png,250,2.4290000000000003,7,3483,236,feet,jsons/v1_VE250_randls_1.json,528625,1115486,29,Woman
91,948666,DepthScenes,duration_manipulation_targetAtFixation,jsons/v1_VE250_randls_1.json,http://54.235.29.9/FacialAge/BNav_EC2/DepthDuration/v2_depth_duration_MTurk/v2_DepthDuration_HTML.html#296,296,1366,768,1366,768,8-29-2022,10-23-26,92,depth_duration_stimuli/000549_2014-06-08_22-10-24_260595134347_rgbf000247-resize_3/000549_2014-06-08_22-10-24_260595134347_rgbf000247-resize_3-target.png,250,1.841,2,3115,234,feet,jsons/v1_VE250_randls_1.json,528625,1115486,29,Woman
92,948666,DepthScenes,duration_manipulation_targetAtFixation,jsons/v1_VE250_randls_1.json,http://54.235.29.9/FacialAge/BNav_EC2/DepthDuration/v2_depth_duration_MTurk/v2_DepthDuration_HTML.html#296,296,1366,768,1366,768,8-29-2022,10-23-26,93,depth_duration_stimuli/002988_2014-06-15_12-24-20_094959634447_rgbf000150-resize_1/002988_2014-06-15_12-24-20_094959634447_rgbf000150-resize_1-target.png,250,4.7669999999999995,10,2720,250,feet,jsons/v1_VE250_randls_1.json,528625,1115486,29,Woman
93,948666,DepthScenes,duration_manipulation_targetAtFixation,jsons/v1_VE250_randls_1.json,http://54.235.29.9/FacialAge/BNav_EC2/DepthDuration/v2_depth_duration_MTurk/v2_DepthDuration_HTML.html#296,296,1366,768,1366,768,8-29-2022,10-23-26,94,depth_duration_stimuli/001052_2014-06-08_18-24-54_260595134347_rgbf000130-resize_1/001052_2014-06-08_18-24-54_260595134347_rgbf000130-resize_1-target.png,250,4.1045,8,3174,250,feet,jsons/v1_VE250_randls_1.json,528625,1115486,29,Woman
94,948666,DepthScenes,duration_manipulation_targetAtFixation,jsons/v1_VE250_randls_1.json,http://54.235.29.9/FacialAge/BNav_EC2/DepthDuration/v2_depth_duration_MTurk/v2_DepthDuration_HTML.html#296,296,1366,768,1366,768,8-29-2022,10-23-26,95,depth_duration_stimuli/000493_2014-06-09_21-01-18_260595134347_rgbf000196-resize_3/000493_2014-06-09_21-01-18_260595134347_rgbf000196-resize_3-target.png,250,3.44,4,2531,251,feet,jsons/v1_VE250_randls_1.json,528625,1115486,29,Woman
95,948666,DepthScenes,duration_manipulation_targetAtFixation,jsons/v1_VE250_randls_1.json,http://54.235.29.9/FacialAge/BNav_EC2/DepthDuration/v2_depth_duration_MTurk/v2_DepthDuration_HTML.html#296,296,1366,768,1366,768,8-29-2022,10-23-26,96,depth_duration_stimuli/000191_2014-05-12_17-07-38_260595134347_rgbf000199-resize_0/000191_2014-05-12_17-07-38_260595134347_rgbf000199-resize_0-target.png,250,3.7995,10,2444,260,feet,jsons/v1_VE250_randls_1.json,528625,1115486,29,Woman
96,948666,DepthScenes,duration_manipulation_targetAtFixation,jsons/v1_VE250_randls_1.json,http://54.235.29.9/FacialAge/BNav_EC2/DepthDuration/v2_depth_duration_MTurk/v2_DepthDuration_HTML.html#296,296,1366,768,1366,768,8-29-2022,10-23-26,97,depth_duration_stimuli/002784_2014-06-22_19-26-30_094959634447_rgbf000083-resize_3/002784_2014-06-22_19-26-30_094959634447_rgbf000083-resize_3-target.png,250,1.8046666666667,3,2502,253,feet,jsons/v1_VE250_randls_1.json,528625,1115486,29,Woman
97,948666,DepthScenes,duration_manipulation_targetAtFixation,jsons/v1_VE250_randls_1.json,http://54.235.29.9/FacialAge/BNav_EC2/DepthDuration/v2_depth_duration_MTurk/v2_DepthDuration_HTML.html#296,296,1366,768,1366,768,8-29-2022,10-23-26,98,depth_duration_stimuli/001100_2014-06-15_17-46-26_260595134347_rgbf000225-resize_2/001100_2014-06-15_17-46-26_260595134347_rgbf000225-resize_2-target.png,250,2.24,2,2491,251,feet,jsons/v1_VE250_randls_1.json,528625,1115486,29,Woman
98,948666,DepthScenes,duration_manipulation_targetAtFixation,jsons/v1_VE250_randls_1.json,http://54.235.29.9/FacialAge/BNav_EC2/DepthDuration/v2_depth_duration_MTurk/v2_DepthDuration_HTML.html#296,296,1366,768,1366,768,8-29-2022,10-23-26,99,depth_duration_stimuli/001540_2014-06-20_17-01-05_260595134347_rgbf000086-resize_2/001540_2014-06-20_17-01-05_260595134347_rgbf000086-resize-original.jpg,250,1.459,0,2179,251,feet,jsons/v1_VE250_randls_1.json,528625,1115486,29,Woman
99,948666,DepthScenes,duration_manipulation_targetAtFixation,jsons/v1_VE250_randls_1.json,http://54.235.29.9/FacialAge/BNav_EC2/DepthDuration/v2_depth_duration_MTurk/v2_DepthDuration_HTML.html#296,296,1366,768,1366,768,8-29-2022,10-23-26,100,depth_duration_stimuli/002549_2014-06-24_13-41-39_094959634447_rgbf000022-resize_3/002549_2014-06-24_13-41-39_094959634447_rgbf000022-resize_3-target.png,250,1.476,0,2542,249,feet,jsons/v1_VE250_randls_1.json,528625,1115486,29,Woman
100,948666,DepthScenes,duration_manipulation_targetAtFixation,jsons/v1_VE250_randls_1.json,http://54.235.29.9/FacialAge/BNav_EC2/DepthDuration/v2_depth_duration_MTurk/v2_DepthDuration_HTML.html#296,296,1366,768,1366,768,8-29-2022,10-23-26,101,depth_duration_stimuli/002750_2014-06-22_19-08-03_094959634447_rgbf000094-resize_4/002750_2014-06-22_19-08-03_094959634447_rgbf000094-resize_4-target.png,250,2.354,6,2145,249,feet,jsons/v1_VE250_randls_1.json,528625,1115486,29,Woman
101,948666,DepthScenes,duration_manipulation_targetAtFixation,jsons/v1_VE250_randls_1.json,http://54.235.29.9/FacialAge/BNav_EC2/DepthDuration/v2_depth_duration_MTurk/v2_DepthDuration_HTML.html#296,296,1366,768,1366,768,8-29-2022,10-23-26,102,depth_duration_stimuli/001570_2014-06-20_17-21-09_260595134347_rgbf000135-resize_4/001570_2014-06-20_17-21-09_260595134347_rgbf000135-resize_4-target.png,250,4.467,9,2706,251,feet,jsons/v1_VE250_randls_1.json,528625,1115486,29,Woman
102,948666,DepthScenes,duration_manipulation_targetAtFixation,jsons/v1_VE250_randls_1.json,http://54.235.29.9/FacialAge/BNav_EC2/DepthDuration/v2_depth_duration_MTurk/v2_DepthDuration_HTML.html#296,296,1366,768,1366,768,8-29-2022,10-23-26,103,depth_duration_stimuli/001392_2014-06-19_16-07-59_260595134347_rgbf000046-resize_1/001392_2014-06-19_16-07-59_260595134347_rgbf000046-resize_1-target.png,250,4.135,7,2614,254,feet,jsons/v1_VE250_randls_1.json,528625,1115486,29,Woman
103,948666,DepthScenes,duration_manipulation_targetAtFixation,jsons/v1_VE250_randls_1.json,http://54.235.29.9/FacialAge/BNav_EC2/DepthDuration/v2_depth_duration_MTurk/v2_DepthDuration_HTML.html#296,296,1366,768,1366,768,8-29-2022,10-23-26,104,depth_duration_stimuli/001806_2014-06-26_20-50-20_260595134347_rgbf000091-resize_1/001806_2014-06-26_20-50-20_260595134347_rgbf000091-resize_1-target.png,250,2.7305,3,2420,251,feet,jsons/v1_VE250_randls_1.json,528625,1115486,29,Woman
104,948666,DepthScenes,duration_manipulation_targetAtFixation,jsons/v1_VE250_randls_1.json,http://54.235.29.9/FacialAge/BNav_EC2/DepthDuration/v2_depth_duration_MTurk/v2_DepthDuration_HTML.html#296,296,1366,768,1366,768,8-29-2022,10-23-26,105,depth_duration_stimuli/001617_2014-06-20_11-35-32_260595134347_rgbf000066-resize_1/001617_2014-06-20_11-35-32_260595134347_rgbf000066-resize_1-target.png,250,3.7910000000000004,8,2336,251,feet,jsons/v1_VE250_randls_1.json,528625,1115486,29,Woman
105,948666,DepthScenes,duration_manipulation_targetAtFixation,jsons/v1_VE250_randls_1.json,http://54.235.29.9/FacialAge/BNav_EC2/DepthDuration/v2_depth_duration_MTurk/v2_DepthDuration_HTML.html#296,296,1366,768,1366,768,8-29-2022,10-23-26,106,depth_duration_stimuli/000414_2014-06-04_19-49-13_260595134347_rgbf000044-resize_0/000414_2014-06-04_19-49-13_260595134347_rgbf000044-resize_0-target.png,250,4.329,10,2590,260,feet,jsons/v1_VE250_randls_1.json,528625,1115486,29,Woman
106,948666,DepthScenes,duration_manipulation_targetAtFixation,jsons/v1_VE250_randls_1.json,http://54.235.29.9/FacialAge/BNav_EC2/DepthDuration/v2_depth_duration_MTurk/v2_DepthDuration_HTML.html#296,296,1366,768,1366,768,8-29-2022,10-23-26,107,depth_duration_stimuli/003129_2014-05-12_10-48-10_094959634447_rgbf000100-resize_0/003129_2014-05-12_10-48-10_094959634447_rgbf000100-resize_0-target.png,250,4.9305,8,2386,250,feet,jsons/v1_VE250_randls_1.json,528625,1115486,29,Woman
107,948666,DepthScenes,duration_manipulation_targetAtFixation,jsons/v1_VE250_randls_1.json,http://54.235.29.9/FacialAge/BNav_EC2/DepthDuration/v2_depth_duration_MTurk/v2_DepthDuration_HTML.html#296,296,1366,768,1366,768,8-29-2022,10-23-26,108,depth_duration_stimuli/002039_2014-06-24_20-22-38_260595134347_rgbf000084-resize_1/002039_2014-06-24_20-22-38_260595134347_rgbf000084-resize_1-target.png,250,4.408,9,2278,237,feet,jsons/v1_VE250_randls_1.json,528625,1115486,29,Woman
108,948666,DepthScenes,duration_manipulation_targetAtFixation,jsons/v1_VE250_randls_1.json,http://54.235.29.9/FacialAge/BNav_EC2/DepthDuration/v2_depth_duration_MTurk/v2_DepthDuration_HTML.html#296,296,1366,768,1366,768,8-29-2022,10-23-26,109,depth_duration_stimuli/002103_2014-06-25_20-00-40_260595134347_rgbf000049-resize_0/002103_2014-06-25_20-00-40_260595134347_rgbf000049-resize_0-target.png,250,4.105,4,2798,251,feet,jsons/v1_VE250_randls_1.json,528625,1115486,29,Woman
109,948666,DepthScenes,duration_manipulation_targetAtFixation,jsons/v1_VE250_randls_1.json,http://54.235.29.9/FacialAge/BNav_EC2/DepthDuration/v2_depth_duration_MTurk/v2_DepthDuration_HTML.html#296,296,1366,768,1366,768,8-29-2022,10-23-26,110,depth_duration_stimuli/000682_2014-06-08_23-14-58_260595134347_rgbf000041-resize_5/000682_2014-06-08_23-14-58_260595134347_rgbf000041-resize_5-target.png,250,2.7239999999999998,4,2312,249,feet,jsons/v1_VE250_randls_1.json,528625,1115486,29,Woman
110,948666,DepthScenes,duration_manipulation_targetAtFixation,jsons/v1_VE250_randls_1.json,http://54.235.29.9/FacialAge/BNav_EC2/DepthDuration/v2_depth_duration_MTurk/v2_DepthDuration_HTML.html#296,296,1366,768,1366,768,8-29-2022,10-23-26,111,depth_duration_stimuli/001650_2014-06-20_12-09-00_260595134347_rgbf000087-resize_3/001650_2014-06-20_12-09-00_260595134347_rgbf000087-resize_3-target.png,250,1.9505,3,2209,249,feet,jsons/v1_VE250_randls_1.json,528625,1115486,29,Woman
111,948666,DepthScenes,duration_manipulation_targetAtFixation,jsons/v1_VE250_randls_1.json,http://54.235.29.9/FacialAge/BNav_EC2/DepthDuration/v2_depth_duration_MTurk/v2_DepthDuration_HTML.html#296,296,1366,768,1366,768,8-29-2022,10-23-26,112,depth_duration_stimuli/001092_2014-06-15_17-34-58_260595134347_rgbf000171-resize_3/001092_2014-06-15_17-34-58_260595134347_rgbf000171-resize_3-target.png,250,2.6935,3,2244,250,feet,jsons/v1_VE250_randls_1.json,528625,1115486,29,Woman
112,948666,DepthScenes,duration_manipulation_targetAtFixation,jsons/v1_VE250_randls_1.json,http://54.235.29.9/FacialAge/BNav_EC2/DepthDuration/v2_depth_duration_MTurk/v2_DepthDuration_HTML.html#296,296,1366,768,1366,768,8-29-2022,10-23-26,113,depth_duration_stimuli/002545_2014-06-24_13-38-53_094959634447_rgbf000080-resize_4/002545_2014-06-24_13-38-53_094959634447_rgbf000080-resize_4-target.png,250,1.9205,4,2181,250,feet,jsons/v1_VE250_randls_1.json,528625,1115486,29,Woman
113,948666,DepthScenes,duration_manipulation_targetAtFixation,jsons/v1_VE250_randls_1.json,http://54.235.29.9/FacialAge/BNav_EC2/DepthDuration/v2_depth_duration_MTurk/v2_DepthDuration_HTML.html#296,296,1366,768,1366,768,8-29-2022,10-23-26,114,depth_duration_stimuli/003492_2014-05-21_15-50-55_094959634447_rgbf000828-resize_1/003492_2014-05-21_15-50-55_094959634447_rgbf000828-resize_1-target.png,250,4.06875,7,2289,252,feet,jsons/v1_VE250_randls_1.json,528625,1115486,29,Woman
114,948666,DepthScenes,duration_manipulation_targetAtFixation,jsons/v1_VE250_randls_1.json,http://54.235.29.9/FacialAge/BNav_EC2/DepthDuration/v2_depth_duration_MTurk/v2_DepthDuration_HTML.html#296,296,1366,768,1366,768,8-29-2022,10-23-26,115,depth_duration_stimuli/002568_2014-06-24_13-59-21_094959634447_rgbf000062-resize_4/002568_2014-06-24_13-59-21_094959634447_rgbf000062-resize_4-target.png,250,3.015,4,2220,251,feet,jsons/v1_VE250_randls_1.json,528625,1115486,29,Woman
115,948666,DepthScenes,duration_manipulation_targetAtFixation,jsons/v1_VE250_randls_1.json,http://54.235.29.9/FacialAge/BNav_EC2/DepthDuration/v2_depth_duration_MTurk/v2_DepthDuration_HTML.html#296,296,1366,768,1366,768,8-29-2022,10-23-26,116,depth_duration_stimuli/001170_2014-06-17_15-43-44_260595134347_rgbf000096-resize_6/001170_2014-06-17_15-43-44_260595134347_rgbf000096-resize-original.jpg,250,1.1909999999999998,0,6286,238,feet,jsons/v1_VE250_randls_1.json,528625,1115486,29,Woman
116,948666,DepthScenes,duration_manipulation_targetAtFixation,jsons/v1_VE250_randls_1.json,http://54.235.29.9/FacialAge/BNav_EC2/DepthDuration/v2_depth_duration_MTurk/v2_DepthDuration_HTML.html#296,296,1366,768,1366,768,8-29-2022,10-23-26,117,depth_duration_stimuli/001011_2014-06-08_23-18-54_260595134347_rgbf000044-resize_4/001011_2014-06-08_23-18-54_260595134347_rgbf000044-resize_4-target.png,250,2.4730000000000003,7,3318,235,feet,jsons/v1_VE250_randls_1.json,528625,1115486,29,Woman
117,948666,DepthScenes,duration_manipulation_targetAtFixation,jsons/v1_VE250_randls_1.json,http://54.235.29.9/FacialAge/BNav_EC2/DepthDuration/v2_depth_duration_MTurk/v2_DepthDuration_HTML.html#296,296,1366,768,1366,768,8-29-2022,10-23-26,118,depth_duration_stimuli/002875_2014-06-01_15-19-00_094959634447_rgbf000151-resize_1/002875_2014-06-01_15-19-00_094959634447_rgbf000151-resize_1-target.png,250,1.9675,5,3585,249,feet,jsons/v1_VE250_randls_1.json,528625,1115486,29,Woman
118,948666,DepthScenes,duration_manipulation_targetAtFixation,jsons/v1_VE250_randls_1.json,http://54.235.29.9/FacialAge/BNav_EC2/DepthDuration/v2_depth_duration_MTurk/v2_DepthDuration_HTML.html#296,296,1366,768,1366,768,8-29-2022,10-23-26,119,depth_duration_stimuli/001167_2014-06-17_15-38-07_260595134347_rgbf000108-resize_0/001167_2014-06-17_15-38-07_260595134347_rgbf000108-resize_0-target.png,250,1.8505,3,2527,252,feet,jsons/v1_VE250_randls_1.json,528625,1115486,29,Woman
119,948666,DepthScenes,duration_manipulation_targetAtFixation,jsons/v1_VE250_randls_1.json,http://54.235.29.9/FacialAge/BNav_EC2/DepthDuration/v2_depth_duration_MTurk/v2_DepthDuration_HTML.html#296,296,1366,768,1366,768,8-29-2022,10-23-26,120,depth_duration_stimuli/003587_2014-05-23_16-48-02_094959634447_rgbf002384-resize_2/003587_2014-05-23_16-48-02_094959634447_rgbf002384-resize_2-target.png,250,1.357,1,3277,250,feet,jsons/v1_VE250_randls_1.json,528625,1115486,29,Woman
120,948666,DepthScenes,duration_manipulation_targetAtFixation,jsons/v1_VE250_randls_1.json,http://54.235.29.9/FacialAge/BNav_EC2/DepthDuration/v2_depth_duration_MTurk/v2_DepthDuration_HTML.html#296,296,1366,768,1366,768,8-29-2022,10-23-26,121,depth_duration_stimuli/000906_2014-06-08_13-35-43_260595134347_rgbf000155-resize_1/000906_2014-06-08_13-35-43_260595134347_rgbf000155-resize_1-target.png,250,2.8489999999999998,6,2156,249,feet,jsons/v1_VE250_randls_1.json,528625,1115486,29,Woman
121,948666,DepthScenes,duration_manipulation_targetAtFixation,jsons/v1_VE250_randls_1.json,http://54.235.29.9/FacialAge/BNav_EC2/DepthDuration/v2_depth_duration_MTurk/v2_DepthDuration_HTML.html#296,296,1366,768,1366,768,8-29-2022,10-23-26,122,depth_duration_stimuli/002805_2014-06-22_19-54-03_094959634447_rgbf000079-resize_1/002805_2014-06-22_19-54-03_094959634447_rgbf000079-resize_1-target.png,250,3.1439999999999997,6,3210,250,feet,jsons/v1_VE250_randls_1.json,528625,1115486,29,Woman
122,948666,DepthScenes,duration_manipulation_targetAtFixation,jsons/v1_VE250_randls_1.json,http://54.235.29.9/FacialAge/BNav_EC2/DepthDuration/v2_depth_duration_MTurk/v2_DepthDuration_HTML.html#296,296,1366,768,1366,768,8-29-2022,10-23-26,123,depth_duration_stimuli/000692_2014-06-08_13-09-42_260595134347_rgbf000199-resize_2/000692_2014-06-08_13-09-42_260595134347_rgbf000199-resize_2-target.png,250,3.661,10,2261,249,feet,jsons/v1_VE250_randls_1.json,528625,1115486,29,Woman
123,948666,DepthScenes,duration_manipulation_targetAtFixation,jsons/v1_VE250_randls_1.json,http://54.235.29.9/FacialAge/BNav_EC2/DepthDuration/v2_depth_duration_MTurk/v2_DepthDuration_HTML.html#296,296,1366,768,1366,768,8-29-2022,10-23-26,124,depth_duration_stimuli/001094_2014-06-15_17-36-00_260595134347_rgbf000205-resize_0/001094_2014-06-15_17-36-00_260595134347_rgbf000205-resize_0-target.png,250,4.2175,7,2278,231,feet,jsons/v1_VE250_randls_1.json,528625,1115486,29,Woman
124,948666,DepthScenes,duration_manipulation_targetAtFixation,jsons/v1_VE250_randls_1.json,http://54.235.29.9/FacialAge/BNav_EC2/DepthDuration/v2_depth_duration_MTurk/v2_DepthDuration_HTML.html#296,296,1366,768,1366,768,8-29-2022,10-23-26,125,depth_duration_stimuli/001199_2014-06-17_16-03-48_260595134347_rgbf000077-resize_0/001199_2014-06-17_16-03-48_260595134347_rgbf000077-resize_0-target.png,250,3.4375,6,2718,249,feet,jsons/v1_VE250_randls_1.json,528625,1115486,29,Woman
125,948666,DepthScenes,duration_manipulation_targetAtFixation,jsons/v1_VE250_randls_1.json,http://54.235.29.9/FacialAge/BNav_EC2/DepthDuration/v2_depth_duration_MTurk/v2_DepthDuration_HTML.html#296,296,1366,768,1366,768,8-29-2022,10-23-26,126,depth_duration_stimuli/000502_2014-06-08_23-02-32_260595134347_rgbf000063-resize_4/000502_2014-06-08_23-02-32_260595134347_rgbf000063-resize_4-target.png,250,2.431,3,2822,249,feet,jsons/v1_VE250_randls_1.json,528625,1115486,29,Woman
126,948666,DepthScenes,duration_manipulation_targetAtFixation,jsons/v1_VE250_randls_1.json,http://54.235.29.9/FacialAge/BNav_EC2/DepthDuration/v2_depth_duration_MTurk/v2_DepthDuration_HTML.html#296,296,1366,768,1366,768,8-29-2022,10-23-26,127,depth_duration_stimuli/001244_2014-06-17_16-47-45_260595134347_rgbf000030-resize_4/001244_2014-06-17_16-47-45_260595134347_rgbf000030-resize_4-target.png,250,2.0425,4,3024,251,feet,jsons/v1_VE250_randls_1.json,528625,1115486,29,Woman
127,948666,DepthScenes,duration_manipulation_targetAtFixation,jsons/v1_VE250_randls_1.json,http://54.235.29.9/FacialAge/BNav_EC2/DepthDuration/v2_depth_duration_MTurk/v2_DepthDuration_HTML.html#296,296,1366,768,1366,768,8-29-2022,10-23-26,128,depth_duration_stimuli/003495_2014-05-21_16-01-51_094959634447_rgbf000100-resize_3/003495_2014-05-21_16-01-51_094959634447_rgbf000100-resize_3-target.png,250,1.6255,1,2170,250,feet,jsons/v1_VE250_randls_1.json,528625,1115486,29,Woman
128,948666,DepthScenes,duration_manipulation_targetAtFixation,jsons/v1_VE250_randls_1.json,http://54.235.29.9/FacialAge/BNav_EC2/DepthDuration/v2_depth_duration_MTurk/v2_DepthDuration_HTML.html#296,296,1366,768,1366,768,8-29-2022,10-23-26,129,depth_duration_stimuli/002272_2014-06-28_18-53-56_260595134347_rgbf000067-resize_2/002272_2014-06-28_18-53-56_260595134347_rgbf000067-resize_2-target.png,250,1.138,2,2126,251,feet,jsons/v1_VE250_randls_1.json,528625,1115486,29,Woman
129,948666,DepthScenes,duration_manipulation_targetAtFixation,jsons/v1_VE250_randls_1.json,http://54.235.29.9/FacialAge/BNav_EC2/DepthDuration/v2_depth_duration_MTurk/v2_DepthDuration_HTML.html#296,296,1366,768,1366,768,8-29-2022,10-23-26,130,depth_duration_stimuli/001571_2014-06-20_17-21-32_260595134347_rgbf000089-resize_1/001571_2014-06-20_17-21-32_260595134347_rgbf000089-resize_1-target.png,250,1.86,3,1948,249,feet,jsons/v1_VE250_randls_1.json,528625,1115486,29,Woman
130,948666,DepthScenes,duration_manipulation_targetAtFixation,jsons/v1_VE250_randls_1.json,http://54.235.29.9/FacialAge/BNav_EC2/DepthDuration/v2_depth_duration_MTurk/v2_DepthDuration_HTML.html#296,296,1366,768,1366,768,8-29-2022,10-23-26,131,depth_duration_stimuli/001175_2014-06-17_15-45-55_260595134347_rgbf000129-resize_4/001175_2014-06-17_15-45-55_260595134347_rgbf000129-resize_4-target.png,250,4.255,10,2144,249,feet,jsons/v1_VE250_randls_1.json,528625,1115486,29,Woman
131,948666,DepthScenes,duration_manipulation_targetAtFixation,jsons/v1_VE250_randls_1.json,http://54.235.29.9/FacialAge/BNav_EC2/DepthDuration/v2_depth_duration_MTurk/v2_DepthDuration_HTML.html#296,296,1366,768,1366,768,8-29-2022,10-23-26,132,depth_duration_stimuli/003490_2014-05-21_15-50-11_094959634447_rgbf000101-resize_3/003490_2014-05-21_15-50-11_094959634447_rgbf000101-resize_3-target.png,250,3.6445,8,2583,248,feet,jsons/v1_VE250_randls_1.json,528625,1115486,29,Woman
132,948666,DepthScenes,duration_manipulation_targetAtFixation,jsons/v1_VE250_randls_1.json,http://54.235.29.9/FacialAge/BNav_EC2/DepthDuration/v2_depth_duration_MTurk/v2_DepthDuration_HTML.html#296,296,1366,768,1366,768,8-29-2022,10-23-26,133,depth_duration_stimuli/003621_2014-05-23_18-06-08_094959634447_rgbf000101-resize_1/003621_2014-05-23_18-06-08_094959634447_rgbf000101-resize_1-target.png,250,3.9835,12,2298,250,feet,jsons/v1_VE250_randls_1.json,528625,1115486,29,Woman
133,948666,DepthScenes,duration_manipulation_targetAtFixation,jsons/v1_VE250_randls_1.json,http://54.235.29.9/FacialAge/BNav_EC2/DepthDuration/v2_depth_duration_MTurk/v2_DepthDuration_HTML.html#296,296,1366,768,1366,768,8-29-2022,10-23-26,134,depth_duration_stimuli/001584_2014-06-20_11-07-43_260595134347_rgbf000002-resize_1/001584_2014-06-20_11-07-43_260595134347_rgbf000002-resize_1-target.png,250,3.53,5,3035,250,feet,jsons/v1_VE250_randls_1.json,528625,1115486,29,Woman
134,948666,DepthScenes,duration_manipulation_targetAtFixation,jsons/v1_VE250_randls_1.json,http://54.235.29.9/FacialAge/BNav_EC2/DepthDuration/v2_depth_duration_MTurk/v2_DepthDuration_HTML.html#296,296,1366,768,1366,768,8-29-2022,10-23-26,135,depth_duration_stimuli/002072_2014-06-24_21-48-06_260595134347_rgbf000115-resize_0/002072_2014-06-24_21-48-06_260595134347_rgbf000115-resize-original.jpg,250,4.702,0,2142,252,feet,jsons/v1_VE250_randls_1.json,528625,1115486,29,Woman
135,948666,DepthScenes,duration_manipulation_targetAtFixation,jsons/v1_VE250_randls_1.json,http://54.235.29.9/FacialAge/BNav_EC2/DepthDuration/v2_depth_duration_MTurk/v2_DepthDuration_HTML.html#296,296,1366,768,1366,768,8-29-2022,10-23-26,136,depth_duration_stimuli/000739_2014-06-08_18-45-58_260595134347_rgbf000068-resize_1/000739_2014-06-08_18-45-58_260595134347_rgbf000068-resize_1-target.png,250,3.534,7,3802,249,feet,jsons/v1_VE250_randls_1.json,528625,1115486,29,Woman
136,948666,DepthScenes,duration_manipulation_targetAtFixation,jsons/v1_VE250_randls_1.json,http://54.235.29.9/FacialAge/BNav_EC2/DepthDuration/v2_depth_duration_MTurk/v2_DepthDuration_HTML.html#296,296,1366,768,1366,768,8-29-2022,10-23-26,137,depth_duration_stimuli/000734_2014-06-08_17-39-11_260595134347_rgbf000128-resize_2/000734_2014-06-08_17-39-11_260595134347_rgbf000128-resize_2-target.png,250,4.098,7,5502,250,feet,jsons/v1_VE250_randls_1.json,528625,1115486,29,Woman
137,948666,DepthScenes,duration_manipulation_targetAtFixation,jsons/v1_VE250_randls_1.json,http://54.235.29.9/FacialAge/BNav_EC2/DepthDuration/v2_depth_duration_MTurk/v2_DepthDuration_HTML.html#296,296,1366,768,1366,768,8-29-2022,10-23-26,138,depth_duration_stimuli/002630_2014-06-24_14-47-50_094959634447_rgbf000055-resize_1/002630_2014-06-24_14-47-50_094959634447_rgbf000055-resize_1-target.png,250,3.0095,7,4109,236,feet,jsons/v1_VE250_randls_1.json,528625,1115486,29,Woman
138,948666,DepthScenes,duration_manipulation_targetAtFixation,jsons/v1_VE250_randls_1.json,http://54.235.29.9/FacialAge/BNav_EC2/DepthDuration/v2_depth_duration_MTurk/v2_DepthDuration_HTML.html#296,296,1366,768,1366,768,8-29-2022,10-23-26,139,depth_duration_stimuli/002758_2014-06-22_19-11-20_094959634447_rgbf000128-resize_1/002758_2014-06-22_19-11-20_094959634447_rgbf000128-resize_1-target.png,250,2.555,5,2468,251,feet,jsons/v1_VE250_randls_1.json,528625,1115486,29,Woman
139,948666,DepthScenes,duration_manipulation_targetAtFixation,jsons/v1_VE250_randls_1.json,http://54.235.29.9/FacialAge/BNav_EC2/DepthDuration/v2_depth_duration_MTurk/v2_DepthDuration_HTML.html#296,296,1366,768,1366,768,8-29-2022,10-23-26,140,depth_duration_stimuli/001133_2014-06-17_14-49-16_260595134347_rgbf000100-resize_0/001133_2014-06-17_14-49-16_260595134347_rgbf000100-resize_0-target.png,250,4.2115,6,2660,235,feet,jsons/v1_VE250_randls_1.json,528625,1115486,29,Woman
140,948666,DepthScenes,duration_manipulation_targetAtFixation,jsons/v1_VE250_randls_1.json,http://54.235.29.9/FacialAge/BNav_EC2/DepthDuration/v2_depth_duration_MTurk/v2_DepthDuration_HTML.html#296,296,1366,768,1366,768,8-29-2022,10-23-26,141,depth_duration_stimuli/001132_2014-06-17_14-48-54_260595134347_rgbf000100-resize_2/001132_2014-06-17_14-48-54_260595134347_rgbf000100-resize_2-target.png,250,3.753,6,2701,252,feet,jsons/v1_VE250_randls_1.json,528625,1115486,29,Woman
141,948666,DepthScenes,duration_manipulation_targetAtFixation,jsons/v1_VE250_randls_1.json,http://54.235.29.9/FacialAge/BNav_EC2/DepthDuration/v2_depth_duration_MTurk/v2_DepthDuration_HTML.html#296,296,1366,768,1366,768,8-29-2022,10-23-26,142,depth_duration_stimuli/003070_2014-06-15_14-58-27_094959634447_rgbf000150-resize_3/003070_2014-06-15_14-58-27_094959634447_rgbf000150-resize_3-target.png,250,2.9415,6,2380,236,feet,jsons/v1_VE250_randls_1.json,528625,1115486,29,Woman
142,948666,DepthScenes,duration_manipulation_targetAtFixation,jsons/v1_VE250_randls_1.json,http://54.235.29.9/FacialAge/BNav_EC2/DepthDuration/v2_depth_duration_MTurk/v2_DepthDuration_HTML.html#296,296,1366,768,1366,768,8-29-2022,10-23-26,143,depth_duration_stimuli/000943_2014-06-09_19-31-07_260595134347_rgbf000128-resize_1/000943_2014-06-09_19-31-07_260595134347_rgbf000128-resize_1-target.png,250,1.9765,3,2128,249,feet,jsons/v1_VE250_randls_1.json,528625,1115486,29,Woman
143,948666,DepthScenes,duration_manipulation_targetAtFixation,jsons/v1_VE250_randls_1.json,http://54.235.29.9/FacialAge/BNav_EC2/DepthDuration/v2_depth_duration_MTurk/v2_DepthDuration_HTML.html#296,296,1366,768,1366,768,8-29-2022,10-23-26,144,depth_duration_stimuli/001029_2014-06-08_13-17-57_260595134347_rgbf000065-resize_1/001029_2014-06-08_13-17-57_260595134347_rgbf000065-resize_1-target.png,250,3.0835,4,2172,247,feet,jsons/v1_VE250_randls_1.json,528625,1115486,29,Woman
144,948666,DepthScenes,duration_manipulation_targetAtFixation,jsons/v1_VE250_randls_1.json,http://54.235.29.9/FacialAge/BNav_EC2/DepthDuration/v2_depth_duration_MTurk/v2_DepthDuration_HTML.html#296,296,1366,768,1366,768,8-29-2022,10-23-26,145,depth_duration_stimuli/000677_2014-06-08_23-10-32_260595134347_rgbf000158-resize_6/000677_2014-06-08_23-10-32_260595134347_rgbf000158-resize_6-target.png,250,3.556,5,2130,250,feet,jsons/v1_VE250_randls_1.json,528625,1115486,29,Woman
145,948666,DepthScenes,duration_manipulation_targetAtFixation,jsons/v1_VE250_randls_1.json,http://54.235.29.9/FacialAge/BNav_EC2/DepthDuration/v2_depth_duration_MTurk/v2_DepthDuration_HTML.html#296,296,1366,768,1366,768,8-29-2022,10-23-26,146,depth_duration_stimuli/001498_2014-06-19_17-45-14_260595134347_rgbf000129-resize_4/001498_2014-06-19_17-45-14_260595134347_rgbf000129-resize-original.jpg,250,1.4075,0,2065,251,feet,jsons/v1_VE250_randls_1.json,528625,1115486,29,Woman
146,948666,DepthScenes,duration_manipulation_targetAtFixation,jsons/v1_VE250_randls_1.json,http://54.235.29.9/FacialAge/BNav_EC2/DepthDuration/v2_depth_duration_MTurk/v2_DepthDuration_HTML.html#296,296,1366,768,1366,768,8-29-2022,10-23-26,147,depth_duration_stimuli/001555_2014-06-20_17-12-10_260595134347_rgbf000065-resize_4/001555_2014-06-20_17-12-10_260595134347_rgbf000065-resize_4-target.png,250,1.633,1,2430,239,feet,jsons/v1_VE250_randls_1.json,528625,1115486,29,Woman
147,948666,DepthScenes,duration_manipulation_targetAtFixation,jsons/v1_VE250_randls_1.json,http://54.235.29.9/FacialAge/BNav_EC2/DepthDuration/v2_depth_duration_MTurk/v2_DepthDuration_HTML.html#296,296,1366,768,1366,768,8-29-2022,10-23-26,148,depth_duration_stimuli/000103_2014-05-14_22-01-17_260595134347_rgbf000152-resize_5/000103_2014-05-14_22-01-17_260595134347_rgbf000152-resize_5-target.png,250,1.993,3,2813,244,feet,jsons/v1_VE250_randls_1.json,528625,1115486,29,Woman
148,948666,DepthScenes,duration_manipulation_targetAtFixation,jsons/v1_VE250_randls_1.json,http://54.235.29.9/FacialAge/BNav_EC2/DepthDuration/v2_depth_duration_MTurk/v2_DepthDuration_HTML.html#296,296,1366,768,1366,768,8-29-2022,10-23-26,149,depth_duration_stimuli/000917_2014-06-09_22-45-29_260595134347_rgbf000149-resize_3/000917_2014-06-09_22-45-29_260595134347_rgbf000149-resize_3-target.png,250,4.1865,4,2124,249,feet,jsons/v1_VE250_randls_1.json,528625,1115486,29,Woman
149,948666,DepthScenes,duration_manipulation_targetAtFixation,jsons/v1_VE250_randls_1.json,http://54.235.29.9/FacialAge/BNav_EC2/DepthDuration/v2_depth_duration_MTurk/v2_DepthDuration_HTML.html#296,296,1366,768,1366,768,8-29-2022,10-23-26,150,depth_duration_stimuli/002323_2014-06-28_20-01-54_260595134347_rgbf000051-resize_4/002323_2014-06-28_20-01-54_260595134347_rgbf000051-resize_4-target.png,250,3.7310000000000003,5,2873,232,feet,jsons/v1_VE250_randls_1.json,528625,1115486,29,Woman
150,948666,DepthScenes,duration_manipulation_targetAtFixation,jsons/v1_VE250_randls_1.json,http://54.235.29.9/FacialAge/BNav_EC2/DepthDuration/v2_depth_duration_MTurk/v2_DepthDuration_HTML.html#296,296,1366,768,1366,768,8-29-2022,10-23-26,151,depth_duration_stimuli/002153_2014-06-25_21-27-18_260595134347_rgbf000038-resize_5/002153_2014-06-25_21-27-18_260595134347_rgbf000038-resize_5-target.png,250,2.505,3,2261,249,feet,jsons/v1_VE250_randls_1.json,528625,1115486,29,Woman
151,948666,DepthScenes,duration_manipulation_targetAtFixation,jsons/v1_VE250_randls_1.json,http://54.235.29.9/FacialAge/BNav_EC2/DepthDuration/v2_depth_duration_MTurk/v2_DepthDuration_HTML.html#296,296,1366,768,1366,768,8-29-2022,10-23-26,152,depth_duration_stimuli/002660_2014-06-13_15-44-18_094959634447_rgbf001878-resize_2/002660_2014-06-13_15-44-18_094959634447_rgbf001878-resize_2-target.png,250,3.576,5,2205,251,feet,jsons/v1_VE250_randls_1.json,528625,1115486,29,Woman
152,948666,DepthScenes,duration_manipulation_targetAtFixation,jsons/v1_VE250_randls_1.json,http://54.235.29.9/FacialAge/BNav_EC2/DepthDuration/v2_depth_duration_MTurk/v2_DepthDuration_HTML.html#296,296,1366,768,1366,768,8-29-2022,10-23-26,153,depth_duration_stimuli/001056_2014-06-08_18-46-44_260595134347_rgbf000068-resize_0/001056_2014-06-08_18-46-44_260595134347_rgbf000068-resize_0-target.png,250,2.6625,5,2236,246,feet,jsons/v1_VE250_randls_1.json,528625,1115486,29,Woman
153,948666,DepthScenes,duration_manipulation_targetAtFixation,jsons/v1_VE250_randls_1.json,http://54.235.29.9/FacialAge/BNav_EC2/DepthDuration/v2_depth_duration_MTurk/v2_DepthDuration_HTML.html#296,296,1366,768,1366,768,8-29-2022,10-23-26,154,depth_duration_stimuli/002199_2014-06-28_18-33-56_260595134347_rgbf000074-resize_0/002199_2014-06-28_18-33-56_260595134347_rgbf000074-resize_0-target.png,250,1.996,1,2113,252,feet,jsons/v1_VE250_randls_1.json,528625,1115486,29,Woman
154,948666,DepthScenes,duration_manipulation_targetAtFixation,jsons/v1_VE250_randls_1.json,http://54.235.29.9/FacialAge/BNav_EC2/DepthDuration/v2_depth_duration_MTurk/v2_DepthDuration_HTML.html#296,296,1366,768,1366,768,8-29-2022,10-23-26,155,depth_duration_stimuli/001066_2014-06-08_22-03-20_260595134347_rgbf000066-resize_4/001066_2014-06-08_22-03-20_260595134347_rgbf000066-resize_4-target.png,250,4.2330000000000005,5,2046,231,feet,jsons/v1_VE250_randls_1.json,528625,1115486,29,Woman
155,948666,DepthScenes,duration_manipulation_targetAtFixation,jsons/v1_VE250_randls_1.json,http://54.235.29.9/FacialAge/BNav_EC2/DepthDuration/v2_depth_duration_MTurk/v2_DepthDuration_HTML.html#296,296,1366,768,1366,768,8-29-2022,10-23-26,156,depth_duration_stimuli/000742_2014-06-08_18-48-09_260595134347_rgbf000164-resize_4/000742_2014-06-08_18-48-09_260595134347_rgbf000164-resize_4-target.png,250,4.632,7,2414,236,feet,jsons/v1_VE250_randls_1.json,528625,1115486,29,Woman
156,948666,DepthScenes,duration_manipulation_targetAtFixation,jsons/v1_VE250_randls_1.json,http://54.235.29.9/FacialAge/BNav_EC2/DepthDuration/v2_depth_duration_MTurk/v2_DepthDuration_HTML.html#296,296,1366,768,1366,768,8-29-2022,10-23-26,157,depth_duration_stimuli/000470_2014-06-09_19-42-40_260595134347_rgbf000094-resize_1/000470_2014-06-09_19-42-40_260595134347_rgbf000094-resize_1-target.png,250,1.831,2,2029,247,feet,jsons/v1_VE250_randls_1.json,528625,1115486,29,Woman
157,948666,DepthScenes,duration_manipulation_targetAtFixation,jsons/v1_VE250_randls_1.json,http://54.235.29.9/FacialAge/BNav_EC2/DepthDuration/v2_depth_duration_MTurk/v2_DepthDuration_HTML.html#296,296,1366,768,1366,768,8-29-2022,10-23-26,158,depth_duration_stimuli/000109_2014-05-14_23-41-52_260595134347_rgbf000035-resize_9/000109_2014-05-14_23-41-52_260595134347_rgbf000035-resize_9-target.png,250,1.3545,1,2087,253,feet,jsons/v1_VE250_randls_1.json,528625,1115486,29,Woman
158,948666,DepthScenes,duration_manipulation_targetAtFixation,jsons/v1_VE250_randls_1.json,http://54.235.29.9/FacialAge/BNav_EC2/DepthDuration/v2_depth_duration_MTurk/v2_DepthDuration_HTML.html#296,296,1366,768,1366,768,8-29-2022,10-23-26,159,depth_duration_stimuli/002213_2014-06-28_18-37-58_260595134347_rgbf000055-resize_1/002213_2014-06-28_18-37-58_260595134347_rgbf000055-resize_1-target.png,250,3.62,9,2866,251,feet,jsons/v1_VE250_randls_1.json,528625,1115486,29,Woman
159,948666,DepthScenes,duration_manipulation_targetAtFixation,jsons/v1_VE250_randls_1.json,http://54.235.29.9/FacialAge/BNav_EC2/DepthDuration/v2_depth_duration_MTurk/v2_DepthDuration_HTML.html#296,296,1366,768,1366,768,8-29-2022,10-23-26,160,depth_duration_stimuli/000691_2014-06-08_13-08-50_260595134347_rgbf000132-resize_3/000691_2014-06-08_13-08-50_260595134347_rgbf000132-resize_3-target.png,250,4.1530000000000005,8,2379,243,feet,jsons/v1_VE250_randls_1.json,528625,1115486,29,Woman
160,948666,DepthScenes,duration_manipulation_targetAtFixation,jsons/v1_VE250_randls_1.json,http://54.235.29.9/FacialAge/BNav_EC2/DepthDuration/v2_depth_duration_MTurk/v2_DepthDuration_HTML.html#296,296,1366,768,1366,768,8-29-2022,10-23-26,161,depth_duration_stimuli/000929_2014-06-09_16-33-19_260595134347_rgbf000139-resize_0/000929_2014-06-09_16-33-19_260595134347_rgbf000139-resize_0-target.png,250,2.8680000000000003,3,2358,270,feet,jsons/v1_VE250_randls_1.json,528625,1115486,29,Woman
161,948666,DepthScenes,duration_manipulation_targetAtFixation,jsons/v1_VE250_randls_1.json,http://54.235.29.9/FacialAge/BNav_EC2/DepthDuration/v2_depth_duration_MTurk/v2_DepthDuration_HTML.html#296,296,1366,768,1366,768,8-29-2022,10-23-26,162,depth_duration_stimuli/000457_2014-06-08_16-52-43_260595134347_rgbf000199-resize_1/000457_2014-06-08_16-52-43_260595134347_rgbf000199-resize_1-target.png,250,3.6489999999999996,4,2220,246,feet,jsons/v1_VE250_randls_1.json,528625,1115486,29,Woman
162,948666,DepthScenes,duration_manipulation_targetAtFixation,jsons/v1_VE250_randls_1.json,http://54.235.29.9/FacialAge/BNav_EC2/DepthDuration/v2_depth_duration_MTurk/v2_DepthDuration_HTML.html#296,296,1366,768,1366,768,8-29-2022,10-23-26,163,depth_duration_stimuli/002509_2014-06-24_13-19-22_094959634447_rgbf000077-resize_0/002509_2014-06-24_13-19-22_094959634447_rgbf000077-resize_0-target.png,250,1.3065,1,2093,248,feet,jsons/v1_VE250_randls_1.json,528625,1115486,29,Woman
163,948666,DepthScenes,duration_manipulation_targetAtFixation,jsons/v1_VE250_randls_1.json,http://54.235.29.9/FacialAge/BNav_EC2/DepthDuration/v2_depth_duration_MTurk/v2_DepthDuration_HTML.html#296,296,1366,768,1366,768,8-29-2022,10-23-26,164,depth_duration_stimuli/003338_2014-05-20_11-01-23_094959634447_rgbf000051-resize_6/003338_2014-05-20_11-01-23_094959634447_rgbf000051-resize_6-target.png,250,1.693,2,2054,249,feet,jsons/v1_VE250_randls_1.json,528625,1115486,29,Woman
