,subjID,experimentName,versionName,sequenceName,url,selected_row,windowWidth,windowHeight,screenWidth,screenHeight,startDate,startTime,trial,stimulus,duration,actual_depth,depth_estimate,trial_RT,log_sceneDuration,unitSelection,seq_filepath,experimentTime,totalTime,age,gender
0,951864,DepthScenes,duration_manipulation_targetAtFixation,jsons/VE125_randls_48.json,http://54.235.29.9/FacialAge/BNav_EC2/DepthDuration/v2_depth_duration_MTurk/v2_DepthDuration_HTML.html#48,48,1184,1159,2560,1440,8-21-2022,6-39-51,1,depth_duration_stimuli/001417_2014-06-19_16-25-36_260595134347_rgbf000115-resize_5/001417_2014-06-19_16-25-36_260595134347_rgbf000115-resize_5-target.png,125,4.6255,4,3076,126,feet,jsons/VE125_randls_48.json,569514,776031,57,Woman
1,951864,DepthScenes,duration_manipulation_targetAtFixation,jsons/VE125_randls_48.json,http://54.235.29.9/FacialAge/BNav_EC2/DepthDuration/v2_depth_duration_MTurk/v2_DepthDuration_HTML.html#48,48,1184,1159,2560,1440,8-21-2022,6-39-51,2,depth_duration_stimuli/003081_2014-06-15_15-19-16_094959634447_rgbf000150-resize_1/003081_2014-06-15_15-19-16_094959634447_rgbf000150-resize_1-target.png,125,3.9125,4,2444,127,feet,jsons/VE125_randls_48.json,569514,776031,57,Woman
2,951864,DepthScenes,duration_manipulation_targetAtFixation,jsons/VE125_randls_48.json,http://54.235.29.9/FacialAge/BNav_EC2/DepthDuration/v2_depth_duration_MTurk/v2_DepthDuration_HTML.html#48,48,1184,1159,2560,1440,8-21-2022,6-39-51,3,depth_duration_stimuli/001555_2014-06-20_17-12-10_260595134347_rgbf000065-resize_4/001555_2014-06-20_17-12-10_260595134347_rgbf000065-resize_4-target.png,125,1.633,3,2995,122,feet,jsons/VE125_randls_48.json,569514,776031,57,Woman
3,951864,DepthScenes,duration_manipulation_targetAtFixation,jsons/VE125_randls_48.json,http://54.235.29.9/FacialAge/BNav_EC2/DepthDuration/v2_depth_duration_MTurk/v2_DepthDuration_HTML.html#48,48,1184,1159,2560,1440,8-21-2022,6-39-51,4,depth_duration_stimuli/000103_2014-05-14_22-01-17_260595134347_rgbf000152-resize_5/000103_2014-05-14_22-01-17_260595134347_rgbf000152-resize_5-target.png,125,1.993,7,2859,123,feet,jsons/VE125_randls_48.json,569514,776031,57,Woman
4,951864,DepthScenes,duration_manipulation_targetAtFixation,jsons/VE125_randls_48.json,http://54.235.29.9/FacialAge/BNav_EC2/DepthDuration/v2_depth_duration_MTurk/v2_DepthDuration_HTML.html#48,48,1184,1159,2560,1440,8-21-2022,6-39-51,5,depth_duration_stimuli/000414_2014-06-04_19-49-13_260595134347_rgbf000044-resize_0/000414_2014-06-04_19-49-13_260595134347_rgbf000044-resize_0-target.png,125,4.329,6,2761,124,feet,jsons/VE125_randls_48.json,569514,776031,57,Woman
5,951864,DepthScenes,duration_manipulation_targetAtFixation,jsons/VE125_randls_48.json,http://54.235.29.9/FacialAge/BNav_EC2/DepthDuration/v2_depth_duration_MTurk/v2_DepthDuration_HTML.html#48,48,1184,1159,2560,1440,8-21-2022,6-39-51,6,depth_duration_stimuli/003129_2014-05-12_10-48-10_094959634447_rgbf000100-resize_0/003129_2014-05-12_10-48-10_094959634447_rgbf000100-resize_0-target.png,125,4.9305,6,2582,126,feet,jsons/VE125_randls_48.json,569514,776031,57,Woman
6,951864,DepthScenes,duration_manipulation_targetAtFixation,jsons/VE125_randls_48.json,http://54.235.29.9/FacialAge/BNav_EC2/DepthDuration/v2_depth_duration_MTurk/v2_DepthDuration_HTML.html#48,48,1184,1159,2560,1440,8-21-2022,6-39-51,7,depth_duration_stimuli/002663_2014-06-13_15-50-26_094959634447_rgbf000075-resize_1/002663_2014-06-13_15-50-26_094959634447_rgbf000075-resize_1-target.png,125,4.7495,7,2544,123,feet,jsons/VE125_randls_48.json,569514,776031,57,Woman
7,951864,DepthScenes,duration_manipulation_targetAtFixation,jsons/VE125_randls_48.json,http://54.235.29.9/FacialAge/BNav_EC2/DepthDuration/v2_depth_duration_MTurk/v2_DepthDuration_HTML.html#48,48,1184,1159,2560,1440,8-21-2022,6-39-51,8,depth_duration_stimuli/000409_2014-06-04_19-23-33_260595134347_rgbf000067-resize_0/000409_2014-06-04_19-23-33_260595134347_rgbf000067-resize_0-target.png,125,3.7335,6,3009,124,feet,jsons/VE125_randls_48.json,569514,776031,57,Woman
8,951864,DepthScenes,duration_manipulation_targetAtFixation,jsons/VE125_randls_48.json,http://54.235.29.9/FacialAge/BNav_EC2/DepthDuration/v2_depth_duration_MTurk/v2_DepthDuration_HTML.html#48,48,1184,1159,2560,1440,8-21-2022,6-39-51,9,depth_duration_stimuli/002725_2014-06-22_11-47-51_094959634447_rgbf000070-resize_1/002725_2014-06-22_11-47-51_094959634447_rgbf000070-resize_1-target.png,125,2.195,5,2397,121,feet,jsons/VE125_randls_48.json,569514,776031,57,Woman
9,951864,DepthScenes,duration_manipulation_targetAtFixation,jsons/VE125_randls_48.json,http://54.235.29.9/FacialAge/BNav_EC2/DepthDuration/v2_depth_duration_MTurk/v2_DepthDuration_HTML.html#48,48,1184,1159,2560,1440,8-21-2022,6-39-51,10,depth_duration_stimuli/002344_2014-06-28_20-06-29_260595134347_rgbf000030-resize_1/002344_2014-06-28_20-06-29_260595134347_rgbf000030-resize_1-target.png,125,1.5795,3,2615,126,feet,jsons/VE125_randls_48.json,569514,776031,57,Woman
10,951864,DepthScenes,duration_manipulation_targetAtFixation,jsons/VE125_randls_48.json,http://54.235.29.9/FacialAge/BNav_EC2/DepthDuration/v2_depth_duration_MTurk/v2_DepthDuration_HTML.html#48,48,1184,1159,2560,1440,8-21-2022,6-39-51,11,depth_duration_stimuli/001158_2014-06-17_15-32-16_260595134347_rgbf000138-resize_2/001158_2014-06-17_15-32-16_260595134347_rgbf000138-resize_2-target.png,125,4.5315,7,3267,126,feet,jsons/VE125_randls_48.json,569514,776031,57,Woman
11,951864,DepthScenes,duration_manipulation_targetAtFixation,jsons/VE125_randls_48.json,http://54.235.29.9/FacialAge/BNav_EC2/DepthDuration/v2_depth_duration_MTurk/v2_DepthDuration_HTML.html#48,48,1184,1159,2560,1440,8-21-2022,6-39-51,12,depth_duration_stimuli/000556_2014-06-09_22-42-56_260595134347_rgbf000214-resize_1/000556_2014-06-09_22-42-56_260595134347_rgbf000214-resize_1-target.png,125,4.8415,8,2521,123,feet,jsons/VE125_randls_48.json,569514,776031,57,Woman
12,951864,DepthScenes,duration_manipulation_targetAtFixation,jsons/VE125_randls_48.json,http://54.235.29.9/FacialAge/BNav_EC2/DepthDuration/v2_depth_duration_MTurk/v2_DepthDuration_HTML.html#48,48,1184,1159,2560,1440,8-21-2022,6-39-51,13,depth_duration_stimuli/000569_2014-06-09_22-51-47_260595134347_rgbf000141-resize_3/000569_2014-06-09_22-51-47_260595134347_rgbf000141-resize-original.jpg,125,4.512,0,2442,122,feet,jsons/VE125_randls_48.json,569514,776031,57,Woman
13,951864,DepthScenes,duration_manipulation_targetAtFixation,jsons/VE125_randls_48.json,http://54.235.29.9/FacialAge/BNav_EC2/DepthDuration/v2_depth_duration_MTurk/v2_DepthDuration_HTML.html#48,48,1184,1159,2560,1440,8-21-2022,6-39-51,14,depth_duration_stimuli/001059_2014-06-08_21-53-27_260595134347_rgbf000061-resize_4/001059_2014-06-08_21-53-27_260595134347_rgbf000061-resize_4-target.png,125,2.4185,4,2502,125,feet,jsons/VE125_randls_48.json,569514,776031,57,Woman
14,951864,DepthScenes,duration_manipulation_targetAtFixation,jsons/VE125_randls_48.json,http://54.235.29.9/FacialAge/BNav_EC2/DepthDuration/v2_depth_duration_MTurk/v2_DepthDuration_HTML.html#48,48,1184,1159,2560,1440,8-21-2022,6-39-51,15,depth_duration_stimuli/001032_2014-06-08_13-23-17_260595134347_rgbf000021-resize_3/001032_2014-06-08_13-23-17_260595134347_rgbf000021-resize_3-target.png,125,3.2725,4,2514,129,feet,jsons/VE125_randls_48.json,569514,776031,57,Woman
15,951864,DepthScenes,duration_manipulation_targetAtFixation,jsons/VE125_randls_48.json,http://54.235.29.9/FacialAge/BNav_EC2/DepthDuration/v2_depth_duration_MTurk/v2_DepthDuration_HTML.html#48,48,1184,1159,2560,1440,8-21-2022,6-39-51,16,depth_duration_stimuli/003070_2014-06-15_14-58-27_094959634447_rgbf000150-resize_3/003070_2014-06-15_14-58-27_094959634447_rgbf000150-resize_3-target.png,125,2.9415,5,3050,123,feet,jsons/VE125_randls_48.json,569514,776031,57,Woman
16,951864,DepthScenes,duration_manipulation_targetAtFixation,jsons/VE125_randls_48.json,http://54.235.29.9/FacialAge/BNav_EC2/DepthDuration/v2_depth_duration_MTurk/v2_DepthDuration_HTML.html#48,48,1184,1159,2560,1440,8-21-2022,6-39-51,17,depth_duration_stimuli/000943_2014-06-09_19-31-07_260595134347_rgbf000128-resize_1/000943_2014-06-09_19-31-07_260595134347_rgbf000128-resize_1-target.png,125,1.9765,4,2713,123,feet,jsons/VE125_randls_48.json,569514,776031,57,Woman
17,951864,DepthScenes,duration_manipulation_targetAtFixation,jsons/VE125_randls_48.json,http://54.235.29.9/FacialAge/BNav_EC2/DepthDuration/v2_depth_duration_MTurk/v2_DepthDuration_HTML.html#48,48,1184,1159,2560,1440,8-21-2022,6-39-51,18,depth_duration_stimuli/001055_2014-06-08_18-45-35_260595134347_rgbf000111-resize_4/001055_2014-06-08_18-45-35_260595134347_rgbf000111-resize_4-target.png,125,2.4290000000000003,9,2885,125,feet,jsons/VE125_randls_48.json,569514,776031,57,Woman
18,951864,DepthScenes,duration_manipulation_targetAtFixation,jsons/VE125_randls_48.json,http://54.235.29.9/FacialAge/BNav_EC2/DepthDuration/v2_depth_duration_MTurk/v2_DepthDuration_HTML.html#48,48,1184,1159,2560,1440,8-21-2022,6-39-51,19,depth_duration_stimuli/000549_2014-06-08_22-10-24_260595134347_rgbf000247-resize_3/000549_2014-06-08_22-10-24_260595134347_rgbf000247-resize_3-target.png,125,1.841,3,2431,124,feet,jsons/VE125_randls_48.json,569514,776031,57,Woman
19,951864,DepthScenes,duration_manipulation_targetAtFixation,jsons/VE125_randls_48.json,http://54.235.29.9/FacialAge/BNav_EC2/DepthDuration/v2_depth_duration_MTurk/v2_DepthDuration_HTML.html#48,48,1184,1159,2560,1440,8-21-2022,6-39-51,20,depth_duration_stimuli/002509_2014-06-24_13-19-22_094959634447_rgbf000077-resize_0/002509_2014-06-24_13-19-22_094959634447_rgbf000077-resize_0-target.png,125,1.3065,4,2500,125,feet,jsons/VE125_randls_48.json,569514,776031,57,Woman
20,951864,DepthScenes,duration_manipulation_targetAtFixation,jsons/VE125_randls_48.json,http://54.235.29.9/FacialAge/BNav_EC2/DepthDuration/v2_depth_duration_MTurk/v2_DepthDuration_HTML.html#48,48,1184,1159,2560,1440,8-21-2022,6-39-51,21,depth_duration_stimuli/003338_2014-05-20_11-01-23_094959634447_rgbf000051-resize_6/003338_2014-05-20_11-01-23_094959634447_rgbf000051-resize_6-target.png,125,1.693,3,2570,125,feet,jsons/VE125_randls_48.json,569514,776031,57,Woman
21,951864,DepthScenes,duration_manipulation_targetAtFixation,jsons/VE125_randls_48.json,http://54.235.29.9/FacialAge/BNav_EC2/DepthDuration/v2_depth_duration_MTurk/v2_DepthDuration_HTML.html#48,48,1184,1159,2560,1440,8-21-2022,6-39-51,22,depth_duration_stimuli/001133_2014-06-17_14-49-16_260595134347_rgbf000100-resize_0/001133_2014-06-17_14-49-16_260595134347_rgbf000100-resize_0-target.png,125,4.2115,6,2614,123,feet,jsons/VE125_randls_48.json,569514,776031,57,Woman
22,951864,DepthScenes,duration_manipulation_targetAtFixation,jsons/VE125_randls_48.json,http://54.235.29.9/FacialAge/BNav_EC2/DepthDuration/v2_depth_duration_MTurk/v2_DepthDuration_HTML.html#48,48,1184,1159,2560,1440,8-21-2022,6-39-51,23,depth_duration_stimuli/001132_2014-06-17_14-48-54_260595134347_rgbf000100-resize_2/001132_2014-06-17_14-48-54_260595134347_rgbf000100-resize_2-target.png,125,3.753,6,2626,125,feet,jsons/VE125_randls_48.json,569514,776031,57,Woman
23,951864,DepthScenes,duration_manipulation_targetAtFixation,jsons/VE125_randls_48.json,http://54.235.29.9/FacialAge/BNav_EC2/DepthDuration/v2_depth_duration_MTurk/v2_DepthDuration_HTML.html#48,48,1184,1159,2560,1440,8-21-2022,6-39-51,24,depth_duration_stimuli/002989_2014-06-15_12-25-03_094959634447_rgbf000150-resize_3/002989_2014-06-15_12-25-03_094959634447_rgbf000150-resize_3-target.png,125,4.1975,9,3231,122,feet,jsons/VE125_randls_48.json,569514,776031,57,Woman
24,951864,DepthScenes,duration_manipulation_targetAtFixation,jsons/VE125_randls_48.json,http://54.235.29.9/FacialAge/BNav_EC2/DepthDuration/v2_depth_duration_MTurk/v2_DepthDuration_HTML.html#48,48,1184,1159,2560,1440,8-21-2022,6-39-51,25,depth_duration_stimuli/000866_2014-06-09_20-45-42_260595134347_rgbf000139-resize_1/000866_2014-06-09_20-45-42_260595134347_rgbf000139-resize_1-target.png,125,3.2155,6,3221,125,feet,jsons/VE125_randls_48.json,569514,776031,57,Woman
25,951864,DepthScenes,duration_manipulation_targetAtFixation,jsons/VE125_randls_48.json,http://54.235.29.9/FacialAge/BNav_EC2/DepthDuration/v2_depth_duration_MTurk/v2_DepthDuration_HTML.html#48,48,1184,1159,2560,1440,8-21-2022,6-39-51,26,depth_duration_stimuli/000773_2014-06-08_22-24-54_260595134347_rgbf000093-resize_1/000773_2014-06-08_22-24-54_260595134347_rgbf000093-resize_1-target.png,125,4.973,7,2649,126,feet,jsons/VE125_randls_48.json,569514,776031,57,Woman
26,951864,DepthScenes,duration_manipulation_targetAtFixation,jsons/VE125_randls_48.json,http://54.235.29.9/FacialAge/BNav_EC2/DepthDuration/v2_depth_duration_MTurk/v2_DepthDuration_HTML.html#48,48,1184,1159,2560,1440,8-21-2022,6-39-51,27,depth_duration_stimuli/002414_2014-06-28_20-24-58_260595134347_rgbf000067-resize_4/002414_2014-06-28_20-24-58_260595134347_rgbf000067-resize_4-target.png,125,4.363,8,3266,123,feet,jsons/VE125_randls_48.json,569514,776031,57,Woman
27,951864,DepthScenes,duration_manipulation_targetAtFixation,jsons/VE125_randls_48.json,http://54.235.29.9/FacialAge/BNav_EC2/DepthDuration/v2_depth_duration_MTurk/v2_DepthDuration_HTML.html#48,48,1184,1159,2560,1440,8-21-2022,6-39-51,28,depth_duration_stimuli/000929_2014-06-09_16-33-19_260595134347_rgbf000139-resize_0/000929_2014-06-09_16-33-19_260595134347_rgbf000139-resize_0-target.png,125,2.8680000000000003,6,3321,124,feet,jsons/VE125_randls_48.json,569514,776031,57,Woman
28,951864,DepthScenes,duration_manipulation_targetAtFixation,jsons/VE125_randls_48.json,http://54.235.29.9/FacialAge/BNav_EC2/DepthDuration/v2_depth_duration_MTurk/v2_DepthDuration_HTML.html#48,48,1184,1159,2560,1440,8-21-2022,6-39-51,29,depth_duration_stimuli/000457_2014-06-08_16-52-43_260595134347_rgbf000199-resize_1/000457_2014-06-08_16-52-43_260595134347_rgbf000199-resize_1-target.png,125,3.6489999999999996,7,2818,125,feet,jsons/VE125_randls_48.json,569514,776031,57,Woman
29,951864,DepthScenes,duration_manipulation_targetAtFixation,jsons/VE125_randls_48.json,http://54.235.29.9/FacialAge/BNav_EC2/DepthDuration/v2_depth_duration_MTurk/v2_DepthDuration_HTML.html#48,48,1184,1159,2560,1440,8-21-2022,6-39-51,30,depth_duration_stimuli/000375_2014-06-08_11-17-29_260595134347_rgbf000133-resize_2/000375_2014-06-08_11-17-29_260595134347_rgbf000133-resize-original.jpg,125,4.718,0,2502,127,feet,jsons/VE125_randls_48.json,569514,776031,57,Woman
30,951864,DepthScenes,duration_manipulation_targetAtFixation,jsons/VE125_randls_48.json,http://54.235.29.9/FacialAge/BNav_EC2/DepthDuration/v2_depth_duration_MTurk/v2_DepthDuration_HTML.html#48,48,1184,1159,2560,1440,8-21-2022,6-39-51,31,depth_duration_stimuli/000788_2014-06-08_22-34-36_260595134347_rgbf000131-resize_1/000788_2014-06-08_22-34-36_260595134347_rgbf000131-resize_1-target.png,125,3.359,5,4596,126,feet,jsons/VE125_randls_48.json,569514,776031,57,Woman
31,951864,DepthScenes,duration_manipulation_targetAtFixation,jsons/VE125_randls_48.json,http://54.235.29.9/FacialAge/BNav_EC2/DepthDuration/v2_depth_duration_MTurk/v2_DepthDuration_HTML.html#48,48,1184,1159,2560,1440,8-21-2022,6-39-51,32,depth_duration_stimuli/001235_2014-06-17_16-37-36_260595134347_rgbf000084-resize_4/001235_2014-06-17_16-37-36_260595134347_rgbf000084-resize_4-target.png,125,3.6605,5,2593,128,feet,jsons/VE125_randls_48.json,569514,776031,57,Woman
32,951864,DepthScenes,duration_manipulation_targetAtFixation,jsons/VE125_randls_48.json,http://54.235.29.9/FacialAge/BNav_EC2/DepthDuration/v2_depth_duration_MTurk/v2_DepthDuration_HTML.html#48,48,1184,1159,2560,1440,8-21-2022,6-39-51,33,depth_duration_stimuli/003492_2014-05-21_15-50-55_094959634447_rgbf000828-resize_1/003492_2014-05-21_15-50-55_094959634447_rgbf000828-resize_1-target.png,125,4.06875,8,3134,127,feet,jsons/VE125_randls_48.json,569514,776031,57,Woman
33,951864,DepthScenes,duration_manipulation_targetAtFixation,jsons/VE125_randls_48.json,http://54.235.29.9/FacialAge/BNav_EC2/DepthDuration/v2_depth_duration_MTurk/v2_DepthDuration_HTML.html#48,48,1184,1159,2560,1440,8-21-2022,6-39-51,34,depth_duration_stimuli/002568_2014-06-24_13-59-21_094959634447_rgbf000062-resize_4/002568_2014-06-24_13-59-21_094959634447_rgbf000062-resize_4-target.png,125,3.015,5,2626,127,feet,jsons/VE125_randls_48.json,569514,776031,57,Woman
34,951864,DepthScenes,duration_manipulation_targetAtFixation,jsons/VE125_randls_48.json,http://54.235.29.9/FacialAge/BNav_EC2/DepthDuration/v2_depth_duration_MTurk/v2_DepthDuration_HTML.html#48,48,1184,1159,2560,1440,8-21-2022,6-39-51,35,depth_duration_stimuli/003621_2014-05-23_18-06-08_094959634447_rgbf000101-resize_1/003621_2014-05-23_18-06-08_094959634447_rgbf000101-resize_1-target.png,125,3.9835,5,3163,125,feet,jsons/VE125_randls_48.json,569514,776031,57,Woman
35,951864,DepthScenes,duration_manipulation_targetAtFixation,jsons/VE125_randls_48.json,http://54.235.29.9/FacialAge/BNav_EC2/DepthDuration/v2_depth_duration_MTurk/v2_DepthDuration_HTML.html#48,48,1184,1159,2560,1440,8-21-2022,6-39-51,36,depth_duration_stimuli/001584_2014-06-20_11-07-43_260595134347_rgbf000002-resize_1/001584_2014-06-20_11-07-43_260595134347_rgbf000002-resize_1-target.png,125,3.53,4,2792,124,feet,jsons/VE125_randls_48.json,569514,776031,57,Woman
36,951864,DepthScenes,duration_manipulation_targetAtFixation,jsons/VE125_randls_48.json,http://54.235.29.9/FacialAge/BNav_EC2/DepthDuration/v2_depth_duration_MTurk/v2_DepthDuration_HTML.html#48,48,1184,1159,2560,1440,8-21-2022,6-39-51,37,depth_duration_stimuli/000368_2014-06-09_15-53-01_260595134347_rgbf000155-resize_2/000368_2014-06-09_15-53-01_260595134347_rgbf000155-resize_2-target.png,125,2.4859999999999998,4,3718,128,feet,jsons/VE125_randls_48.json,569514,776031,57,Woman
37,951864,DepthScenes,duration_manipulation_targetAtFixation,jsons/VE125_randls_48.json,http://54.235.29.9/FacialAge/BNav_EC2/DepthDuration/v2_depth_duration_MTurk/v2_DepthDuration_HTML.html#48,48,1184,1159,2560,1440,8-21-2022,6-39-51,38,depth_duration_stimuli/002678_2014-06-13_16-15-32_094959634447_rgbf000151-resize_6/002678_2014-06-13_16-15-32_094959634447_rgbf000151-resize_6-target.png,125,2.1830000000000003,6,2772,124,feet,jsons/VE125_randls_48.json,569514,776031,57,Woman
38,951864,DepthScenes,duration_manipulation_targetAtFixation,jsons/VE125_randls_48.json,http://54.235.29.9/FacialAge/BNav_EC2/DepthDuration/v2_depth_duration_MTurk/v2_DepthDuration_HTML.html#48,48,1184,1159,2560,1440,8-21-2022,6-39-51,39,depth_duration_stimuli/001808_2014-06-26_20-50-58_260595134347_rgbf000029-resize_1/001808_2014-06-26_20-50-58_260595134347_rgbf000029-resize_1-target.png,125,4.249,7,2960,120,feet,jsons/VE125_randls_48.json,569514,776031,57,Woman
39,951864,DepthScenes,duration_manipulation_targetAtFixation,jsons/VE125_randls_48.json,http://54.235.29.9/FacialAge/BNav_EC2/DepthDuration/v2_depth_duration_MTurk/v2_DepthDuration_HTML.html#48,48,1184,1159,2560,1440,8-21-2022,6-39-51,40,depth_duration_stimuli/001815_2014-06-26_20-52-55_260595134347_rgbf000020-resize_0/001815_2014-06-26_20-52-55_260595134347_rgbf000020-resize_0-target.png,125,3.3865,6,3672,125,feet,jsons/VE125_randls_48.json,569514,776031,57,Woman
40,951864,DepthScenes,duration_manipulation_targetAtFixation,jsons/VE125_randls_48.json,http://54.235.29.9/FacialAge/BNav_EC2/DepthDuration/v2_depth_duration_MTurk/v2_DepthDuration_HTML.html#48,48,1184,1159,2560,1440,8-21-2022,6-39-51,41,depth_duration_stimuli/001164_2014-06-17_15-35-46_260595134347_rgbf000085-resize_3/001164_2014-06-17_15-35-46_260595134347_rgbf000085-resize_3-target.png,125,2.354,4,3200,127,feet,jsons/VE125_randls_48.json,569514,776031,57,Woman
41,951864,DepthScenes,duration_manipulation_targetAtFixation,jsons/VE125_randls_48.json,http://54.235.29.9/FacialAge/BNav_EC2/DepthDuration/v2_depth_duration_MTurk/v2_DepthDuration_HTML.html#48,48,1184,1159,2560,1440,8-21-2022,6-39-51,42,depth_duration_stimuli/001136_2014-06-17_15-19-41_260595134347_rgbf000076-resize_3/001136_2014-06-17_15-19-41_260595134347_rgbf000076-resize_3-target.png,125,1.8655,4,2638,128,feet,jsons/VE125_randls_48.json,569514,776031,57,Woman
42,951864,DepthScenes,duration_manipulation_targetAtFixation,jsons/VE125_randls_48.json,http://54.235.29.9/FacialAge/BNav_EC2/DepthDuration/v2_depth_duration_MTurk/v2_DepthDuration_HTML.html#48,48,1184,1159,2560,1440,8-21-2022,6-39-51,43,depth_duration_stimuli/000493_2014-06-09_21-01-18_260595134347_rgbf000196-resize_3/000493_2014-06-09_21-01-18_260595134347_rgbf000196-resize_3-target.png,125,3.44,4,3313,126,feet,jsons/VE125_randls_48.json,569514,776031,57,Woman
43,951864,DepthScenes,duration_manipulation_targetAtFixation,jsons/VE125_randls_48.json,http://54.235.29.9/FacialAge/BNav_EC2/DepthDuration/v2_depth_duration_MTurk/v2_DepthDuration_HTML.html#48,48,1184,1159,2560,1440,8-21-2022,6-39-51,44,depth_duration_stimuli/000191_2014-05-12_17-07-38_260595134347_rgbf000199-resize_0/000191_2014-05-12_17-07-38_260595134347_rgbf000199-resize_0-target.png,125,3.7995,7,2780,124,feet,jsons/VE125_randls_48.json,569514,776031,57,Woman
44,951864,DepthScenes,duration_manipulation_targetAtFixation,jsons/VE125_randls_48.json,http://54.235.29.9/FacialAge/BNav_EC2/DepthDuration/v2_depth_duration_MTurk/v2_DepthDuration_HTML.html#48,48,1184,1159,2560,1440,8-21-2022,6-39-51,45,depth_duration_stimuli/000787_2014-06-08_22-33-53_260595134347_rgbf000175-resize_1/000787_2014-06-08_22-33-53_260595134347_rgbf000175-resize-original.jpg,125,4.784,0,2972,122,feet,jsons/VE125_randls_48.json,569514,776031,57,Woman
45,951864,DepthScenes,duration_manipulation_targetAtFixation,jsons/VE125_randls_48.json,http://54.235.29.9/FacialAge/BNav_EC2/DepthDuration/v2_depth_duration_MTurk/v2_DepthDuration_HTML.html#48,48,1184,1159,2560,1440,8-21-2022,6-39-51,46,depth_duration_stimuli/002748_2014-06-22_19-07-22_094959634447_rgbf000078-resize_1/002748_2014-06-22_19-07-22_094959634447_rgbf000078-resize_1-target.png,125,4.6705,8,3460,126,feet,jsons/VE125_randls_48.json,569514,776031,57,Woman
46,951864,DepthScenes,duration_manipulation_targetAtFixation,jsons/VE125_randls_48.json,http://54.235.29.9/FacialAge/BNav_EC2/DepthDuration/v2_depth_duration_MTurk/v2_DepthDuration_HTML.html#48,48,1184,1159,2560,1440,8-21-2022,6-39-51,47,depth_duration_stimuli/002995_2014-06-15_12-31-26_094959634447_rgbf000150-resize_1/002995_2014-06-15_12-31-26_094959634447_rgbf000150-resize_1-target.png,125,3.8360000000000003,7,3447,126,feet,jsons/VE125_randls_48.json,569514,776031,57,Woman
47,951864,DepthScenes,duration_manipulation_targetAtFixation,jsons/VE125_randls_48.json,http://54.235.29.9/FacialAge/BNav_EC2/DepthDuration/v2_depth_duration_MTurk/v2_DepthDuration_HTML.html#48,48,1184,1159,2560,1440,8-21-2022,6-39-51,48,depth_duration_stimuli/000736_2014-06-08_18-24-15_260595134347_rgbf000206-resize_3/000736_2014-06-08_18-24-15_260595134347_rgbf000206-resize_3-target.png,125,3.515,3,3042,126,feet,jsons/VE125_randls_48.json,569514,776031,57,Woman
48,951864,DepthScenes,duration_manipulation_targetAtFixation,jsons/VE125_randls_48.json,http://54.235.29.9/FacialAge/BNav_EC2/DepthDuration/v2_depth_duration_MTurk/v2_DepthDuration_HTML.html#48,48,1184,1159,2560,1440,8-21-2022,6-39-51,49,depth_duration_stimuli/000137_2014-05-20_17-04-49_260595134347_rgbf000120-resize_1/000137_2014-05-20_17-04-49_260595134347_rgbf000120-resize_1-target.png,125,3.786,5,2904,123,feet,jsons/VE125_randls_48.json,569514,776031,57,Woman
49,951864,DepthScenes,duration_manipulation_targetAtFixation,jsons/VE125_randls_48.json,http://54.235.29.9/FacialAge/BNav_EC2/DepthDuration/v2_depth_duration_MTurk/v2_DepthDuration_HTML.html#48,48,1184,1159,2560,1440,8-21-2022,6-39-51,50,depth_duration_stimuli/002272_2014-06-28_18-53-56_260595134347_rgbf000067-resize_2/002272_2014-06-28_18-53-56_260595134347_rgbf000067-resize_2-target.png,125,1.138,0,2334,125,feet,jsons/VE125_randls_48.json,569514,776031,57,Woman
50,951864,DepthScenes,duration_manipulation_targetAtFixation,jsons/VE125_randls_48.json,http://54.235.29.9/FacialAge/BNav_EC2/DepthDuration/v2_depth_duration_MTurk/v2_DepthDuration_HTML.html#48,48,1184,1159,2560,1440,8-21-2022,6-39-51,51,depth_duration_stimuli/001571_2014-06-20_17-21-32_260595134347_rgbf000089-resize_1/001571_2014-06-20_17-21-32_260595134347_rgbf000089-resize_1-target.png,125,1.86,3,2757,125,feet,jsons/VE125_randls_48.json,569514,776031,57,Woman
51,951864,DepthScenes,duration_manipulation_targetAtFixation,jsons/VE125_randls_48.json,http://54.235.29.9/FacialAge/BNav_EC2/DepthDuration/v2_depth_duration_MTurk/v2_DepthDuration_HTML.html#48,48,1184,1159,2560,1440,8-21-2022,6-39-51,52,depth_duration_stimuli/001110_2014-06-15_17-25-28_260595134347_rgbf000150-resize_1/001110_2014-06-15_17-25-28_260595134347_rgbf000150-resize_1-target.png,125,1.7115,3,3118,123,feet,jsons/VE125_randls_48.json,569514,776031,57,Woman
52,951864,DepthScenes,duration_manipulation_targetAtFixation,jsons/VE125_randls_48.json,http://54.235.29.9/FacialAge/BNav_EC2/DepthDuration/v2_depth_duration_MTurk/v2_DepthDuration_HTML.html#48,48,1184,1159,2560,1440,8-21-2022,6-39-51,53,depth_duration_stimuli/000927_2014-06-09_16-32-30_260595134347_rgbf000123-resize_3/000927_2014-06-09_16-32-30_260595134347_rgbf000123-resize_3-target.png,125,2.6785,5,5033,126,feet,jsons/VE125_randls_48.json,569514,776031,57,Woman
53,951864,DepthScenes,duration_manipulation_targetAtFixation,jsons/VE125_randls_48.json,http://54.235.29.9/FacialAge/BNav_EC2/DepthDuration/v2_depth_duration_MTurk/v2_DepthDuration_HTML.html#48,48,1184,1159,2560,1440,8-21-2022,6-39-51,54,depth_duration_stimuli/001056_2014-06-08_18-46-44_260595134347_rgbf000068-resize_0/001056_2014-06-08_18-46-44_260595134347_rgbf000068-resize_0-target.png,125,2.6625,5,2611,123,feet,jsons/VE125_randls_48.json,569514,776031,57,Woman
54,951864,DepthScenes,duration_manipulation_targetAtFixation,jsons/VE125_randls_48.json,http://54.235.29.9/FacialAge/BNav_EC2/DepthDuration/v2_depth_duration_MTurk/v2_DepthDuration_HTML.html#48,48,1184,1159,2560,1440,8-21-2022,6-39-51,55,depth_duration_stimuli/002199_2014-06-28_18-33-56_260595134347_rgbf000074-resize_0/002199_2014-06-28_18-33-56_260595134347_rgbf000074-resize_0-target.png,125,1.996,3,4661,123,feet,jsons/VE125_randls_48.json,569514,776031,57,Woman
55,951864,DepthScenes,duration_manipulation_targetAtFixation,jsons/VE125_randls_48.json,http://54.235.29.9/FacialAge/BNav_EC2/DepthDuration/v2_depth_duration_MTurk/v2_DepthDuration_HTML.html#48,48,1184,1159,2560,1440,8-21-2022,6-39-51,56,depth_duration_stimuli/002784_2014-06-22_19-26-30_094959634447_rgbf000083-resize_3/002784_2014-06-22_19-26-30_094959634447_rgbf000083-resize_3-target.png,125,1.8046666666667,2,3008,125,feet,jsons/VE125_randls_48.json,569514,776031,57,Woman
56,951864,DepthScenes,duration_manipulation_targetAtFixation,jsons/VE125_randls_48.json,http://54.235.29.9/FacialAge/BNav_EC2/DepthDuration/v2_depth_duration_MTurk/v2_DepthDuration_HTML.html#48,48,1184,1159,2560,1440,8-21-2022,6-39-51,57,depth_duration_stimuli/001100_2014-06-15_17-46-26_260595134347_rgbf000225-resize_2/001100_2014-06-15_17-46-26_260595134347_rgbf000225-resize_2-target.png,125,2.24,3,2623,123,feet,jsons/VE125_randls_48.json,569514,776031,57,Woman
57,951864,DepthScenes,duration_manipulation_targetAtFixation,jsons/VE125_randls_48.json,http://54.235.29.9/FacialAge/BNav_EC2/DepthDuration/v2_depth_duration_MTurk/v2_DepthDuration_HTML.html#48,48,1184,1159,2560,1440,8-21-2022,6-39-51,58,depth_duration_stimuli/001167_2014-06-17_15-38-07_260595134347_rgbf000108-resize_0/001167_2014-06-17_15-38-07_260595134347_rgbf000108-resize_0-target.png,125,1.8505,2,2454,122,feet,jsons/VE125_randls_48.json,569514,776031,57,Woman
58,951864,DepthScenes,duration_manipulation_targetAtFixation,jsons/VE125_randls_48.json,http://54.235.29.9/FacialAge/BNav_EC2/DepthDuration/v2_depth_duration_MTurk/v2_DepthDuration_HTML.html#48,48,1184,1159,2560,1440,8-21-2022,6-39-51,59,depth_duration_stimuli/003587_2014-05-23_16-48-02_094959634447_rgbf002384-resize_2/003587_2014-05-23_16-48-02_094959634447_rgbf002384-resize_2-target.png,125,1.357,2,2457,125,feet,jsons/VE125_randls_48.json,569514,776031,57,Woman
59,951864,DepthScenes,duration_manipulation_targetAtFixation,jsons/VE125_randls_48.json,http://54.235.29.9/FacialAge/BNav_EC2/DepthDuration/v2_depth_duration_MTurk/v2_DepthDuration_HTML.html#48,48,1184,1159,2560,1440,8-21-2022,6-39-51,60,depth_duration_stimuli/003292_2014-05-14_21-53-49_094959634447_rgbf000100-resize_2/003292_2014-05-14_21-53-49_094959634447_rgbf000100-resize_2-target.png,125,3.4815,4,2476,121,feet,jsons/VE125_randls_48.json,569514,776031,57,Woman
60,951864,DepthScenes,duration_manipulation_targetAtFixation,jsons/VE125_randls_48.json,http://54.235.29.9/FacialAge/BNav_EC2/DepthDuration/v2_depth_duration_MTurk/v2_DepthDuration_HTML.html#48,48,1184,1159,2560,1440,8-21-2022,6-39-51,61,depth_duration_stimuli/002639_2014-06-24_14-51-37_094959634447_rgbf000074-resize_4/002639_2014-06-24_14-51-37_094959634447_rgbf000074-resize_4-target.png,125,4.0375,4,2723,120,feet,jsons/VE125_randls_48.json,569514,776031,57,Woman
61,951864,DepthScenes,duration_manipulation_targetAtFixation,jsons/VE125_randls_48.json,http://54.235.29.9/FacialAge/BNav_EC2/DepthDuration/v2_depth_duration_MTurk/v2_DepthDuration_HTML.html#48,48,1184,1159,2560,1440,8-21-2022,6-39-51,62,depth_duration_stimuli/000917_2014-06-09_22-45-29_260595134347_rgbf000149-resize_3/000917_2014-06-09_22-45-29_260595134347_rgbf000149-resize_3-target.png,125,4.1865,5,2433,128,feet,jsons/VE125_randls_48.json,569514,776031,57,Woman
62,951864,DepthScenes,duration_manipulation_targetAtFixation,jsons/VE125_randls_48.json,http://54.235.29.9/FacialAge/BNav_EC2/DepthDuration/v2_depth_duration_MTurk/v2_DepthDuration_HTML.html#48,48,1184,1159,2560,1440,8-21-2022,6-39-51,63,depth_duration_stimuli/002323_2014-06-28_20-01-54_260595134347_rgbf000051-resize_4/002323_2014-06-28_20-01-54_260595134347_rgbf000051-resize_4-target.png,125,3.7310000000000003,6,2848,121,feet,jsons/VE125_randls_48.json,569514,776031,57,Woman
63,951864,DepthScenes,duration_manipulation_targetAtFixation,jsons/VE125_randls_48.json,http://54.235.29.9/FacialAge/BNav_EC2/DepthDuration/v2_depth_duration_MTurk/v2_DepthDuration_HTML.html#48,48,1184,1159,2560,1440,8-21-2022,6-39-51,64,depth_duration_stimuli/001029_2014-06-08_13-17-57_260595134347_rgbf000065-resize_1/001029_2014-06-08_13-17-57_260595134347_rgbf000065-resize_1-target.png,125,3.0835,5,2536,126,feet,jsons/VE125_randls_48.json,569514,776031,57,Woman
64,951864,DepthScenes,duration_manipulation_targetAtFixation,jsons/VE125_randls_48.json,http://54.235.29.9/FacialAge/BNav_EC2/DepthDuration/v2_depth_duration_MTurk/v2_DepthDuration_HTML.html#48,48,1184,1159,2560,1440,8-21-2022,6-39-51,65,depth_duration_stimuli/000677_2014-06-08_23-10-32_260595134347_rgbf000158-resize_6/000677_2014-06-08_23-10-32_260595134347_rgbf000158-resize_6-target.png,125,3.556,4,2716,125,feet,jsons/VE125_randls_48.json,569514,776031,57,Woman
65,951864,DepthScenes,duration_manipulation_targetAtFixation,jsons/VE125_randls_48.json,http://54.235.29.9/FacialAge/BNav_EC2/DepthDuration/v2_depth_duration_MTurk/v2_DepthDuration_HTML.html#48,48,1184,1159,2560,1440,8-21-2022,6-39-51,66,depth_duration_stimuli/001222_2014-06-17_16-24-06_260595134347_rgbf000073-resize_0/001222_2014-06-17_16-24-06_260595134347_rgbf000073-resize-original.jpg,125,1.4385,0,2555,120,feet,jsons/VE125_randls_48.json,569514,776031,57,Woman
66,951864,DepthScenes,duration_manipulation_targetAtFixation,jsons/VE125_randls_48.json,http://54.235.29.9/FacialAge/BNav_EC2/DepthDuration/v2_depth_duration_MTurk/v2_DepthDuration_HTML.html#48,48,1184,1159,2560,1440,8-21-2022,6-39-51,67,depth_duration_stimuli/002549_2014-06-24_13-41-39_094959634447_rgbf000022-resize_3/002549_2014-06-24_13-41-39_094959634447_rgbf000022-resize_3-target.png,125,1.476,2,2659,127,feet,jsons/VE125_randls_48.json,569514,776031,57,Woman
67,951864,DepthScenes,duration_manipulation_targetAtFixation,jsons/VE125_randls_48.json,http://54.235.29.9/FacialAge/BNav_EC2/DepthDuration/v2_depth_duration_MTurk/v2_DepthDuration_HTML.html#48,48,1184,1159,2560,1440,8-21-2022,6-39-51,68,depth_duration_stimuli/002750_2014-06-22_19-08-03_094959634447_rgbf000094-resize_4/002750_2014-06-22_19-08-03_094959634447_rgbf000094-resize_4-target.png,125,2.354,4,2848,124,feet,jsons/VE125_randls_48.json,569514,776031,57,Woman
68,951864,DepthScenes,duration_manipulation_targetAtFixation,jsons/VE125_randls_48.json,http://54.235.29.9/FacialAge/BNav_EC2/DepthDuration/v2_depth_duration_MTurk/v2_DepthDuration_HTML.html#48,48,1184,1159,2560,1440,8-21-2022,6-39-51,69,depth_duration_stimuli/002788_2014-06-22_19-36-03_094959634447_rgbf000088-resize_2/002788_2014-06-22_19-36-03_094959634447_rgbf000088-resize_2-target.png,125,1.6465,4,2875,128,feet,jsons/VE125_randls_48.json,569514,776031,57,Woman
69,951864,DepthScenes,duration_manipulation_targetAtFixation,jsons/VE125_randls_48.json,http://54.235.29.9/FacialAge/BNav_EC2/DepthDuration/v2_depth_duration_MTurk/v2_DepthDuration_HTML.html#48,48,1184,1159,2560,1440,8-21-2022,6-39-51,70,depth_duration_stimuli/000749_2014-06-08_21-55-06_260595134347_rgbf000070-resize_2/000749_2014-06-08_21-55-06_260595134347_rgbf000070-resize_2-target.png,125,2.331,4,2941,127,feet,jsons/VE125_randls_48.json,569514,776031,57,Woman
70,951864,DepthScenes,duration_manipulation_targetAtFixation,jsons/VE125_randls_48.json,http://54.235.29.9/FacialAge/BNav_EC2/DepthDuration/v2_depth_duration_MTurk/v2_DepthDuration_HTML.html#48,48,1184,1159,2560,1440,8-21-2022,6-39-51,71,depth_duration_stimuli/001011_2014-06-08_23-18-54_260595134347_rgbf000044-resize_4/001011_2014-06-08_23-18-54_260595134347_rgbf000044-resize_4-target.png,125,2.4730000000000003,5,2806,128,feet,jsons/VE125_randls_48.json,569514,776031,57,Woman
71,951864,DepthScenes,duration_manipulation_targetAtFixation,jsons/VE125_randls_48.json,http://54.235.29.9/FacialAge/BNav_EC2/DepthDuration/v2_depth_duration_MTurk/v2_DepthDuration_HTML.html#48,48,1184,1159,2560,1440,8-21-2022,6-39-51,72,depth_duration_stimuli/002875_2014-06-01_15-19-00_094959634447_rgbf000151-resize_1/002875_2014-06-01_15-19-00_094959634447_rgbf000151-resize_1-target.png,125,1.9675,3,2971,120,feet,jsons/VE125_randls_48.json,569514,776031,57,Woman
72,951864,DepthScenes,duration_manipulation_targetAtFixation,jsons/VE125_randls_48.json,http://54.235.29.9/FacialAge/BNav_EC2/DepthDuration/v2_depth_duration_MTurk/v2_DepthDuration_HTML.html#48,48,1184,1159,2560,1440,8-21-2022,6-39-51,73,depth_duration_stimuli/002153_2014-06-25_21-27-18_260595134347_rgbf000038-resize_5/002153_2014-06-25_21-27-18_260595134347_rgbf000038-resize_5-target.png,125,2.505,3,2827,123,feet,jsons/VE125_randls_48.json,569514,776031,57,Woman
73,951864,DepthScenes,duration_manipulation_targetAtFixation,jsons/VE125_randls_48.json,http://54.235.29.9/FacialAge/BNav_EC2/DepthDuration/v2_depth_duration_MTurk/v2_DepthDuration_HTML.html#48,48,1184,1159,2560,1440,8-21-2022,6-39-51,74,depth_duration_stimuli/002660_2014-06-13_15-44-18_094959634447_rgbf001878-resize_2/002660_2014-06-13_15-44-18_094959634447_rgbf001878-resize_2-target.png,125,3.576,3,3793,123,feet,jsons/VE125_randls_48.json,569514,776031,57,Woman
74,951864,DepthScenes,duration_manipulation_targetAtFixation,jsons/VE125_randls_48.json,http://54.235.29.9/FacialAge/BNav_EC2/DepthDuration/v2_depth_duration_MTurk/v2_DepthDuration_HTML.html#48,48,1184,1159,2560,1440,8-21-2022,6-39-51,75,depth_duration_stimuli/002570_2014-06-24_13-59-54_094959634447_rgbf000059-resize_0/002570_2014-06-24_13-59-54_094959634447_rgbf000059-resize_0-target.png,125,4.037,4,2804,125,feet,jsons/VE125_randls_48.json,569514,776031,57,Woman
75,951864,DepthScenes,duration_manipulation_targetAtFixation,jsons/VE125_randls_48.json,http://54.235.29.9/FacialAge/BNav_EC2/DepthDuration/v2_depth_duration_MTurk/v2_DepthDuration_HTML.html#48,48,1184,1159,2560,1440,8-21-2022,6-39-51,76,depth_duration_stimuli/002467_2014-06-28_20-38-07_260595134347_rgbf000026-resize_2/002467_2014-06-28_20-38-07_260595134347_rgbf000026-resize_2-target.png,125,4.742,5,3324,125,feet,jsons/VE125_randls_48.json,569514,776031,57,Woman
76,951864,DepthScenes,duration_manipulation_targetAtFixation,jsons/VE125_randls_48.json,http://54.235.29.9/FacialAge/BNav_EC2/DepthDuration/v2_depth_duration_MTurk/v2_DepthDuration_HTML.html#48,48,1184,1159,2560,1440,8-21-2022,6-39-51,77,depth_duration_stimuli/001066_2014-06-08_22-03-20_260595134347_rgbf000066-resize_4/001066_2014-06-08_22-03-20_260595134347_rgbf000066-resize_4-target.png,125,4.2330000000000005,7,2671,123,feet,jsons/VE125_randls_48.json,569514,776031,57,Woman
77,951864,DepthScenes,duration_manipulation_targetAtFixation,jsons/VE125_randls_48.json,http://54.235.29.9/FacialAge/BNav_EC2/DepthDuration/v2_depth_duration_MTurk/v2_DepthDuration_HTML.html#48,48,1184,1159,2560,1440,8-21-2022,6-39-51,78,depth_duration_stimuli/000742_2014-06-08_18-48-09_260595134347_rgbf000164-resize_4/000742_2014-06-08_18-48-09_260595134347_rgbf000164-resize_4-target.png,125,4.632,7,3111,127,feet,jsons/VE125_randls_48.json,569514,776031,57,Woman
78,951864,DepthScenes,duration_manipulation_targetAtFixation,jsons/VE125_randls_48.json,http://54.235.29.9/FacialAge/BNav_EC2/DepthDuration/v2_depth_duration_MTurk/v2_DepthDuration_HTML.html#48,48,1184,1159,2560,1440,8-21-2022,6-39-51,79,depth_duration_stimuli/000436_2014-06-09_22-25-11_260595134347_rgbf000137-resize_1/000436_2014-06-09_22-25-11_260595134347_rgbf000137-resize_1-target.png,125,4.0705,9,2971,123,feet,jsons/VE125_randls_48.json,569514,776031,57,Woman
79,951864,DepthScenes,duration_manipulation_targetAtFixation,jsons/VE125_randls_48.json,http://54.235.29.9/FacialAge/BNav_EC2/DepthDuration/v2_depth_duration_MTurk/v2_DepthDuration_HTML.html#48,48,1184,1159,2560,1440,8-21-2022,6-39-51,80,depth_duration_stimuli/002444_2014-06-28_20-32-08_260595134347_rgbf000027-resize_0/002444_2014-06-28_20-32-08_260595134347_rgbf000027-resize_0-target.png,125,4.388999999999999,8,2839,125,feet,jsons/VE125_randls_48.json,569514,776031,57,Woman
80,951864,DepthScenes,duration_manipulation_targetAtFixation,jsons/VE125_randls_48.json,http://54.235.29.9/FacialAge/BNav_EC2/DepthDuration/v2_depth_duration_MTurk/v2_DepthDuration_HTML.html#48,48,1184,1159,2560,1440,8-21-2022,6-39-51,81,depth_duration_stimuli/000682_2014-06-08_23-14-58_260595134347_rgbf000041-resize_5/000682_2014-06-08_23-14-58_260595134347_rgbf000041-resize_5-target.png,125,2.7239999999999998,4,2637,127,feet,jsons/VE125_randls_48.json,569514,776031,57,Woman
81,951864,DepthScenes,duration_manipulation_targetAtFixation,jsons/VE125_randls_48.json,http://54.235.29.9/FacialAge/BNav_EC2/DepthDuration/v2_depth_duration_MTurk/v2_DepthDuration_HTML.html#48,48,1184,1159,2560,1440,8-21-2022,6-39-51,82,depth_duration_stimuli/001650_2014-06-20_12-09-00_260595134347_rgbf000087-resize_3/001650_2014-06-20_12-09-00_260595134347_rgbf000087-resize_3-target.png,125,1.9505,3,4258,126,feet,jsons/VE125_randls_48.json,569514,776031,57,Woman
82,951864,DepthScenes,duration_manipulation_targetAtFixation,jsons/VE125_randls_48.json,http://54.235.29.9/FacialAge/BNav_EC2/DepthDuration/v2_depth_duration_MTurk/v2_DepthDuration_HTML.html#48,48,1184,1159,2560,1440,8-21-2022,6-39-51,83,depth_duration_stimuli/001092_2014-06-15_17-34-58_260595134347_rgbf000171-resize_3/001092_2014-06-15_17-34-58_260595134347_rgbf000171-resize_3-target.png,125,2.6935,3,2804,123,feet,jsons/VE125_randls_48.json,569514,776031,57,Woman
83,951864,DepthScenes,duration_manipulation_targetAtFixation,jsons/VE125_randls_48.json,http://54.235.29.9/FacialAge/BNav_EC2/DepthDuration/v2_depth_duration_MTurk/v2_DepthDuration_HTML.html#48,48,1184,1159,2560,1440,8-21-2022,6-39-51,84,depth_duration_stimuli/002545_2014-06-24_13-38-53_094959634447_rgbf000080-resize_4/002545_2014-06-24_13-38-53_094959634447_rgbf000080-resize_4-target.png,125,1.9205,4,2456,126,feet,jsons/VE125_randls_48.json,569514,776031,57,Woman
84,951864,DepthScenes,duration_manipulation_targetAtFixation,jsons/VE125_randls_48.json,http://54.235.29.9/FacialAge/BNav_EC2/DepthDuration/v2_depth_duration_MTurk/v2_DepthDuration_HTML.html#48,48,1184,1159,2560,1440,8-21-2022,6-39-51,85,depth_duration_stimuli/000486_2014-06-09_20-47-20_260595134347_rgbf000143-resize_2/000486_2014-06-09_20-47-20_260595134347_rgbf000143-resize_2-target.png,125,4.8325,4,2804,124,feet,jsons/VE125_randls_48.json,569514,776031,57,Woman
85,951864,DepthScenes,duration_manipulation_targetAtFixation,jsons/VE125_randls_48.json,http://54.235.29.9/FacialAge/BNav_EC2/DepthDuration/v2_depth_duration_MTurk/v2_DepthDuration_HTML.html#48,48,1184,1159,2560,1440,8-21-2022,6-39-51,86,depth_duration_stimuli/003083_2014-06-15_15-21-03_094959634447_rgbf000063-resize_1/003083_2014-06-15_15-21-03_094959634447_rgbf000063-resize_1-target.png,125,4.1405,8,2987,128,feet,jsons/VE125_randls_48.json,569514,776031,57,Woman
86,951864,DepthScenes,duration_manipulation_targetAtFixation,jsons/VE125_randls_48.json,http://54.235.29.9/FacialAge/BNav_EC2/DepthDuration/v2_depth_duration_MTurk/v2_DepthDuration_HTML.html#48,48,1184,1159,2560,1440,8-21-2022,6-39-51,87,depth_duration_stimuli/002445_2014-06-28_20-32-16_260595134347_rgbf000029-resize_4/002445_2014-06-28_20-32-16_260595134347_rgbf000029-resize_4-target.png,125,2.5315,3,2805,125,feet,jsons/VE125_randls_48.json,569514,776031,57,Woman
87,951864,DepthScenes,duration_manipulation_targetAtFixation,jsons/VE125_randls_48.json,http://54.235.29.9/FacialAge/BNav_EC2/DepthDuration/v2_depth_duration_MTurk/v2_DepthDuration_HTML.html#48,48,1184,1159,2560,1440,8-21-2022,6-39-51,88,depth_duration_stimuli/000780_2014-06-08_22-28-29_260595134347_rgbf000126-resize_1/000780_2014-06-08_22-28-29_260595134347_rgbf000126-resize_1-target.png,125,3.3825,6,4157,128,feet,jsons/VE125_randls_48.json,569514,776031,57,Woman
88,951864,DepthScenes,duration_manipulation_targetAtFixation,jsons/VE125_randls_48.json,http://54.235.29.9/FacialAge/BNav_EC2/DepthDuration/v2_depth_duration_MTurk/v2_DepthDuration_HTML.html#48,48,1184,1159,2560,1440,8-21-2022,6-39-51,89,depth_duration_stimuli/002763_2014-06-22_19-13-10_094959634447_rgbf000075-resize_4/002763_2014-06-22_19-13-10_094959634447_rgbf000075-resize_4-target.png,125,1.68375,0,2615,128,feet,jsons/VE125_randls_48.json,569514,776031,57,Woman
89,951864,DepthScenes,duration_manipulation_targetAtFixation,jsons/VE125_randls_48.json,http://54.235.29.9/FacialAge/BNav_EC2/DepthDuration/v2_depth_duration_MTurk/v2_DepthDuration_HTML.html#48,48,1184,1159,2560,1440,8-21-2022,6-39-51,90,depth_duration_stimuli/002209_2014-06-28_18-36-10_260595134347_rgbf000051-resize_1/002209_2014-06-28_18-36-10_260595134347_rgbf000051-resize_1-target.png,125,2.057,3,3196,125,feet,jsons/VE125_randls_48.json,569514,776031,57,Woman
90,951864,DepthScenes,duration_manipulation_targetAtFixation,jsons/VE125_randls_48.json,http://54.235.29.9/FacialAge/BNav_EC2/DepthDuration/v2_depth_duration_MTurk/v2_DepthDuration_HTML.html#48,48,1184,1159,2560,1440,8-21-2022,6-39-51,91,depth_duration_stimuli/001570_2014-06-20_17-21-09_260595134347_rgbf000135-resize_4/001570_2014-06-20_17-21-09_260595134347_rgbf000135-resize_4-target.png,125,4.467,8,3402,126,feet,jsons/VE125_randls_48.json,569514,776031,57,Woman
91,951864,DepthScenes,duration_manipulation_targetAtFixation,jsons/VE125_randls_48.json,http://54.235.29.9/FacialAge/BNav_EC2/DepthDuration/v2_depth_duration_MTurk/v2_DepthDuration_HTML.html#48,48,1184,1159,2560,1440,8-21-2022,6-39-51,92,depth_duration_stimuli/001392_2014-06-19_16-07-59_260595134347_rgbf000046-resize_1/001392_2014-06-19_16-07-59_260595134347_rgbf000046-resize_1-target.png,125,4.135,7,3132,127,feet,jsons/VE125_randls_48.json,569514,776031,57,Woman
92,951864,DepthScenes,duration_manipulation_targetAtFixation,jsons/VE125_randls_48.json,http://54.235.29.9/FacialAge/BNav_EC2/DepthDuration/v2_depth_duration_MTurk/v2_DepthDuration_HTML.html#48,48,1184,1159,2560,1440,8-21-2022,6-39-51,93,depth_duration_stimuli/001175_2014-06-17_15-45-55_260595134347_rgbf000129-resize_4/001175_2014-06-17_15-45-55_260595134347_rgbf000129-resize_4-target.png,125,4.255,9,3274,123,feet,jsons/VE125_randls_48.json,569514,776031,57,Woman
93,951864,DepthScenes,duration_manipulation_targetAtFixation,jsons/VE125_randls_48.json,http://54.235.29.9/FacialAge/BNav_EC2/DepthDuration/v2_depth_duration_MTurk/v2_DepthDuration_HTML.html#48,48,1184,1159,2560,1440,8-21-2022,6-39-51,94,depth_duration_stimuli/003490_2014-05-21_15-50-11_094959634447_rgbf000101-resize_3/003490_2014-05-21_15-50-11_094959634447_rgbf000101-resize_3-target.png,125,3.6445,8,3156,127,feet,jsons/VE125_randls_48.json,569514,776031,57,Woman
94,951864,DepthScenes,duration_manipulation_targetAtFixation,jsons/VE125_randls_48.json,http://54.235.29.9/FacialAge/BNav_EC2/DepthDuration/v2_depth_duration_MTurk/v2_DepthDuration_HTML.html#48,48,1184,1159,2560,1440,8-21-2022,6-39-51,95,depth_duration_stimuli/000692_2014-06-08_13-09-42_260595134347_rgbf000199-resize_2/000692_2014-06-08_13-09-42_260595134347_rgbf000199-resize_2-target.png,125,3.661,9,5922,125,feet,jsons/VE125_randls_48.json,569514,776031,57,Woman
95,951864,DepthScenes,duration_manipulation_targetAtFixation,jsons/VE125_randls_48.json,http://54.235.29.9/FacialAge/BNav_EC2/DepthDuration/v2_depth_duration_MTurk/v2_DepthDuration_HTML.html#48,48,1184,1159,2560,1440,8-21-2022,6-39-51,96,depth_duration_stimuli/001094_2014-06-15_17-36-00_260595134347_rgbf000205-resize_0/001094_2014-06-15_17-36-00_260595134347_rgbf000205-resize_0-target.png,125,4.2175,6,5426,124,feet,jsons/VE125_randls_48.json,569514,776031,57,Woman
96,951864,DepthScenes,duration_manipulation_targetAtFixation,jsons/VE125_randls_48.json,http://54.235.29.9/FacialAge/BNav_EC2/DepthDuration/v2_depth_duration_MTurk/v2_DepthDuration_HTML.html#48,48,1184,1159,2560,1440,8-21-2022,6-39-51,97,depth_duration_stimuli/000810_2014-06-08_17-20-01_260595134347_rgbf000105-resize_0/000810_2014-06-08_17-20-01_260595134347_rgbf000105-resize_0-target.png,125,1.4865,3,3235,127,feet,jsons/VE125_randls_48.json,569514,776031,57,Woman
97,951864,DepthScenes,duration_manipulation_targetAtFixation,jsons/VE125_randls_48.json,http://54.235.29.9/FacialAge/BNav_EC2/DepthDuration/v2_depth_duration_MTurk/v2_DepthDuration_HTML.html#48,48,1184,1159,2560,1440,8-21-2022,6-39-51,98,depth_duration_stimuli/001214_2014-06-17_16-13-55_260595134347_rgbf000111-resize_0/001214_2014-06-17_16-13-55_260595134347_rgbf000111-resize_0-target.png,125,2.6505,3,2761,124,feet,jsons/VE125_randls_48.json,569514,776031,57,Woman
98,951864,DepthScenes,duration_manipulation_targetAtFixation,jsons/VE125_randls_48.json,http://54.235.29.9/FacialAge/BNav_EC2/DepthDuration/v2_depth_duration_MTurk/v2_DepthDuration_HTML.html#48,48,1184,1159,2560,1440,8-21-2022,6-39-51,99,depth_duration_stimuli/001540_2014-06-20_17-01-05_260595134347_rgbf000086-resize_2/001540_2014-06-20_17-01-05_260595134347_rgbf000086-resize-original.jpg,125,1.459,0,2524,125,feet,jsons/VE125_randls_48.json,569514,776031,57,Woman
99,951864,DepthScenes,duration_manipulation_targetAtFixation,jsons/VE125_randls_48.json,http://54.235.29.9/FacialAge/BNav_EC2/DepthDuration/v2_depth_duration_MTurk/v2_DepthDuration_HTML.html#48,48,1184,1159,2560,1440,8-21-2022,6-39-51,100,depth_duration_stimuli/001016_2014-06-09_16-16-10_260595134347_rgbf000112-resize_5/001016_2014-06-09_16-16-10_260595134347_rgbf000112-resize_5-target.png,125,1.6565,3,2637,128,feet,jsons/VE125_randls_48.json,569514,776031,57,Woman
100,951864,DepthScenes,duration_manipulation_targetAtFixation,jsons/VE125_randls_48.json,http://54.235.29.9/FacialAge/BNav_EC2/DepthDuration/v2_depth_duration_MTurk/v2_DepthDuration_HTML.html#48,48,1184,1159,2560,1440,8-21-2022,6-39-51,101,depth_duration_stimuli/002340_2014-06-28_20-05-46_260595134347_rgbf000113-resize_0/002340_2014-06-28_20-05-46_260595134347_rgbf000113-resize_0-target.png,125,2.4735,3,4832,128,feet,jsons/VE125_randls_48.json,569514,776031,57,Woman
101,951864,DepthScenes,duration_manipulation_targetAtFixation,jsons/VE125_randls_48.json,http://54.235.29.9/FacialAge/BNav_EC2/DepthDuration/v2_depth_duration_MTurk/v2_DepthDuration_HTML.html#48,48,1184,1159,2560,1440,8-21-2022,6-39-51,102,depth_duration_stimuli/000739_2014-06-08_18-45-58_260595134347_rgbf000068-resize_1/000739_2014-06-08_18-45-58_260595134347_rgbf000068-resize_1-target.png,125,3.534,5,2514,128,feet,jsons/VE125_randls_48.json,569514,776031,57,Woman
102,951864,DepthScenes,duration_manipulation_targetAtFixation,jsons/VE125_randls_48.json,http://54.235.29.9/FacialAge/BNav_EC2/DepthDuration/v2_depth_duration_MTurk/v2_DepthDuration_HTML.html#48,48,1184,1159,2560,1440,8-21-2022,6-39-51,103,depth_duration_stimuli/000734_2014-06-08_17-39-11_260595134347_rgbf000128-resize_2/000734_2014-06-08_17-39-11_260595134347_rgbf000128-resize_2-target.png,125,4.098,5,3086,122,feet,jsons/VE125_randls_48.json,569514,776031,57,Woman
103,951864,DepthScenes,duration_manipulation_targetAtFixation,jsons/VE125_randls_48.json,http://54.235.29.9/FacialAge/BNav_EC2/DepthDuration/v2_depth_duration_MTurk/v2_DepthDuration_HTML.html#48,48,1184,1159,2560,1440,8-21-2022,6-39-51,104,depth_duration_stimuli/000009_2014-05-26_14-32-05_260595134347_rgbf000034-resize_3/000009_2014-05-26_14-32-05_260595134347_rgbf000034-resize_3-target.png,125,3.8715,8,2723,125,feet,jsons/VE125_randls_48.json,569514,776031,57,Woman
104,951864,DepthScenes,duration_manipulation_targetAtFixation,jsons/VE125_randls_48.json,http://54.235.29.9/FacialAge/BNav_EC2/DepthDuration/v2_depth_duration_MTurk/v2_DepthDuration_HTML.html#48,48,1184,1159,2560,1440,8-21-2022,6-39-51,105,depth_duration_stimuli/001828_2014-06-26_21-40-03_260595134347_rgbf000024-resize_0/001828_2014-06-26_21-40-03_260595134347_rgbf000024-resize_0-target.png,125,4.8260000000000005,5,2896,126,feet,jsons/VE125_randls_48.json,569514,776031,57,Woman
105,951864,DepthScenes,duration_manipulation_targetAtFixation,jsons/VE125_randls_48.json,http://54.235.29.9/FacialAge/BNav_EC2/DepthDuration/v2_depth_duration_MTurk/v2_DepthDuration_HTML.html#48,48,1184,1159,2560,1440,8-21-2022,6-39-51,106,depth_duration_stimuli/000506_2014-06-08_23-21-00_260595134347_rgbf000070-resize_7/000506_2014-06-08_23-21-00_260595134347_rgbf000070-resize_7-target.png,125,4.0585,4,2649,126,feet,jsons/VE125_randls_48.json,569514,776031,57,Woman
106,951864,DepthScenes,duration_manipulation_targetAtFixation,jsons/VE125_randls_48.json,http://54.235.29.9/FacialAge/BNav_EC2/DepthDuration/v2_depth_duration_MTurk/v2_DepthDuration_HTML.html#48,48,1184,1159,2560,1440,8-21-2022,6-39-51,107,depth_duration_stimuli/003079_2014-06-15_15-18-20_094959634447_rgbf000152-resize_8/003079_2014-06-15_15-18-20_094959634447_rgbf000152-resize_8-target.png,125,2.8775,4,3984,122,feet,jsons/VE125_randls_48.json,569514,776031,57,Woman
107,951864,DepthScenes,duration_manipulation_targetAtFixation,jsons/VE125_randls_48.json,http://54.235.29.9/FacialAge/BNav_EC2/DepthDuration/v2_depth_duration_MTurk/v2_DepthDuration_HTML.html#48,48,1184,1159,2560,1440,8-21-2022,6-39-51,108,depth_duration_stimuli/000878_2014-06-08_22-52-45_260595134347_rgbf000045-resize_2/000878_2014-06-08_22-52-45_260595134347_rgbf000045-resize_2-target.png,125,2.092,3,2817,127,feet,jsons/VE125_randls_48.json,569514,776031,57,Woman
108,951864,DepthScenes,duration_manipulation_targetAtFixation,jsons/VE125_randls_48.json,http://54.235.29.9/FacialAge/BNav_EC2/DepthDuration/v2_depth_duration_MTurk/v2_DepthDuration_HTML.html#48,48,1184,1159,2560,1440,8-21-2022,6-39-51,109,depth_duration_stimuli/002953_2014-06-08_17-32-18_094959634447_rgbf000059-resize_5/002953_2014-06-08_17-32-18_094959634447_rgbf000059-resize_5-target.png,125,1.551,2,2668,123,feet,jsons/VE125_randls_48.json,569514,776031,57,Woman
109,951864,DepthScenes,duration_manipulation_targetAtFixation,jsons/VE125_randls_48.json,http://54.235.29.9/FacialAge/BNav_EC2/DepthDuration/v2_depth_duration_MTurk/v2_DepthDuration_HTML.html#48,48,1184,1159,2560,1440,8-21-2022,6-39-51,110,depth_duration_stimuli/000470_2014-06-09_19-42-40_260595134347_rgbf000094-resize_1/000470_2014-06-09_19-42-40_260595134347_rgbf000094-resize_1-target.png,125,1.831,2,2909,127,feet,jsons/VE125_randls_48.json,569514,776031,57,Woman
110,951864,DepthScenes,duration_manipulation_targetAtFixation,jsons/VE125_randls_48.json,http://54.235.29.9/FacialAge/BNav_EC2/DepthDuration/v2_depth_duration_MTurk/v2_DepthDuration_HTML.html#48,48,1184,1159,2560,1440,8-21-2022,6-39-51,111,depth_duration_stimuli/000109_2014-05-14_23-41-52_260595134347_rgbf000035-resize_9/000109_2014-05-14_23-41-52_260595134347_rgbf000035-resize_9-target.png,125,1.3545,2,2749,125,feet,jsons/VE125_randls_48.json,569514,776031,57,Woman
111,951864,DepthScenes,duration_manipulation_targetAtFixation,jsons/VE125_randls_48.json,http://54.235.29.9/FacialAge/BNav_EC2/DepthDuration/v2_depth_duration_MTurk/v2_DepthDuration_HTML.html#48,48,1184,1159,2560,1440,8-21-2022,6-39-51,112,depth_duration_stimuli/000642_2014-06-08_16-59-25_260595134347_rgbf000098-resize_2/000642_2014-06-08_16-59-25_260595134347_rgbf000098-resize_2-target.png,125,2.8815,3,2409,123,feet,jsons/VE125_randls_48.json,569514,776031,57,Woman
112,951864,DepthScenes,duration_manipulation_targetAtFixation,jsons/VE125_randls_48.json,http://54.235.29.9/FacialAge/BNav_EC2/DepthDuration/v2_depth_duration_MTurk/v2_DepthDuration_HTML.html#48,48,1315,1287,2560,1440,8-21-2022,6-39-51,113,depth_duration_stimuli/002425_2014-06-28_20-27-29_260595134347_rgbf000031-resize_8/002425_2014-06-28_20-27-29_260595134347_rgbf000031-resize_8-target.png,125,3.8960000000000004,5,7316,126,feet,jsons/VE125_randls_48.json,569514,776031,57,Woman
113,951864,DepthScenes,duration_manipulation_targetAtFixation,jsons/VE125_randls_48.json,http://54.235.29.9/FacialAge/BNav_EC2/DepthDuration/v2_depth_duration_MTurk/v2_DepthDuration_HTML.html#48,48,1315,1287,2560,1440,8-21-2022,6-39-51,114,depth_duration_stimuli/002964_2014-06-08_17-46-11_094959634447_rgbf000091-resize_4/002964_2014-06-08_17-46-11_094959634447_rgbf000091-resize_4-target.png,125,1.6909999999999998,2,2569,123,feet,jsons/VE125_randls_48.json,569514,776031,57,Woman
114,951864,DepthScenes,duration_manipulation_targetAtFixation,jsons/VE125_randls_48.json,http://54.235.29.9/FacialAge/BNav_EC2/DepthDuration/v2_depth_duration_MTurk/v2_DepthDuration_HTML.html#48,48,1315,1287,2560,1440,8-21-2022,6-39-51,115,depth_duration_stimuli/002136_2014-06-25_21-18-03_260595134347_rgbf000109-resize_3/002136_2014-06-25_21-18-03_260595134347_rgbf000109-resize_3-target.png,125,1.9569999999999999,2,3267,124,feet,jsons/VE125_randls_48.json,569514,776031,57,Woman
115,951864,DepthScenes,duration_manipulation_targetAtFixation,jsons/VE125_randls_48.json,http://54.235.29.9/FacialAge/BNav_EC2/DepthDuration/v2_depth_duration_MTurk/v2_DepthDuration_HTML.html#48,48,1315,1287,2560,1440,8-21-2022,6-39-51,116,depth_duration_stimuli/001170_2014-06-17_15-43-44_260595134347_rgbf000096-resize_6/001170_2014-06-17_15-43-44_260595134347_rgbf000096-resize-original.jpg,125,1.1909999999999998,0,2401,125,feet,jsons/VE125_randls_48.json,569514,776031,57,Woman
116,951864,DepthScenes,duration_manipulation_targetAtFixation,jsons/VE125_randls_48.json,http://54.235.29.9/FacialAge/BNav_EC2/DepthDuration/v2_depth_duration_MTurk/v2_DepthDuration_HTML.html#48,48,1315,1287,2560,1440,8-21-2022,6-39-51,117,depth_duration_stimuli/002043_2014-06-24_20-29-38_260595134347_rgbf000039-resize_4/002043_2014-06-24_20-29-38_260595134347_rgbf000039-resize_4-target.png,125,2.8435,5,2422,127,feet,jsons/VE125_randls_48.json,569514,776031,57,Woman
117,951864,DepthScenes,duration_manipulation_targetAtFixation,jsons/VE125_randls_48.json,http://54.235.29.9/FacialAge/BNav_EC2/DepthDuration/v2_depth_duration_MTurk/v2_DepthDuration_HTML.html#48,48,1315,1287,2560,1440,8-21-2022,6-39-51,118,depth_duration_stimuli/003048_2014-06-15_13-49-43_094959634447_rgbf000150-resize_1/003048_2014-06-15_13-49-43_094959634447_rgbf000150-resize_1-target.png,125,4.0035,7,2803,125,feet,jsons/VE125_randls_48.json,569514,776031,57,Woman
118,951864,DepthScenes,duration_manipulation_targetAtFixation,jsons/VE125_randls_48.json,http://54.235.29.9/FacialAge/BNav_EC2/DepthDuration/v2_depth_duration_MTurk/v2_DepthDuration_HTML.html#48,48,1315,1287,2560,1440,8-21-2022,6-39-51,119,depth_duration_stimuli/002039_2014-06-24_20-22-38_260595134347_rgbf000084-resize_1/002039_2014-06-24_20-22-38_260595134347_rgbf000084-resize_1-target.png,125,4.408,6,3301,127,feet,jsons/VE125_randls_48.json,569514,776031,57,Woman
119,951864,DepthScenes,duration_manipulation_targetAtFixation,jsons/VE125_randls_48.json,http://54.235.29.9/FacialAge/BNav_EC2/DepthDuration/v2_depth_duration_MTurk/v2_DepthDuration_HTML.html#48,48,1315,1287,2560,1440,8-21-2022,6-39-51,120,depth_duration_stimuli/002103_2014-06-25_20-00-40_260595134347_rgbf000049-resize_0/002103_2014-06-25_20-00-40_260595134347_rgbf000049-resize_0-target.png,125,4.105,2,2580,125,feet,jsons/VE125_randls_48.json,569514,776031,57,Woman
120,951864,DepthScenes,duration_manipulation_targetAtFixation,jsons/VE125_randls_48.json,http://54.235.29.9/FacialAge/BNav_EC2/DepthDuration/v2_depth_duration_MTurk/v2_DepthDuration_HTML.html#48,48,1315,1287,2560,1440,8-21-2022,6-39-51,121,depth_duration_stimuli/003534_2014-05-22_15-06-10_094959634447_rgbf000102-resize_4/003534_2014-05-22_15-06-10_094959634447_rgbf000102-resize_4-target.png,125,1.426,2,2682,127,feet,jsons/VE125_randls_48.json,569514,776031,57,Woman
121,951864,DepthScenes,duration_manipulation_targetAtFixation,jsons/VE125_randls_48.json,http://54.235.29.9/FacialAge/BNav_EC2/DepthDuration/v2_depth_duration_MTurk/v2_DepthDuration_HTML.html#48,48,1315,1287,2560,1440,8-21-2022,6-39-51,122,depth_duration_stimuli/002637_2014-06-24_14-51-13_094959634447_rgbf000066-resize_4/002637_2014-06-24_14-51-13_094959634447_rgbf000066-resize_4-target.png,125,1.9955,4,2533,124,feet,jsons/VE125_randls_48.json,569514,776031,57,Woman
122,951864,DepthScenes,duration_manipulation_targetAtFixation,jsons/VE125_randls_48.json,http://54.235.29.9/FacialAge/BNav_EC2/DepthDuration/v2_depth_duration_MTurk/v2_DepthDuration_HTML.html#48,48,1315,1287,2560,1440,8-21-2022,6-39-51,123,depth_duration_stimuli/001199_2014-06-17_16-03-48_260595134347_rgbf000077-resize_0/001199_2014-06-17_16-03-48_260595134347_rgbf000077-resize_0-target.png,125,3.4375,4,2638,126,feet,jsons/VE125_randls_48.json,569514,776031,57,Woman
123,951864,DepthScenes,duration_manipulation_targetAtFixation,jsons/VE125_randls_48.json,http://54.235.29.9/FacialAge/BNav_EC2/DepthDuration/v2_depth_duration_MTurk/v2_DepthDuration_HTML.html#48,48,1315,1287,2560,1440,8-21-2022,6-39-51,124,depth_duration_stimuli/000502_2014-06-08_23-02-32_260595134347_rgbf000063-resize_4/000502_2014-06-08_23-02-32_260595134347_rgbf000063-resize_4-target.png,125,2.431,4,2747,123,feet,jsons/VE125_randls_48.json,569514,776031,57,Woman
124,951864,DepthScenes,duration_manipulation_targetAtFixation,jsons/VE125_randls_48.json,http://54.235.29.9/FacialAge/BNav_EC2/DepthDuration/v2_depth_duration_MTurk/v2_DepthDuration_HTML.html#48,48,1315,1287,2560,1440,8-21-2022,6-39-51,125,depth_duration_stimuli/000469_2014-06-09_19-42-10_260595134347_rgbf000081-resize_1/000469_2014-06-09_19-42-10_260595134347_rgbf000081-resize_1-target.png,125,1.652,3,3985,125,feet,jsons/VE125_randls_48.json,569514,776031,57,Woman
125,951864,DepthScenes,duration_manipulation_targetAtFixation,jsons/VE125_randls_48.json,http://54.235.29.9/FacialAge/BNav_EC2/DepthDuration/v2_depth_duration_MTurk/v2_DepthDuration_HTML.html#48,48,1315,1287,2560,1440,8-21-2022,6-39-51,126,depth_duration_stimuli/000483_2014-06-09_20-41-45_260595134347_rgbf000116-resize_4/000483_2014-06-09_20-41-45_260595134347_rgbf000116-resize_4-target.png,125,1.337,0,3805,121,feet,jsons/VE125_randls_48.json,569514,776031,57,Woman
126,951864,DepthScenes,duration_manipulation_targetAtFixation,jsons/VE125_randls_48.json,http://54.235.29.9/FacialAge/BNav_EC2/DepthDuration/v2_depth_duration_MTurk/v2_DepthDuration_HTML.html#48,48,1315,1287,2560,1440,8-21-2022,6-39-51,127,depth_duration_stimuli/000758_2014-06-08_22-05-08_260595134347_rgbf000085-resize_0/000758_2014-06-08_22-05-08_260595134347_rgbf000085-resize_0-target.png,125,3.3810000000000002,4,3478,124,feet,jsons/VE125_randls_48.json,569514,776031,57,Woman
127,951864,DepthScenes,duration_manipulation_targetAtFixation,jsons/VE125_randls_48.json,http://54.235.29.9/FacialAge/BNav_EC2/DepthDuration/v2_depth_duration_MTurk/v2_DepthDuration_HTML.html#48,48,1315,1287,2560,1440,8-21-2022,6-39-51,128,depth_duration_stimuli/000854_2014-06-09_19-43-13_260595134347_rgbf000066-resize_0/000854_2014-06-09_19-43-13_260595134347_rgbf000066-resize_0-target.png,125,3.068,3,2532,123,feet,jsons/VE125_randls_48.json,569514,776031,57,Woman
128,951864,DepthScenes,duration_manipulation_targetAtFixation,jsons/VE125_randls_48.json,http://54.235.29.9/FacialAge/BNav_EC2/DepthDuration/v2_depth_duration_MTurk/v2_DepthDuration_HTML.html#48,48,1315,1287,2560,1440,8-21-2022,6-39-51,129,depth_duration_stimuli/002118_2014-06-25_20-32-08_260595134347_rgbf000078-resize_1/002118_2014-06-25_20-32-08_260595134347_rgbf000078-resize_1-target.png,125,2.6460000000000004,5,2363,124,feet,jsons/VE125_randls_48.json,569514,776031,57,Woman
129,951864,DepthScenes,duration_manipulation_targetAtFixation,jsons/VE125_randls_48.json,http://54.235.29.9/FacialAge/BNav_EC2/DepthDuration/v2_depth_duration_MTurk/v2_DepthDuration_HTML.html#48,48,1315,1287,2560,1440,8-21-2022,6-39-51,130,depth_duration_stimuli/001516_2014-06-20_16-25-09_260595134347_rgbf000076-resize_2/001516_2014-06-20_16-25-09_260595134347_rgbf000076-resize_2-target.png,125,1.7445,0,3021,127,feet,jsons/VE125_randls_48.json,569514,776031,57,Woman
130,951864,DepthScenes,duration_manipulation_targetAtFixation,jsons/VE125_randls_48.json,http://54.235.29.9/FacialAge/BNav_EC2/DepthDuration/v2_depth_duration_MTurk/v2_DepthDuration_HTML.html#48,48,1315,1287,2560,1440,8-21-2022,6-39-51,131,depth_duration_stimuli/001810_2014-06-26_20-51-35_260595134347_rgbf000040-resize_3/001810_2014-06-26_20-51-35_260595134347_rgbf000040-resize_3-target.png,125,2.2525,3,2769,124,feet,jsons/VE125_randls_48.json,569514,776031,57,Woman
131,951864,DepthScenes,duration_manipulation_targetAtFixation,jsons/VE125_randls_48.json,http://54.235.29.9/FacialAge/BNav_EC2/DepthDuration/v2_depth_duration_MTurk/v2_DepthDuration_HTML.html#48,48,1315,1287,2560,1440,8-21-2022,6-39-51,132,depth_duration_stimuli/003010_2014-06-15_12-54-35_094959634447_rgbf000112-resize_0/003010_2014-06-15_12-54-35_094959634447_rgbf000112-resize_0-target.png,125,3.1185,6,3031,125,feet,jsons/VE125_randls_48.json,569514,776031,57,Woman
132,951864,DepthScenes,duration_manipulation_targetAtFixation,jsons/VE125_randls_48.json,http://54.235.29.9/FacialAge/BNav_EC2/DepthDuration/v2_depth_duration_MTurk/v2_DepthDuration_HTML.html#48,48,1315,1287,2560,1440,8-21-2022,6-39-51,133,depth_duration_stimuli/002375_2014-06-28_20-13-44_260595134347_rgbf000032-resize_1/002375_2014-06-28_20-13-44_260595134347_rgbf000032-resize_1-target.png,125,4.0175,5,3276,123,feet,jsons/VE125_randls_48.json,569514,776031,57,Woman
133,951864,DepthScenes,duration_manipulation_targetAtFixation,jsons/VE125_randls_48.json,http://54.235.29.9/FacialAge/BNav_EC2/DepthDuration/v2_depth_duration_MTurk/v2_DepthDuration_HTML.html#48,48,1315,1287,2560,1440,8-21-2022,6-39-51,134,depth_duration_stimuli/002657_2014-06-13_15-29-54_094959634447_rgbf000150-resize_1/002657_2014-06-13_15-29-54_094959634447_rgbf000150-resize_1-target.png,125,4.919,7,2499,123,feet,jsons/VE125_randls_48.json,569514,776031,57,Woman
134,951864,DepthScenes,duration_manipulation_targetAtFixation,jsons/VE125_randls_48.json,http://54.235.29.9/FacialAge/BNav_EC2/DepthDuration/v2_depth_duration_MTurk/v2_DepthDuration_HTML.html#48,48,1315,1287,2560,1440,8-21-2022,6-39-51,135,depth_duration_stimuli/002072_2014-06-24_21-48-06_260595134347_rgbf000115-resize_0/002072_2014-06-24_21-48-06_260595134347_rgbf000115-resize-original.jpg,125,4.702,0,2649,127,feet,jsons/VE125_randls_48.json,569514,776031,57,Woman
135,951864,DepthScenes,duration_manipulation_targetAtFixation,jsons/VE125_randls_48.json,http://54.235.29.9/FacialAge/BNav_EC2/DepthDuration/v2_depth_duration_MTurk/v2_DepthDuration_HTML.html#48,48,1315,1287,2560,1440,8-21-2022,6-39-51,136,depth_duration_stimuli/001244_2014-06-17_16-47-45_260595134347_rgbf000030-resize_4/001244_2014-06-17_16-47-45_260595134347_rgbf000030-resize_4-target.png,125,2.0425,3,2985,126,feet,jsons/VE125_randls_48.json,569514,776031,57,Woman
136,951864,DepthScenes,duration_manipulation_targetAtFixation,jsons/VE125_randls_48.json,http://54.235.29.9/FacialAge/BNav_EC2/DepthDuration/v2_depth_duration_MTurk/v2_DepthDuration_HTML.html#48,48,1315,1287,2560,1440,8-21-2022,6-39-51,137,depth_duration_stimuli/003495_2014-05-21_16-01-51_094959634447_rgbf000100-resize_3/003495_2014-05-21_16-01-51_094959634447_rgbf000100-resize_3-target.png,125,1.6255,2,2747,121,feet,jsons/VE125_randls_48.json,569514,776031,57,Woman
137,951864,DepthScenes,duration_manipulation_targetAtFixation,jsons/VE125_randls_48.json,http://54.235.29.9/FacialAge/BNav_EC2/DepthDuration/v2_depth_duration_MTurk/v2_DepthDuration_HTML.html#48,48,1315,1287,2560,1440,8-21-2022,6-39-51,138,depth_duration_stimuli/001806_2014-06-26_20-50-20_260595134347_rgbf000091-resize_1/001806_2014-06-26_20-50-20_260595134347_rgbf000091-resize_1-target.png,125,2.7305,2,2670,125,feet,jsons/VE125_randls_48.json,569514,776031,57,Woman
138,951864,DepthScenes,duration_manipulation_targetAtFixation,jsons/VE125_randls_48.json,http://54.235.29.9/FacialAge/BNav_EC2/DepthDuration/v2_depth_duration_MTurk/v2_DepthDuration_HTML.html#48,48,1315,1287,2560,1440,8-21-2022,6-39-51,139,depth_duration_stimuli/001617_2014-06-20_11-35-32_260595134347_rgbf000066-resize_1/001617_2014-06-20_11-35-32_260595134347_rgbf000066-resize_1-target.png,125,3.7910000000000004,5,2987,127,feet,jsons/VE125_randls_48.json,569514,776031,57,Woman
139,951864,DepthScenes,duration_manipulation_targetAtFixation,jsons/VE125_randls_48.json,http://54.235.29.9/FacialAge/BNav_EC2/DepthDuration/v2_depth_duration_MTurk/v2_DepthDuration_HTML.html#48,48,1315,1287,2560,1440,8-21-2022,6-39-51,140,depth_duration_stimuli/001150_2014-06-17_15-27-34_260595134347_rgbf000108-resize_2/001150_2014-06-17_15-27-34_260595134347_rgbf000108-resize_2-target.png,125,4.0325,4,2648,128,feet,jsons/VE125_randls_48.json,569514,776031,57,Woman
140,951864,DepthScenes,duration_manipulation_targetAtFixation,jsons/VE125_randls_48.json,http://54.235.29.9/FacialAge/BNav_EC2/DepthDuration/v2_depth_duration_MTurk/v2_DepthDuration_HTML.html#48,48,1315,1287,2560,1440,8-21-2022,6-39-51,141,depth_duration_stimuli/000665_2014-06-09_20-42-35_260595134347_rgbf000110-resize_1/000665_2014-06-09_20-42-35_260595134347_rgbf000110-resize_1-target.png,125,3.057,3,2735,122,feet,jsons/VE125_randls_48.json,569514,776031,57,Woman
141,951864,DepthScenes,duration_manipulation_targetAtFixation,jsons/VE125_randls_48.json,http://54.235.29.9/FacialAge/BNav_EC2/DepthDuration/v2_depth_duration_MTurk/v2_DepthDuration_HTML.html#48,48,1315,1287,2560,1440,8-21-2022,6-39-51,142,depth_duration_stimuli/000522_2014-06-08_13-35-06_260595134347_rgbf000244-resize_1/000522_2014-06-08_13-35-06_260595134347_rgbf000244-resize_1-target.png,125,2.3715,2,2716,125,feet,jsons/VE125_randls_48.json,569514,776031,57,Woman
142,951864,DepthScenes,duration_manipulation_targetAtFixation,jsons/VE125_randls_48.json,http://54.235.29.9/FacialAge/BNav_EC2/DepthDuration/v2_depth_duration_MTurk/v2_DepthDuration_HTML.html#48,48,1315,1287,2560,1440,8-21-2022,6-39-51,143,depth_duration_stimuli/002949_2014-06-26_15-57-42_094959634447_rgbf000079-resize_1/002949_2014-06-26_15-57-42_094959634447_rgbf000079-resize_1-target.png,125,1.8915,3,2537,128,feet,jsons/VE125_randls_48.json,569514,776031,57,Woman
143,951864,DepthScenes,duration_manipulation_targetAtFixation,jsons/VE125_randls_48.json,http://54.235.29.9/FacialAge/BNav_EC2/DepthDuration/v2_depth_duration_MTurk/v2_DepthDuration_HTML.html#48,48,1315,1287,2560,1440,8-21-2022,6-39-51,144,depth_duration_stimuli/000906_2014-06-08_13-35-43_260595134347_rgbf000155-resize_1/000906_2014-06-08_13-35-43_260595134347_rgbf000155-resize_1-target.png,125,2.8489999999999998,6,2691,123,feet,jsons/VE125_randls_48.json,569514,776031,57,Woman
144,951864,DepthScenes,duration_manipulation_targetAtFixation,jsons/VE125_randls_48.json,http://54.235.29.9/FacialAge/BNav_EC2/DepthDuration/v2_depth_duration_MTurk/v2_DepthDuration_HTML.html#48,48,1315,1287,2560,1440,8-21-2022,6-39-51,145,depth_duration_stimuli/002805_2014-06-22_19-54-03_094959634447_rgbf000079-resize_1/002805_2014-06-22_19-54-03_094959634447_rgbf000079-resize_1-target.png,125,3.1439999999999997,5,2724,124,feet,jsons/VE125_randls_48.json,569514,776031,57,Woman
145,951864,DepthScenes,duration_manipulation_targetAtFixation,jsons/VE125_randls_48.json,http://54.235.29.9/FacialAge/BNav_EC2/DepthDuration/v2_depth_duration_MTurk/v2_DepthDuration_HTML.html#48,48,1315,1287,2560,1440,8-21-2022,6-39-51,146,depth_duration_stimuli/001498_2014-06-19_17-45-14_260595134347_rgbf000129-resize_4/001498_2014-06-19_17-45-14_260595134347_rgbf000129-resize-original.jpg,125,1.4075,0,3098,127,feet,jsons/VE125_randls_48.json,569514,776031,57,Woman
146,951864,DepthScenes,duration_manipulation_targetAtFixation,jsons/VE125_randls_48.json,http://54.235.29.9/FacialAge/BNav_EC2/DepthDuration/v2_depth_duration_MTurk/v2_DepthDuration_HTML.html#48,48,1315,1287,2560,1440,8-21-2022,6-39-51,147,depth_duration_stimuli/001449_2014-06-19_17-01-27_260595134347_rgbf000116-resize_2/001449_2014-06-19_17-01-27_260595134347_rgbf000116-resize_2-target.png,125,3.452,5,2487,125,feet,jsons/VE125_randls_48.json,569514,776031,57,Woman
147,951864,DepthScenes,duration_manipulation_targetAtFixation,jsons/VE125_randls_48.json,http://54.235.29.9/FacialAge/BNav_EC2/DepthDuration/v2_depth_duration_MTurk/v2_DepthDuration_HTML.html#48,48,1315,1287,2560,1440,8-21-2022,6-39-51,148,depth_duration_stimuli/001450_2014-06-19_17-02-03_260595134347_rgbf000203-resize_4/001450_2014-06-19_17-02-03_260595134347_rgbf000203-resize_4-target.png,125,4.0106666666667,5,2436,128,feet,jsons/VE125_randls_48.json,569514,776031,57,Woman
148,951864,DepthScenes,duration_manipulation_targetAtFixation,jsons/VE125_randls_48.json,http://54.235.29.9/FacialAge/BNav_EC2/DepthDuration/v2_depth_duration_MTurk/v2_DepthDuration_HTML.html#48,48,1315,1287,2560,1440,8-21-2022,6-39-51,149,depth_duration_stimuli/002988_2014-06-15_12-24-20_094959634447_rgbf000150-resize_1/002988_2014-06-15_12-24-20_094959634447_rgbf000150-resize_1-target.png,125,4.7669999999999995,7,2920,128,feet,jsons/VE125_randls_48.json,569514,776031,57,Woman
149,951864,DepthScenes,duration_manipulation_targetAtFixation,jsons/VE125_randls_48.json,http://54.235.29.9/FacialAge/BNav_EC2/DepthDuration/v2_depth_duration_MTurk/v2_DepthDuration_HTML.html#48,48,1315,1287,2560,1440,8-21-2022,6-39-51,150,depth_duration_stimuli/001052_2014-06-08_18-24-54_260595134347_rgbf000130-resize_1/001052_2014-06-08_18-24-54_260595134347_rgbf000130-resize_1-target.png,125,4.1045,7,4175,124,feet,jsons/VE125_randls_48.json,569514,776031,57,Woman
150,951864,DepthScenes,duration_manipulation_targetAtFixation,jsons/VE125_randls_48.json,http://54.235.29.9/FacialAge/BNav_EC2/DepthDuration/v2_depth_duration_MTurk/v2_DepthDuration_HTML.html#48,48,1315,1287,2560,1440,8-21-2022,6-39-51,151,depth_duration_stimuli/002905_2014-06-03_18-04-43_094959634447_rgbf000151-resize_2/002905_2014-06-03_18-04-43_094959634447_rgbf000151-resize_2-target.png,125,2.0295,3,2783,124,feet,jsons/VE125_randls_48.json,569514,776031,57,Woman
151,951864,DepthScenes,duration_manipulation_targetAtFixation,jsons/VE125_randls_48.json,http://54.235.29.9/FacialAge/BNav_EC2/DepthDuration/v2_depth_duration_MTurk/v2_DepthDuration_HTML.html#48,48,1315,1287,2560,1440,8-21-2022,6-39-51,152,depth_duration_stimuli/003423_2014-05-21_10-23-26_094959634447_rgbf002665-resize_2/003423_2014-05-21_10-23-26_094959634447_rgbf002665-resize_2-target.png,125,3.2575,8,3151,125,feet,jsons/VE125_randls_48.json,569514,776031,57,Woman
152,951864,DepthScenes,duration_manipulation_targetAtFixation,jsons/VE125_randls_48.json,http://54.235.29.9/FacialAge/BNav_EC2/DepthDuration/v2_depth_duration_MTurk/v2_DepthDuration_HTML.html#48,48,1315,1287,2560,1440,8-21-2022,6-39-51,153,depth_duration_stimuli/002213_2014-06-28_18-37-58_260595134347_rgbf000055-resize_1/002213_2014-06-28_18-37-58_260595134347_rgbf000055-resize_1-target.png,125,3.62,8,2420,123,feet,jsons/VE125_randls_48.json,569514,776031,57,Woman
153,951864,DepthScenes,duration_manipulation_targetAtFixation,jsons/VE125_randls_48.json,http://54.235.29.9/FacialAge/BNav_EC2/DepthDuration/v2_depth_duration_MTurk/v2_DepthDuration_HTML.html#48,48,1315,1287,2560,1440,8-21-2022,6-39-51,154,depth_duration_stimuli/000691_2014-06-08_13-08-50_260595134347_rgbf000132-resize_3/000691_2014-06-08_13-08-50_260595134347_rgbf000132-resize_3-target.png,125,4.1530000000000005,7,2424,127,feet,jsons/VE125_randls_48.json,569514,776031,57,Woman
154,951864,DepthScenes,duration_manipulation_targetAtFixation,jsons/VE125_randls_48.json,http://54.235.29.9/FacialAge/BNav_EC2/DepthDuration/v2_depth_duration_MTurk/v2_DepthDuration_HTML.html#48,48,1315,1287,2560,1440,8-21-2022,6-39-51,155,depth_duration_stimuli/000447_2014-06-08_16-15-46_260595134347_rgbf000130-resize_1/000447_2014-06-08_16-15-46_260595134347_rgbf000130-resize_1-target.png,125,4.479,7,3108,123,feet,jsons/VE125_randls_48.json,569514,776031,57,Woman
155,951864,DepthScenes,duration_manipulation_targetAtFixation,jsons/VE125_randls_48.json,http://54.235.29.9/FacialAge/BNav_EC2/DepthDuration/v2_depth_duration_MTurk/v2_DepthDuration_HTML.html#48,48,1315,1287,2560,1440,8-21-2022,6-39-51,156,depth_duration_stimuli/001447_2014-06-19_17-00-32_260595134347_rgbf000082-resize_5/001447_2014-06-19_17-00-32_260595134347_rgbf000082-resize_5-target.png,125,4.13775,5,2533,122,feet,jsons/VE125_randls_48.json,569514,776031,57,Woman
156,951864,DepthScenes,duration_manipulation_targetAtFixation,jsons/VE125_randls_48.json,http://54.235.29.9/FacialAge/BNav_EC2/DepthDuration/v2_depth_duration_MTurk/v2_DepthDuration_HTML.html#48,48,1315,1287,2560,1440,8-21-2022,6-39-51,157,depth_duration_stimuli/002600_2014-06-24_14-27-04_094959634447_rgbf000074-resize_2/002600_2014-06-24_14-27-04_094959634447_rgbf000074-resize_2-target.png,125,2.7575,4,2369,127,feet,jsons/VE125_randls_48.json,569514,776031,57,Woman
157,951864,DepthScenes,duration_manipulation_targetAtFixation,jsons/VE125_randls_48.json,http://54.235.29.9/FacialAge/BNav_EC2/DepthDuration/v2_depth_duration_MTurk/v2_DepthDuration_HTML.html#48,48,1315,1287,2560,1440,8-21-2022,6-39-51,158,depth_duration_stimuli/003228_2014-05-14_13-42-35_094959634447_rgbf000101-resize_1/003228_2014-05-14_13-42-35_094959634447_rgbf000101-resize_1-target.png,125,1.9680000000000002,4,2255,127,feet,jsons/VE125_randls_48.json,569514,776031,57,Woman
158,951864,DepthScenes,duration_manipulation_targetAtFixation,jsons/VE125_randls_48.json,http://54.235.29.9/FacialAge/BNav_EC2/DepthDuration/v2_depth_duration_MTurk/v2_DepthDuration_HTML.html#48,48,1315,1287,2560,1440,8-21-2022,6-39-51,159,depth_duration_stimuli/002630_2014-06-24_14-47-50_094959634447_rgbf000055-resize_1/002630_2014-06-24_14-47-50_094959634447_rgbf000055-resize_1-target.png,125,3.0095,7,3482,128,feet,jsons/VE125_randls_48.json,569514,776031,57,Woman
159,951864,DepthScenes,duration_manipulation_targetAtFixation,jsons/VE125_randls_48.json,http://54.235.29.9/FacialAge/BNav_EC2/DepthDuration/v2_depth_duration_MTurk/v2_DepthDuration_HTML.html#48,48,1315,1287,2560,1440,8-21-2022,6-39-51,160,depth_duration_stimuli/002758_2014-06-22_19-11-20_094959634447_rgbf000128-resize_1/002758_2014-06-22_19-11-20_094959634447_rgbf000128-resize_1-target.png,125,2.555,4,2262,121,feet,jsons/VE125_randls_48.json,569514,776031,57,Woman
160,951864,DepthScenes,duration_manipulation_targetAtFixation,jsons/VE125_randls_48.json,http://54.235.29.9/FacialAge/BNav_EC2/DepthDuration/v2_depth_duration_MTurk/v2_DepthDuration_HTML.html#48,48,1315,1287,2560,1440,8-21-2022,6-39-51,161,depth_duration_stimuli/002279_2014-06-28_18-55-32_260595134347_rgbf000040-resize_5/002279_2014-06-28_18-55-32_260595134347_rgbf000040-resize_5-target.png,125,1.5043333333333,3,2949,124,feet,jsons/VE125_randls_48.json,569514,776031,57,Woman
161,951864,DepthScenes,duration_manipulation_targetAtFixation,jsons/VE125_randls_48.json,http://54.235.29.9/FacialAge/BNav_EC2/DepthDuration/v2_depth_duration_MTurk/v2_DepthDuration_HTML.html#48,48,1315,1287,2560,1440,8-21-2022,6-39-51,162,depth_duration_stimuli/000635_2014-06-08_16-38-42_260595134347_rgbf000106-resize_1/000635_2014-06-08_16-38-42_260595134347_rgbf000106-resize_1-target.png,125,2.074,5,2613,127,feet,jsons/VE125_randls_48.json,569514,776031,57,Woman
162,951864,DepthScenes,duration_manipulation_targetAtFixation,jsons/VE125_randls_48.json,http://54.235.29.9/FacialAge/BNav_EC2/DepthDuration/v2_depth_duration_MTurk/v2_DepthDuration_HTML.html#48,48,1315,1287,2560,1440,8-21-2022,6-39-51,163,depth_duration_stimuli/002057_2014-06-24_21-00-13_260595134347_rgbf000120-resize_1/002057_2014-06-24_21-00-13_260595134347_rgbf000120-resize_1-target.png,125,2.967,8,2447,128,feet,jsons/VE125_randls_48.json,569514,776031,57,Woman
163,951864,DepthScenes,duration_manipulation_targetAtFixation,jsons/VE125_randls_48.json,http://54.235.29.9/FacialAge/BNav_EC2/DepthDuration/v2_depth_duration_MTurk/v2_DepthDuration_HTML.html#48,48,1315,1287,2560,1440,8-21-2022,6-39-51,164,depth_duration_stimuli/000709_2014-06-08_13-51-55_260595134347_rgbf000068-resize_3/000709_2014-06-08_13-51-55_260595134347_rgbf000068-resize_3-target.png,125,1.8030000000000002,2,3128,123,feet,jsons/VE125_randls_48.json,569514,776031,57,Woman
