,subjID,experimentName,versionName,sequenceName,url,selected_row,windowWidth,windowHeight,screenWidth,screenHeight,startDate,startTime,trial,stimulus,duration,actual_depth,depth_estimate,trial_RT,log_sceneDuration,unitSelection,seq_filepath,experimentTime,totalTime,age,gender
0,954862,DepthScenes,duration_manipulation_targetAtFixation,jsons/v1_VE1000_randls_64_rotated.json,http://54.235.29.9/FacialAge/BNav_EC2/DepthDuration/v2_depth_duration_MTurk/v2_DepthDuration_HTML.html#56,56,1440,900,1440,900,8-22-2022,7-59-2,1,depth_duration_stimuli/002758_2014-06-22_19-11-20_094959634447_rgbf000128-resize_1/002758_2014-06-22_19-11-20_094959634447_rgbf000128-resize_1-target.png,1000,2.555,3,4327,1007,feet,jsons/v1_VE1000_randls_64_rotated.json,816139,1201254,25,Woman
1,954862,DepthScenes,duration_manipulation_targetAtFixation,jsons/v1_VE1000_randls_64_rotated.json,http://54.235.29.9/FacialAge/BNav_EC2/DepthDuration/v2_depth_duration_MTurk/v2_DepthDuration_HTML.html#56,56,1440,900,1440,900,8-22-2022,7-59-2,2,depth_duration_stimuli/002630_2014-06-24_14-47-50_094959634447_rgbf000055-resize_1/002630_2014-06-24_14-47-50_094959634447_rgbf000055-resize_1-target.png,1000,3.0095,5,3952,1003,feet,jsons/v1_VE1000_randls_64_rotated.json,816139,1201254,25,Woman
2,954862,DepthScenes,duration_manipulation_targetAtFixation,jsons/v1_VE1000_randls_64_rotated.json,http://54.235.29.9/FacialAge/BNav_EC2/DepthDuration/v2_depth_duration_MTurk/v2_DepthDuration_HTML.html#56,56,1440,900,1440,900,8-22-2022,7-59-2,3,depth_duration_stimuli/000556_2014-06-09_22-42-56_260595134347_rgbf000214-resize_1/000556_2014-06-09_22-42-56_260595134347_rgbf000214-resize_1-target.png,1000,4.8415,6,5105,1028,feet,jsons/v1_VE1000_randls_64_rotated.json,816139,1201254,25,Woman
3,954862,DepthScenes,duration_manipulation_targetAtFixation,jsons/v1_VE1000_randls_64_rotated.json,http://54.235.29.9/FacialAge/BNav_EC2/DepthDuration/v2_depth_duration_MTurk/v2_DepthDuration_HTML.html#56,56,1440,900,1440,900,8-22-2022,7-59-2,4,depth_duration_stimuli/001158_2014-06-17_15-32-16_260595134347_rgbf000138-resize_2/001158_2014-06-17_15-32-16_260595134347_rgbf000138-resize_2-target.png,1000,4.5315,4,4278,1000,feet,jsons/v1_VE1000_randls_64_rotated.json,816139,1201254,25,Woman
4,954862,DepthScenes,duration_manipulation_targetAtFixation,jsons/v1_VE1000_randls_64_rotated.json,http://54.235.29.9/FacialAge/BNav_EC2/DepthDuration/v2_depth_duration_MTurk/v2_DepthDuration_HTML.html#56,56,1440,900,1440,900,8-22-2022,7-59-2,5,depth_duration_stimuli/002637_2014-06-24_14-51-13_094959634447_rgbf000066-resize_4/002637_2014-06-24_14-51-13_094959634447_rgbf000066-resize_4-target.png,1000,1.9955,4,4457,985,feet,jsons/v1_VE1000_randls_64_rotated.json,816139,1201254,25,Woman
5,954862,DepthScenes,duration_manipulation_targetAtFixation,jsons/v1_VE1000_randls_64_rotated.json,http://54.235.29.9/FacialAge/BNav_EC2/DepthDuration/v2_depth_duration_MTurk/v2_DepthDuration_HTML.html#56,56,1440,900,1440,900,8-22-2022,7-59-2,6,depth_duration_stimuli/003534_2014-05-22_15-06-10_094959634447_rgbf000102-resize_4/003534_2014-05-22_15-06-10_094959634447_rgbf000102-resize_4-target.png,1000,1.426,2,3906,988,feet,jsons/v1_VE1000_randls_64_rotated.json,816139,1201254,25,Woman
6,954862,DepthScenes,duration_manipulation_targetAtFixation,jsons/v1_VE1000_randls_64_rotated.json,http://54.235.29.9/FacialAge/BNav_EC2/DepthDuration/v2_depth_duration_MTurk/v2_DepthDuration_HTML.html#56,56,1440,900,1440,900,8-22-2022,7-59-2,7,depth_duration_stimuli/002444_2014-06-28_20-32-08_260595134347_rgbf000027-resize_0/002444_2014-06-28_20-32-08_260595134347_rgbf000027-resize_0-target.png,1000,4.388999999999999,5,5668,992,feet,jsons/v1_VE1000_randls_64_rotated.json,816139,1201254,25,Woman
7,954862,DepthScenes,duration_manipulation_targetAtFixation,jsons/v1_VE1000_randls_64_rotated.json,http://54.235.29.9/FacialAge/BNav_EC2/DepthDuration/v2_depth_duration_MTurk/v2_DepthDuration_HTML.html#56,56,1440,900,1440,900,8-22-2022,7-59-2,8,depth_duration_stimuli/000436_2014-06-09_22-25-11_260595134347_rgbf000137-resize_1/000436_2014-06-09_22-25-11_260595134347_rgbf000137-resize_1-target.png,1000,4.0705,5,4218,988,feet,jsons/v1_VE1000_randls_64_rotated.json,816139,1201254,25,Woman
8,954862,DepthScenes,duration_manipulation_targetAtFixation,jsons/v1_VE1000_randls_64_rotated.json,http://54.235.29.9/FacialAge/BNav_EC2/DepthDuration/v2_depth_duration_MTurk/v2_DepthDuration_HTML.html#56,56,1440,900,1440,900,8-22-2022,7-59-2,9,depth_duration_stimuli/003423_2014-05-21_10-23-26_094959634447_rgbf002665-resize_2/003423_2014-05-21_10-23-26_094959634447_rgbf002665-resize_2-target.png,1000,3.2575,4,4182,1013,feet,jsons/v1_VE1000_randls_64_rotated.json,816139,1201254,25,Woman
9,954862,DepthScenes,duration_manipulation_targetAtFixation,jsons/v1_VE1000_randls_64_rotated.json,http://54.235.29.9/FacialAge/BNav_EC2/DepthDuration/v2_depth_duration_MTurk/v2_DepthDuration_HTML.html#56,56,1440,900,1440,900,8-22-2022,7-59-2,10,depth_duration_stimuli/002905_2014-06-03_18-04-43_094959634447_rgbf000151-resize_2/002905_2014-06-03_18-04-43_094959634447_rgbf000151-resize_2-target.png,1000,2.0295,2,4035,986,feet,jsons/v1_VE1000_randls_64_rotated.json,816139,1201254,25,Woman
10,954862,DepthScenes,duration_manipulation_targetAtFixation,jsons/v1_VE1000_randls_64_rotated.json,http://54.235.29.9/FacialAge/BNav_EC2/DepthDuration/v2_depth_duration_MTurk/v2_DepthDuration_HTML.html#56,56,1440,900,1440,900,8-22-2022,7-59-2,11,depth_duration_stimuli/002750_2014-06-22_19-08-03_094959634447_rgbf000094-resize_4/002750_2014-06-22_19-08-03_094959634447_rgbf000094-resize_4-target.png,1000,2.354,2,4606,999,feet,jsons/v1_VE1000_randls_64_rotated.json,816139,1201254,25,Woman
11,954862,DepthScenes,duration_manipulation_targetAtFixation,jsons/v1_VE1000_randls_64_rotated.json,http://54.235.29.9/FacialAge/BNav_EC2/DepthDuration/v2_depth_duration_MTurk/v2_DepthDuration_HTML.html#56,56,1440,900,1440,900,8-22-2022,7-59-2,12,depth_duration_stimuli/002549_2014-06-24_13-41-39_094959634447_rgbf000022-resize_3/002549_2014-06-24_13-41-39_094959634447_rgbf000022-resize_3-target.png,1000,1.476,1,4072,1005,feet,jsons/v1_VE1000_randls_64_rotated.json,816139,1201254,25,Woman
12,954862,DepthScenes,duration_manipulation_targetAtFixation,jsons/v1_VE1000_randls_64_rotated.json,http://54.235.29.9/FacialAge/BNav_EC2/DepthDuration/v2_depth_duration_MTurk/v2_DepthDuration_HTML.html#56,56,1440,900,1440,900,8-22-2022,7-59-2,13,depth_duration_stimuli/002949_2014-06-26_15-57-42_094959634447_rgbf000079-resize_1/002949_2014-06-26_15-57-42_094959634447_rgbf000079-resize_1-target.png,1000,1.8915,2,3656,988,feet,jsons/v1_VE1000_randls_64_rotated.json,816139,1201254,25,Woman
13,954862,DepthScenes,duration_manipulation_targetAtFixation,jsons/v1_VE1000_randls_64_rotated.json,http://54.235.29.9/FacialAge/BNav_EC2/DepthDuration/v2_depth_duration_MTurk/v2_DepthDuration_HTML.html#56,56,1440,900,1440,900,8-22-2022,7-59-2,14,depth_duration_stimuli/000522_2014-06-08_13-35-06_260595134347_rgbf000244-resize_1/000522_2014-06-08_13-35-06_260595134347_rgbf000244-resize_1-target.png,1000,2.3715,1,4165,990,feet,jsons/v1_VE1000_randls_64_rotated.json,816139,1201254,25,Woman
14,954862,DepthScenes,duration_manipulation_targetAtFixation,jsons/v1_VE1000_randls_64_rotated.json,http://54.235.29.9/FacialAge/BNav_EC2/DepthDuration/v2_depth_duration_MTurk/v2_DepthDuration_HTML.html#56,56,1440,900,1440,900,8-22-2022,7-59-2,15,depth_duration_stimuli/001132_2014-06-17_14-48-54_260595134347_rgbf000100-resize_2/001132_2014-06-17_14-48-54_260595134347_rgbf000100-resize_2-target.png,1000,3.753,5,4392,1005,feet,jsons/v1_VE1000_randls_64_rotated.json,816139,1201254,25,Woman
15,954862,DepthScenes,duration_manipulation_targetAtFixation,jsons/v1_VE1000_randls_64_rotated.json,http://54.235.29.9/FacialAge/BNav_EC2/DepthDuration/v2_depth_duration_MTurk/v2_DepthDuration_HTML.html#56,56,1440,900,1440,900,8-22-2022,7-59-2,16,depth_duration_stimuli/001133_2014-06-17_14-49-16_260595134347_rgbf000100-resize_0/001133_2014-06-17_14-49-16_260595134347_rgbf000100-resize_0-target.png,1000,4.2115,3,4085,986,feet,jsons/v1_VE1000_randls_64_rotated.json,816139,1201254,25,Woman
16,954862,DepthScenes,duration_manipulation_targetAtFixation,jsons/v1_VE1000_randls_64_rotated.json,http://54.235.29.9/FacialAge/BNav_EC2/DepthDuration/v2_depth_duration_MTurk/v2_DepthDuration_HTML.html#56,56,1440,900,1440,900,8-22-2022,7-59-2,17,depth_duration_stimuli/000483_2014-06-09_20-41-45_260595134347_rgbf000116-resize_4/000483_2014-06-09_20-41-45_260595134347_rgbf000116-resize_4-target.png,1000,1.337,1,4112,998,feet,jsons/v1_VE1000_randls_64_rotated.json,816139,1201254,25,Woman
17,954862,DepthScenes,duration_manipulation_targetAtFixation,jsons/v1_VE1000_randls_64_rotated.json,http://54.235.29.9/FacialAge/BNav_EC2/DepthDuration/v2_depth_duration_MTurk/v2_DepthDuration_HTML.html#56,56,1440,900,1440,900,8-22-2022,7-59-2,18,depth_duration_stimuli/000469_2014-06-09_19-42-10_260595134347_rgbf000081-resize_1/000469_2014-06-09_19-42-10_260595134347_rgbf000081-resize_1-target.png,1000,1.652,1,3898,991,feet,jsons/v1_VE1000_randls_64_rotated.json,816139,1201254,25,Woman
18,954862,DepthScenes,duration_manipulation_targetAtFixation,jsons/v1_VE1000_randls_64_rotated.json,http://54.235.29.9/FacialAge/BNav_EC2/DepthDuration/v2_depth_duration_MTurk/v2_DepthDuration_HTML.html#56,56,1440,900,1440,900,8-22-2022,7-59-2,19,depth_duration_stimuli/001498_2014-06-19_17-45-14_260595134347_rgbf000129-resize_4/001498_2014-06-19_17-45-14_260595134347_rgbf000129-resize-original.jpg,1000,1.4075,0,4096,1003,feet,jsons/v1_VE1000_randls_64_rotated.json,816139,1201254,25,Woman
19,954862,DepthScenes,duration_manipulation_targetAtFixation,jsons/v1_VE1000_randls_64_rotated.json,http://54.235.29.9/FacialAge/BNav_EC2/DepthDuration/v2_depth_duration_MTurk/v2_DepthDuration_HTML.html#56,56,1440,900,1440,900,8-22-2022,7-59-2,20,depth_duration_stimuli/001617_2014-06-20_11-35-32_260595134347_rgbf000066-resize_1/001617_2014-06-20_11-35-32_260595134347_rgbf000066-resize_1-target.png,1000,3.7910000000000004,3,7611,991,feet,jsons/v1_VE1000_randls_64_rotated.json,816139,1201254,25,Woman
20,954862,DepthScenes,duration_manipulation_targetAtFixation,jsons/v1_VE1000_randls_64_rotated.json,http://54.235.29.9/FacialAge/BNav_EC2/DepthDuration/v2_depth_duration_MTurk/v2_DepthDuration_HTML.html#56,56,1440,900,1440,900,8-22-2022,7-59-2,21,depth_duration_stimuli/001806_2014-06-26_20-50-20_260595134347_rgbf000091-resize_1/001806_2014-06-26_20-50-20_260595134347_rgbf000091-resize_1-target.png,1000,2.7305,2,3677,965,feet,jsons/v1_VE1000_randls_64_rotated.json,816139,1201254,25,Woman
21,954862,DepthScenes,duration_manipulation_targetAtFixation,jsons/v1_VE1000_randls_64_rotated.json,http://54.235.29.9/FacialAge/BNav_EC2/DepthDuration/v2_depth_duration_MTurk/v2_DepthDuration_HTML.html#56,56,1440,900,1440,900,8-22-2022,7-59-2,22,depth_duration_stimuli/002875_2014-06-01_15-19-00_094959634447_rgbf000151-resize_1/002875_2014-06-01_15-19-00_094959634447_rgbf000151-resize_1-target.png,1000,1.9675,3,4687,998,feet,jsons/v1_VE1000_randls_64_rotated.json,816139,1201254,25,Woman
22,954862,DepthScenes,duration_manipulation_targetAtFixation,jsons/v1_VE1000_randls_64_rotated.json,http://54.235.29.9/FacialAge/BNav_EC2/DepthDuration/v2_depth_duration_MTurk/v2_DepthDuration_HTML.html#56,56,1440,900,1440,900,8-22-2022,7-59-2,23,depth_duration_stimuli/001011_2014-06-08_23-18-54_260595134347_rgbf000044-resize_4/001011_2014-06-08_23-18-54_260595134347_rgbf000044-resize_4-target.png,1000,2.4730000000000003,4,3975,1009,feet,jsons/v1_VE1000_randls_64_rotated.json,816139,1201254,25,Woman
23,954862,DepthScenes,duration_manipulation_targetAtFixation,jsons/v1_VE1000_randls_64_rotated.json,http://54.235.29.9/FacialAge/BNav_EC2/DepthDuration/v2_depth_duration_MTurk/v2_DepthDuration_HTML.html#56,56,1440,900,1440,900,8-22-2022,7-59-2,24,depth_duration_stimuli/001032_2014-06-08_13-23-17_260595134347_rgbf000021-resize_3/001032_2014-06-08_13-23-17_260595134347_rgbf000021-resize_3-target.png,1000,3.2725,3,3797,1002,feet,jsons/v1_VE1000_randls_64_rotated.json,816139,1201254,25,Woman
24,954862,DepthScenes,duration_manipulation_targetAtFixation,jsons/v1_VE1000_randls_64_rotated.json,http://54.235.29.9/FacialAge/BNav_EC2/DepthDuration/v2_depth_duration_MTurk/v2_DepthDuration_HTML.html#56,56,1440,900,1440,900,8-22-2022,7-59-2,25,depth_duration_stimuli/001059_2014-06-08_21-53-27_260595134347_rgbf000061-resize_4/001059_2014-06-08_21-53-27_260595134347_rgbf000061-resize_4-target.png,1000,2.4185,2,3854,1006,feet,jsons/v1_VE1000_randls_64_rotated.json,816139,1201254,25,Woman
25,954862,DepthScenes,duration_manipulation_targetAtFixation,jsons/v1_VE1000_randls_64_rotated.json,http://54.235.29.9/FacialAge/BNav_EC2/DepthDuration/v2_depth_duration_MTurk/v2_DepthDuration_HTML.html#56,56,1440,900,1440,900,8-22-2022,7-59-2,26,depth_duration_stimuli/002657_2014-06-13_15-29-54_094959634447_rgbf000150-resize_1/002657_2014-06-13_15-29-54_094959634447_rgbf000150-resize_1-target.png,1000,4.919,3,5182,996,feet,jsons/v1_VE1000_randls_64_rotated.json,816139,1201254,25,Woman
26,954862,DepthScenes,duration_manipulation_targetAtFixation,jsons/v1_VE1000_randls_64_rotated.json,http://54.235.29.9/FacialAge/BNav_EC2/DepthDuration/v2_depth_duration_MTurk/v2_DepthDuration_HTML.html#56,56,1440,900,1440,900,8-22-2022,7-59-2,27,depth_duration_stimuli/002375_2014-06-28_20-13-44_260595134347_rgbf000032-resize_1/002375_2014-06-28_20-13-44_260595134347_rgbf000032-resize_1-target.png,1000,4.0175,2,5265,987,feet,jsons/v1_VE1000_randls_64_rotated.json,816139,1201254,25,Woman
27,954862,DepthScenes,duration_manipulation_targetAtFixation,jsons/v1_VE1000_randls_64_rotated.json,http://54.235.29.9/FacialAge/BNav_EC2/DepthDuration/v2_depth_duration_MTurk/v2_DepthDuration_HTML.html#56,56,1440,900,1440,900,8-22-2022,7-59-2,28,depth_duration_stimuli/002414_2014-06-28_20-24-58_260595134347_rgbf000067-resize_4/002414_2014-06-28_20-24-58_260595134347_rgbf000067-resize_4-target.png,1000,4.363,4,4173,998,feet,jsons/v1_VE1000_randls_64_rotated.json,816139,1201254,25,Woman
28,954862,DepthScenes,duration_manipulation_targetAtFixation,jsons/v1_VE1000_randls_64_rotated.json,http://54.235.29.9/FacialAge/BNav_EC2/DepthDuration/v2_depth_duration_MTurk/v2_DepthDuration_HTML.html#56,56,1440,900,1440,900,8-22-2022,7-59-2,29,depth_duration_stimuli/000773_2014-06-08_22-24-54_260595134347_rgbf000093-resize_1/000773_2014-06-08_22-24-54_260595134347_rgbf000093-resize_1-target.png,1000,4.973,5,4160,1004,feet,jsons/v1_VE1000_randls_64_rotated.json,816139,1201254,25,Woman
29,954862,DepthScenes,duration_manipulation_targetAtFixation,jsons/v1_VE1000_randls_64_rotated.json,http://54.235.29.9/FacialAge/BNav_EC2/DepthDuration/v2_depth_duration_MTurk/v2_DepthDuration_HTML.html#56,56,1440,900,1440,900,8-22-2022,7-59-2,30,depth_duration_stimuli/002072_2014-06-24_21-48-06_260595134347_rgbf000115-resize_0/002072_2014-06-24_21-48-06_260595134347_rgbf000115-resize-original.jpg,1000,4.702,0,9228,994,feet,jsons/v1_VE1000_randls_64_rotated.json,816139,1201254,25,Woman
30,954862,DepthScenes,duration_manipulation_targetAtFixation,jsons/v1_VE1000_randls_64_rotated.json,http://54.235.29.9/FacialAge/BNav_EC2/DepthDuration/v2_depth_duration_MTurk/v2_DepthDuration_HTML.html#56,56,1440,900,1440,900,8-22-2022,7-59-2,31,depth_duration_stimuli/003490_2014-05-21_15-50-11_094959634447_rgbf000101-resize_3/003490_2014-05-21_15-50-11_094959634447_rgbf000101-resize_3-target.png,1000,3.6445,5,5438,1002,feet,jsons/v1_VE1000_randls_64_rotated.json,816139,1201254,25,Woman
31,954862,DepthScenes,duration_manipulation_targetAtFixation,jsons/v1_VE1000_randls_64_rotated.json,http://54.235.29.9/FacialAge/BNav_EC2/DepthDuration/v2_depth_duration_MTurk/v2_DepthDuration_HTML.html#56,56,1440,900,1440,900,8-22-2022,7-59-2,32,depth_duration_stimuli/001175_2014-06-17_15-45-55_260595134347_rgbf000129-resize_4/001175_2014-06-17_15-45-55_260595134347_rgbf000129-resize_4-target.png,1000,4.255,6,4236,995,feet,jsons/v1_VE1000_randls_64_rotated.json,816139,1201254,25,Woman
32,954862,DepthScenes,duration_manipulation_targetAtFixation,jsons/v1_VE1000_randls_64_rotated.json,http://54.235.29.9/FacialAge/BNav_EC2/DepthDuration/v2_depth_duration_MTurk/v2_DepthDuration_HTML.html#56,56,1440,900,1440,900,8-22-2022,7-59-2,33,depth_duration_stimuli/000665_2014-06-09_20-42-35_260595134347_rgbf000110-resize_1/000665_2014-06-09_20-42-35_260595134347_rgbf000110-resize_1-target.png,1000,3.057,4,4230,988,feet,jsons/v1_VE1000_randls_64_rotated.json,816139,1201254,25,Woman
33,954862,DepthScenes,duration_manipulation_targetAtFixation,jsons/v1_VE1000_randls_64_rotated.json,http://54.235.29.9/FacialAge/BNav_EC2/DepthDuration/v2_depth_duration_MTurk/v2_DepthDuration_HTML.html#56,56,1440,900,1440,900,8-22-2022,7-59-2,34,depth_duration_stimuli/001150_2014-06-17_15-27-34_260595134347_rgbf000108-resize_2/001150_2014-06-17_15-27-34_260595134347_rgbf000108-resize_2-target.png,1000,4.0325,3,4102,998,feet,jsons/v1_VE1000_randls_64_rotated.json,816139,1201254,25,Woman
34,954862,DepthScenes,duration_manipulation_targetAtFixation,jsons/v1_VE1000_randls_64_rotated.json,http://54.235.29.9/FacialAge/BNav_EC2/DepthDuration/v2_depth_duration_MTurk/v2_DepthDuration_HTML.html#56,56,1440,900,1440,900,8-22-2022,7-59-2,35,depth_duration_stimuli/003228_2014-05-14_13-42-35_094959634447_rgbf000101-resize_1/003228_2014-05-14_13-42-35_094959634447_rgbf000101-resize_1-target.png,1000,1.9680000000000002,2,4476,999,feet,jsons/v1_VE1000_randls_64_rotated.json,816139,1201254,25,Woman
35,954862,DepthScenes,duration_manipulation_targetAtFixation,jsons/v1_VE1000_randls_64_rotated.json,http://54.235.29.9/FacialAge/BNav_EC2/DepthDuration/v2_depth_duration_MTurk/v2_DepthDuration_HTML.html#56,56,1440,900,1440,900,8-22-2022,7-59-2,36,depth_duration_stimuli/002600_2014-06-24_14-27-04_094959634447_rgbf000074-resize_2/002600_2014-06-24_14-27-04_094959634447_rgbf000074-resize_2-target.png,1000,2.7575,4,4490,1003,feet,jsons/v1_VE1000_randls_64_rotated.json,816139,1201254,25,Woman
36,954862,DepthScenes,duration_manipulation_targetAtFixation,jsons/v1_VE1000_randls_64_rotated.json,http://54.235.29.9/FacialAge/BNav_EC2/DepthDuration/v2_depth_duration_MTurk/v2_DepthDuration_HTML.html#56,56,1440,900,1440,900,8-22-2022,7-59-2,37,depth_duration_stimuli/002805_2014-06-22_19-54-03_094959634447_rgbf000079-resize_1/002805_2014-06-22_19-54-03_094959634447_rgbf000079-resize_1-target.png,1000,3.1439999999999997,5,4054,1008,feet,jsons/v1_VE1000_randls_64_rotated.json,816139,1201254,25,Woman
37,954862,DepthScenes,duration_manipulation_targetAtFixation,jsons/v1_VE1000_randls_64_rotated.json,http://54.235.29.9/FacialAge/BNav_EC2/DepthDuration/v2_depth_duration_MTurk/v2_DepthDuration_HTML.html#56,56,1440,900,1440,900,8-22-2022,7-59-2,38,depth_duration_stimuli/000906_2014-06-08_13-35-43_260595134347_rgbf000155-resize_1/000906_2014-06-08_13-35-43_260595134347_rgbf000155-resize_1-target.png,1000,2.8489999999999998,3,5606,997,feet,jsons/v1_VE1000_randls_64_rotated.json,816139,1201254,25,Woman
38,954862,DepthScenes,duration_manipulation_targetAtFixation,jsons/v1_VE1000_randls_64_rotated.json,http://54.235.29.9/FacialAge/BNav_EC2/DepthDuration/v2_depth_duration_MTurk/v2_DepthDuration_HTML.html#56,56,1440,900,1440,900,8-22-2022,7-59-2,39,depth_duration_stimuli/000709_2014-06-08_13-51-55_260595134347_rgbf000068-resize_3/000709_2014-06-08_13-51-55_260595134347_rgbf000068-resize_3-target.png,1000,1.8030000000000002,2,3824,1014,feet,jsons/v1_VE1000_randls_64_rotated.json,816139,1201254,25,Woman
39,954862,DepthScenes,duration_manipulation_targetAtFixation,jsons/v1_VE1000_randls_64_rotated.json,http://54.235.29.9/FacialAge/BNav_EC2/DepthDuration/v2_depth_duration_MTurk/v2_DepthDuration_HTML.html#56,56,1440,900,1440,900,8-22-2022,7-59-2,40,depth_duration_stimuli/002057_2014-06-24_21-00-13_260595134347_rgbf000120-resize_1/002057_2014-06-24_21-00-13_260595134347_rgbf000120-resize_1-target.png,1000,2.967,4,4513,987,feet,jsons/v1_VE1000_randls_64_rotated.json,816139,1201254,25,Woman
40,954862,DepthScenes,duration_manipulation_targetAtFixation,jsons/v1_VE1000_randls_64_rotated.json,http://54.235.29.9/FacialAge/BNav_EC2/DepthDuration/v2_depth_duration_MTurk/v2_DepthDuration_HTML.html#56,56,1440,900,1440,900,8-22-2022,7-59-2,41,depth_duration_stimuli/003129_2014-05-12_10-48-10_094959634447_rgbf000100-resize_0/003129_2014-05-12_10-48-10_094959634447_rgbf000100-resize_0-target.png,1000,4.9305,2,4337,990,feet,jsons/v1_VE1000_randls_64_rotated.json,816139,1201254,25,Woman
41,954862,DepthScenes,duration_manipulation_targetAtFixation,jsons/v1_VE1000_randls_64_rotated.json,http://54.235.29.9/FacialAge/BNav_EC2/DepthDuration/v2_depth_duration_MTurk/v2_DepthDuration_HTML.html#56,56,1440,900,1440,900,8-22-2022,7-59-2,42,depth_duration_stimuli/000414_2014-06-04_19-49-13_260595134347_rgbf000044-resize_0/000414_2014-06-04_19-49-13_260595134347_rgbf000044-resize_0-target.png,1000,4.329,4,6892,997,feet,jsons/v1_VE1000_randls_64_rotated.json,816139,1201254,25,Woman
42,954862,DepthScenes,duration_manipulation_targetAtFixation,jsons/v1_VE1000_randls_64_rotated.json,http://54.235.29.9/FacialAge/BNav_EC2/DepthDuration/v2_depth_duration_MTurk/v2_DepthDuration_HTML.html#56,56,1440,900,1440,900,8-22-2022,7-59-2,43,depth_duration_stimuli/002639_2014-06-24_14-51-37_094959634447_rgbf000074-resize_4/002639_2014-06-24_14-51-37_094959634447_rgbf000074-resize_4-target.png,1000,4.0375,5,4375,999,feet,jsons/v1_VE1000_randls_64_rotated.json,816139,1201254,25,Woman
43,954862,DepthScenes,duration_manipulation_targetAtFixation,jsons/v1_VE1000_randls_64_rotated.json,http://54.235.29.9/FacialAge/BNav_EC2/DepthDuration/v2_depth_duration_MTurk/v2_DepthDuration_HTML.html#56,56,1440,900,1440,900,8-22-2022,7-59-2,44,depth_duration_stimuli/003292_2014-05-14_21-53-49_094959634447_rgbf000100-resize_2/003292_2014-05-14_21-53-49_094959634447_rgbf000100-resize_2-target.png,1000,3.4815,4,6262,984,feet,jsons/v1_VE1000_randls_64_rotated.json,816139,1201254,25,Woman
44,954862,DepthScenes,duration_manipulation_targetAtFixation,jsons/v1_VE1000_randls_64_rotated.json,http://54.235.29.9/FacialAge/BNav_EC2/DepthDuration/v2_depth_duration_MTurk/v2_DepthDuration_HTML.html#56,56,1440,900,1440,900,8-22-2022,7-59-2,45,depth_duration_stimuli/000927_2014-06-09_16-32-30_260595134347_rgbf000123-resize_3/000927_2014-06-09_16-32-30_260595134347_rgbf000123-resize_3-target.png,1000,2.6785,3,4683,1014,feet,jsons/v1_VE1000_randls_64_rotated.json,816139,1201254,25,Woman
45,954862,DepthScenes,duration_manipulation_targetAtFixation,jsons/v1_VE1000_randls_64_rotated.json,http://54.235.29.9/FacialAge/BNav_EC2/DepthDuration/v2_depth_duration_MTurk/v2_DepthDuration_HTML.html#56,56,1440,900,1440,900,8-22-2022,7-59-2,46,depth_duration_stimuli/001110_2014-06-15_17-25-28_260595134347_rgbf000150-resize_1/001110_2014-06-15_17-25-28_260595134347_rgbf000150-resize_1-target.png,1000,1.7115,2,4118,993,feet,jsons/v1_VE1000_randls_64_rotated.json,816139,1201254,25,Woman
46,954862,DepthScenes,duration_manipulation_targetAtFixation,jsons/v1_VE1000_randls_64_rotated.json,http://54.235.29.9/FacialAge/BNav_EC2/DepthDuration/v2_depth_duration_MTurk/v2_DepthDuration_HTML.html#56,56,1440,900,1440,900,8-22-2022,7-59-2,47,depth_duration_stimuli/001516_2014-06-20_16-25-09_260595134347_rgbf000076-resize_2/001516_2014-06-20_16-25-09_260595134347_rgbf000076-resize_2-target.png,1000,1.7445,2,3785,1004,feet,jsons/v1_VE1000_randls_64_rotated.json,816139,1201254,25,Woman
47,954862,DepthScenes,duration_manipulation_targetAtFixation,jsons/v1_VE1000_randls_64_rotated.json,http://54.235.29.9/FacialAge/BNav_EC2/DepthDuration/v2_depth_duration_MTurk/v2_DepthDuration_HTML.html#56,56,1440,900,1440,900,8-22-2022,7-59-2,48,depth_duration_stimuli/002118_2014-06-25_20-32-08_260595134347_rgbf000078-resize_1/002118_2014-06-25_20-32-08_260595134347_rgbf000078-resize_1-target.png,1000,2.6460000000000004,3,4104,1004,feet,jsons/v1_VE1000_randls_64_rotated.json,816139,1201254,25,Woman
48,954862,DepthScenes,duration_manipulation_targetAtFixation,jsons/v1_VE1000_randls_64_rotated.json,http://54.235.29.9/FacialAge/BNav_EC2/DepthDuration/v2_depth_duration_MTurk/v2_DepthDuration_HTML.html#56,56,1440,900,1440,900,8-22-2022,7-59-2,49,depth_duration_stimuli/001170_2014-06-17_15-43-44_260595134347_rgbf000096-resize_6/001170_2014-06-17_15-43-44_260595134347_rgbf000096-resize-original.jpg,1000,1.1909999999999998,0,3772,1011,feet,jsons/v1_VE1000_randls_64_rotated.json,816139,1201254,25,Woman
49,954862,DepthScenes,duration_manipulation_targetAtFixation,jsons/v1_VE1000_randls_64_rotated.json,http://54.235.29.9/FacialAge/BNav_EC2/DepthDuration/v2_depth_duration_MTurk/v2_DepthDuration_HTML.html#56,56,1440,900,1440,900,8-22-2022,7-59-2,50,depth_duration_stimuli/001447_2014-06-19_17-00-32_260595134347_rgbf000082-resize_5/001447_2014-06-19_17-00-32_260595134347_rgbf000082-resize_5-target.png,1000,4.13775,3,4358,1006,feet,jsons/v1_VE1000_randls_64_rotated.json,816139,1201254,25,Woman
50,954862,DepthScenes,duration_manipulation_targetAtFixation,jsons/v1_VE1000_randls_64_rotated.json,http://54.235.29.9/FacialAge/BNav_EC2/DepthDuration/v2_depth_duration_MTurk/v2_DepthDuration_HTML.html#56,56,1440,900,1440,900,8-22-2022,7-59-2,51,depth_duration_stimuli/000447_2014-06-08_16-15-46_260595134347_rgbf000130-resize_1/000447_2014-06-08_16-15-46_260595134347_rgbf000130-resize_1-target.png,1000,4.479,5,3796,997,feet,jsons/v1_VE1000_randls_64_rotated.json,816139,1201254,25,Woman
51,954862,DepthScenes,duration_manipulation_targetAtFixation,jsons/v1_VE1000_randls_64_rotated.json,http://54.235.29.9/FacialAge/BNav_EC2/DepthDuration/v2_depth_duration_MTurk/v2_DepthDuration_HTML.html#56,56,1440,900,1440,900,8-22-2022,7-59-2,52,depth_duration_stimuli/001828_2014-06-26_21-40-03_260595134347_rgbf000024-resize_0/001828_2014-06-26_21-40-03_260595134347_rgbf000024-resize_0-target.png,1000,4.8260000000000005,3,5030,988,feet,jsons/v1_VE1000_randls_64_rotated.json,816139,1201254,25,Woman
52,954862,DepthScenes,duration_manipulation_targetAtFixation,jsons/v1_VE1000_randls_64_rotated.json,http://54.235.29.9/FacialAge/BNav_EC2/DepthDuration/v2_depth_duration_MTurk/v2_DepthDuration_HTML.html#56,56,1440,900,1440,900,8-22-2022,7-59-2,53,depth_duration_stimuli/000009_2014-05-26_14-32-05_260595134347_rgbf000034-resize_3/000009_2014-05-26_14-32-05_260595134347_rgbf000034-resize_3-target.png,1000,3.8715,5,7792,968,feet,jsons/v1_VE1000_randls_64_rotated.json,816139,1201254,25,Woman
53,954862,DepthScenes,duration_manipulation_targetAtFixation,jsons/v1_VE1000_randls_64_rotated.json,http://54.235.29.9/FacialAge/BNav_EC2/DepthDuration/v2_depth_duration_MTurk/v2_DepthDuration_HTML.html#56,56,1440,900,1440,900,8-22-2022,7-59-2,54,depth_duration_stimuli/001450_2014-06-19_17-02-03_260595134347_rgbf000203-resize_4/001450_2014-06-19_17-02-03_260595134347_rgbf000203-resize_4-target.png,1000,4.0106666666667,6,4303,1001,feet,jsons/v1_VE1000_randls_64_rotated.json,816139,1201254,25,Woman
54,954862,DepthScenes,duration_manipulation_targetAtFixation,jsons/v1_VE1000_randls_64_rotated.json,http://54.235.29.9/FacialAge/BNav_EC2/DepthDuration/v2_depth_duration_MTurk/v2_DepthDuration_HTML.html#56,56,1440,900,1440,900,8-22-2022,7-59-2,55,depth_duration_stimuli/001449_2014-06-19_17-01-27_260595134347_rgbf000116-resize_2/001449_2014-06-19_17-01-27_260595134347_rgbf000116-resize_2-target.png,1000,3.452,4,4159,999,feet,jsons/v1_VE1000_randls_64_rotated.json,816139,1201254,25,Woman
55,954862,DepthScenes,duration_manipulation_targetAtFixation,jsons/v1_VE1000_randls_64_rotated.json,http://54.235.29.9/FacialAge/BNav_EC2/DepthDuration/v2_depth_duration_MTurk/v2_DepthDuration_HTML.html#56,56,1440,900,1440,900,8-22-2022,7-59-2,56,depth_duration_stimuli/000780_2014-06-08_22-28-29_260595134347_rgbf000126-resize_1/000780_2014-06-08_22-28-29_260595134347_rgbf000126-resize_1-target.png,1000,3.3825,5,4219,990,feet,jsons/v1_VE1000_randls_64_rotated.json,816139,1201254,25,Woman
56,954862,DepthScenes,duration_manipulation_targetAtFixation,jsons/v1_VE1000_randls_64_rotated.json,http://54.235.29.9/FacialAge/BNav_EC2/DepthDuration/v2_depth_duration_MTurk/v2_DepthDuration_HTML.html#56,56,1440,900,1440,900,8-22-2022,7-59-2,57,depth_duration_stimuli/002445_2014-06-28_20-32-16_260595134347_rgbf000029-resize_4/002445_2014-06-28_20-32-16_260595134347_rgbf000029-resize_4-target.png,1000,2.5315,2,4018,1052,feet,jsons/v1_VE1000_randls_64_rotated.json,816139,1201254,25,Woman
57,954862,DepthScenes,duration_manipulation_targetAtFixation,jsons/v1_VE1000_randls_64_rotated.json,http://54.235.29.9/FacialAge/BNav_EC2/DepthDuration/v2_depth_duration_MTurk/v2_DepthDuration_HTML.html#56,56,1440,900,1440,900,8-22-2022,7-59-2,58,depth_duration_stimuli/001392_2014-06-19_16-07-59_260595134347_rgbf000046-resize_1/001392_2014-06-19_16-07-59_260595134347_rgbf000046-resize_1-target.png,1000,4.135,2,4204,1000,feet,jsons/v1_VE1000_randls_64_rotated.json,816139,1201254,25,Woman
58,954862,DepthScenes,duration_manipulation_targetAtFixation,jsons/v1_VE1000_randls_64_rotated.json,http://54.235.29.9/FacialAge/BNav_EC2/DepthDuration/v2_depth_duration_MTurk/v2_DepthDuration_HTML.html#56,56,1440,900,1440,900,8-22-2022,7-59-2,59,depth_duration_stimuli/001570_2014-06-20_17-21-09_260595134347_rgbf000135-resize_4/001570_2014-06-20_17-21-09_260595134347_rgbf000135-resize_4-target.png,1000,4.467,5,4234,1006,feet,jsons/v1_VE1000_randls_64_rotated.json,816139,1201254,25,Woman
59,954862,DepthScenes,duration_manipulation_targetAtFixation,jsons/v1_VE1000_randls_64_rotated.json,http://54.235.29.9/FacialAge/BNav_EC2/DepthDuration/v2_depth_duration_MTurk/v2_DepthDuration_HTML.html#56,56,1440,900,1440,900,8-22-2022,7-59-2,60,depth_duration_stimuli/001100_2014-06-15_17-46-26_260595134347_rgbf000225-resize_2/001100_2014-06-15_17-46-26_260595134347_rgbf000225-resize_2-target.png,1000,2.24,2,3735,994,feet,jsons/v1_VE1000_randls_64_rotated.json,816139,1201254,25,Woman
60,954862,DepthScenes,duration_manipulation_targetAtFixation,jsons/v1_VE1000_randls_64_rotated.json,http://54.235.29.9/FacialAge/BNav_EC2/DepthDuration/v2_depth_duration_MTurk/v2_DepthDuration_HTML.html#56,56,1440,900,1440,900,8-22-2022,7-59-2,61,depth_duration_stimuli/002784_2014-06-22_19-26-30_094959634447_rgbf000083-resize_3/002784_2014-06-22_19-26-30_094959634447_rgbf000083-resize_3-target.png,1000,1.8046666666667,2,4264,990,feet,jsons/v1_VE1000_randls_64_rotated.json,816139,1201254,25,Woman
61,954862,DepthScenes,duration_manipulation_targetAtFixation,jsons/v1_VE1000_randls_64_rotated.json,http://54.235.29.9/FacialAge/BNav_EC2/DepthDuration/v2_depth_duration_MTurk/v2_DepthDuration_HTML.html#56,56,1440,900,1440,900,8-22-2022,7-59-2,62,depth_duration_stimuli/002344_2014-06-28_20-06-29_260595134347_rgbf000030-resize_1/002344_2014-06-28_20-06-29_260595134347_rgbf000030-resize_1-target.png,1000,1.5795,3,4124,998,feet,jsons/v1_VE1000_randls_64_rotated.json,816139,1201254,25,Woman
62,954862,DepthScenes,duration_manipulation_targetAtFixation,jsons/v1_VE1000_randls_64_rotated.json,http://54.235.29.9/FacialAge/BNav_EC2/DepthDuration/v2_depth_duration_MTurk/v2_DepthDuration_HTML.html#56,56,1440,900,1440,900,8-22-2022,7-59-2,63,depth_duration_stimuli/002725_2014-06-22_11-47-51_094959634447_rgbf000070-resize_1/002725_2014-06-22_11-47-51_094959634447_rgbf000070-resize_1-target.png,1000,2.195,4,4692,1038,feet,jsons/v1_VE1000_randls_64_rotated.json,816139,1201254,25,Woman
63,954862,DepthScenes,duration_manipulation_targetAtFixation,jsons/v1_VE1000_randls_64_rotated.json,http://54.235.29.9/FacialAge/BNav_EC2/DepthDuration/v2_depth_duration_MTurk/v2_DepthDuration_HTML.html#56,56,1440,900,1440,900,8-22-2022,7-59-2,64,depth_duration_stimuli/002678_2014-06-13_16-15-32_094959634447_rgbf000151-resize_6/002678_2014-06-13_16-15-32_094959634447_rgbf000151-resize_6-target.png,1000,2.1830000000000003,4,3908,1007,feet,jsons/v1_VE1000_randls_64_rotated.json,816139,1201254,25,Woman
64,954862,DepthScenes,duration_manipulation_targetAtFixation,jsons/v1_VE1000_randls_64_rotated.json,http://54.235.29.9/FacialAge/BNav_EC2/DepthDuration/v2_depth_duration_MTurk/v2_DepthDuration_HTML.html#56,56,1440,900,1440,900,8-22-2022,7-59-2,65,depth_duration_stimuli/000368_2014-06-09_15-53-01_260595134347_rgbf000155-resize_2/000368_2014-06-09_15-53-01_260595134347_rgbf000155-resize_2-target.png,1000,2.4859999999999998,3,3807,985,feet,jsons/v1_VE1000_randls_64_rotated.json,816139,1201254,25,Woman
65,954862,DepthScenes,duration_manipulation_targetAtFixation,jsons/v1_VE1000_randls_64_rotated.json,http://54.235.29.9/FacialAge/BNav_EC2/DepthDuration/v2_depth_duration_MTurk/v2_DepthDuration_HTML.html#56,56,1440,900,1440,900,8-22-2022,7-59-2,66,depth_duration_stimuli/001540_2014-06-20_17-01-05_260595134347_rgbf000086-resize_2/001540_2014-06-20_17-01-05_260595134347_rgbf000086-resize-original.jpg,1000,1.459,0,3745,998,feet,jsons/v1_VE1000_randls_64_rotated.json,816139,1201254,25,Woman
66,954862,DepthScenes,duration_manipulation_targetAtFixation,jsons/v1_VE1000_randls_64_rotated.json,http://54.235.29.9/FacialAge/BNav_EC2/DepthDuration/v2_depth_duration_MTurk/v2_DepthDuration_HTML.html#56,56,1440,900,1440,900,8-22-2022,7-59-2,67,depth_duration_stimuli/003083_2014-06-15_15-21-03_094959634447_rgbf000063-resize_1/003083_2014-06-15_15-21-03_094959634447_rgbf000063-resize_1-target.png,1000,4.1405,4,4963,1000,feet,jsons/v1_VE1000_randls_64_rotated.json,816139,1201254,25,Woman
67,954862,DepthScenes,duration_manipulation_targetAtFixation,jsons/v1_VE1000_randls_64_rotated.json,http://54.235.29.9/FacialAge/BNav_EC2/DepthDuration/v2_depth_duration_MTurk/v2_DepthDuration_HTML.html#56,56,1440,900,1440,900,8-22-2022,7-59-2,68,depth_duration_stimuli/000486_2014-06-09_20-47-20_260595134347_rgbf000143-resize_2/000486_2014-06-09_20-47-20_260595134347_rgbf000143-resize_2-target.png,1000,4.8325,4,4436,987,feet,jsons/v1_VE1000_randls_64_rotated.json,816139,1201254,25,Woman
68,954862,DepthScenes,duration_manipulation_targetAtFixation,jsons/v1_VE1000_randls_64_rotated.json,http://54.235.29.9/FacialAge/BNav_EC2/DepthDuration/v2_depth_duration_MTurk/v2_DepthDuration_HTML.html#56,56,1440,900,1440,900,8-22-2022,7-59-2,69,depth_duration_stimuli/000409_2014-06-04_19-23-33_260595134347_rgbf000067-resize_0/000409_2014-06-04_19-23-33_260595134347_rgbf000067-resize_0-target.png,1000,3.7335,5,4559,1008,feet,jsons/v1_VE1000_randls_64_rotated.json,816139,1201254,25,Woman
69,954862,DepthScenes,duration_manipulation_targetAtFixation,jsons/v1_VE1000_randls_64_rotated.json,http://54.235.29.9/FacialAge/BNav_EC2/DepthDuration/v2_depth_duration_MTurk/v2_DepthDuration_HTML.html#56,56,1440,900,1440,900,8-22-2022,7-59-2,70,depth_duration_stimuli/002663_2014-06-13_15-50-26_094959634447_rgbf000075-resize_1/002663_2014-06-13_15-50-26_094959634447_rgbf000075-resize_1-target.png,1000,4.7495,4,3955,946,feet,jsons/v1_VE1000_randls_64_rotated.json,816139,1201254,25,Woman
70,954862,DepthScenes,duration_manipulation_targetAtFixation,jsons/v1_VE1000_randls_64_rotated.json,http://54.235.29.9/FacialAge/BNav_EC2/DepthDuration/v2_depth_duration_MTurk/v2_DepthDuration_HTML.html#56,56,1440,900,1440,900,8-22-2022,7-59-2,71,depth_duration_stimuli/000691_2014-06-08_13-08-50_260595134347_rgbf000132-resize_3/000691_2014-06-08_13-08-50_260595134347_rgbf000132-resize_3-target.png,1000,4.1530000000000005,5,4151,999,feet,jsons/v1_VE1000_randls_64_rotated.json,816139,1201254,25,Woman
71,954862,DepthScenes,duration_manipulation_targetAtFixation,jsons/v1_VE1000_randls_64_rotated.json,http://54.235.29.9/FacialAge/BNav_EC2/DepthDuration/v2_depth_duration_MTurk/v2_DepthDuration_HTML.html#56,56,1440,900,1440,900,8-22-2022,7-59-2,72,depth_duration_stimuli/002213_2014-06-28_18-37-58_260595134347_rgbf000055-resize_1/002213_2014-06-28_18-37-58_260595134347_rgbf000055-resize_1-target.png,1000,3.62,4,4157,986,feet,jsons/v1_VE1000_randls_64_rotated.json,816139,1201254,25,Woman
72,954862,DepthScenes,duration_manipulation_targetAtFixation,jsons/v1_VE1000_randls_64_rotated.json,http://54.235.29.9/FacialAge/BNav_EC2/DepthDuration/v2_depth_duration_MTurk/v2_DepthDuration_HTML.html#56,56,1440,900,1440,900,8-22-2022,7-59-2,73,depth_duration_stimuli/001235_2014-06-17_16-37-36_260595134347_rgbf000084-resize_4/001235_2014-06-17_16-37-36_260595134347_rgbf000084-resize_4-target.png,1000,3.6605,3,4036,999,feet,jsons/v1_VE1000_randls_64_rotated.json,816139,1201254,25,Woman
73,954862,DepthScenes,duration_manipulation_targetAtFixation,jsons/v1_VE1000_randls_64_rotated.json,http://54.235.29.9/FacialAge/BNav_EC2/DepthDuration/v2_depth_duration_MTurk/v2_DepthDuration_HTML.html#56,56,1440,900,1440,900,8-22-2022,7-59-2,74,depth_duration_stimuli/000788_2014-06-08_22-34-36_260595134347_rgbf000131-resize_1/000788_2014-06-08_22-34-36_260595134347_rgbf000131-resize_1-target.png,1000,3.359,2,4013,1002,feet,jsons/v1_VE1000_randls_64_rotated.json,816139,1201254,25,Woman
74,954862,DepthScenes,duration_manipulation_targetAtFixation,jsons/v1_VE1000_randls_64_rotated.json,http://54.235.29.9/FacialAge/BNav_EC2/DepthDuration/v2_depth_duration_MTurk/v2_DepthDuration_HTML.html#56,56,1440,900,1440,900,8-22-2022,7-59-2,75,depth_duration_stimuli/002660_2014-06-13_15-44-18_094959634447_rgbf001878-resize_2/002660_2014-06-13_15-44-18_094959634447_rgbf001878-resize_2-target.png,1000,3.576,3,3704,999,feet,jsons/v1_VE1000_randls_64_rotated.json,816139,1201254,25,Woman
75,954862,DepthScenes,duration_manipulation_targetAtFixation,jsons/v1_VE1000_randls_64_rotated.json,http://54.235.29.9/FacialAge/BNav_EC2/DepthDuration/v2_depth_duration_MTurk/v2_DepthDuration_HTML.html#56,56,1440,900,1440,900,8-22-2022,7-59-2,76,depth_duration_stimuli/002153_2014-06-25_21-27-18_260595134347_rgbf000038-resize_5/002153_2014-06-25_21-27-18_260595134347_rgbf000038-resize_5-target.png,1000,2.505,3,4285,983,feet,jsons/v1_VE1000_randls_64_rotated.json,816139,1201254,25,Woman
76,954862,DepthScenes,duration_manipulation_targetAtFixation,jsons/v1_VE1000_randls_64_rotated.json,http://54.235.29.9/FacialAge/BNav_EC2/DepthDuration/v2_depth_duration_MTurk/v2_DepthDuration_HTML.html#56,56,1440,900,1440,900,8-22-2022,7-59-2,77,depth_duration_stimuli/001650_2014-06-20_12-09-00_260595134347_rgbf000087-resize_3/001650_2014-06-20_12-09-00_260595134347_rgbf000087-resize_3-target.png,1000,1.9505,4,4128,1015,feet,jsons/v1_VE1000_randls_64_rotated.json,816139,1201254,25,Woman
77,954862,DepthScenes,duration_manipulation_targetAtFixation,jsons/v1_VE1000_randls_64_rotated.json,http://54.235.29.9/FacialAge/BNav_EC2/DepthDuration/v2_depth_duration_MTurk/v2_DepthDuration_HTML.html#56,56,1440,900,1440,900,8-22-2022,7-59-2,78,depth_duration_stimuli/000682_2014-06-08_23-14-58_260595134347_rgbf000041-resize_5/000682_2014-06-08_23-14-58_260595134347_rgbf000041-resize_5-target.png,1000,2.7239999999999998,3,3919,998,feet,jsons/v1_VE1000_randls_64_rotated.json,816139,1201254,25,Woman
78,954862,DepthScenes,duration_manipulation_targetAtFixation,jsons/v1_VE1000_randls_64_rotated.json,http://54.235.29.9/FacialAge/BNav_EC2/DepthDuration/v2_depth_duration_MTurk/v2_DepthDuration_HTML.html#56,56,1440,900,1440,900,8-22-2022,7-59-2,79,depth_duration_stimuli/002467_2014-06-28_20-38-07_260595134347_rgbf000026-resize_2/002467_2014-06-28_20-38-07_260595134347_rgbf000026-resize_2-target.png,1000,4.742,2,4221,994,feet,jsons/v1_VE1000_randls_64_rotated.json,816139,1201254,25,Woman
79,954862,DepthScenes,duration_manipulation_targetAtFixation,jsons/v1_VE1000_randls_64_rotated.json,http://54.235.29.9/FacialAge/BNav_EC2/DepthDuration/v2_depth_duration_MTurk/v2_DepthDuration_HTML.html#56,56,1440,900,1440,900,8-22-2022,7-59-2,80,depth_duration_stimuli/002570_2014-06-24_13-59-54_094959634447_rgbf000059-resize_0/002570_2014-06-24_13-59-54_094959634447_rgbf000059-resize_0-target.png,1000,4.037,4,4135,998,feet,jsons/v1_VE1000_randls_64_rotated.json,816139,1201254,25,Woman
80,954862,DepthScenes,duration_manipulation_targetAtFixation,jsons/v1_VE1000_randls_64_rotated.json,http://54.235.29.9/FacialAge/BNav_EC2/DepthDuration/v2_depth_duration_MTurk/v2_DepthDuration_HTML.html#56,56,1440,900,1440,900,8-22-2022,7-59-2,81,depth_duration_stimuli/001094_2014-06-15_17-36-00_260595134347_rgbf000205-resize_0/001094_2014-06-15_17-36-00_260595134347_rgbf000205-resize_0-target.png,1000,4.2175,3,4198,997,feet,jsons/v1_VE1000_randls_64_rotated.json,816139,1201254,25,Woman
81,954862,DepthScenes,duration_manipulation_targetAtFixation,jsons/v1_VE1000_randls_64_rotated.json,http://54.235.29.9/FacialAge/BNav_EC2/DepthDuration/v2_depth_duration_MTurk/v2_DepthDuration_HTML.html#56,56,1440,900,1440,900,8-22-2022,7-59-2,82,depth_duration_stimuli/000692_2014-06-08_13-09-42_260595134347_rgbf000199-resize_2/000692_2014-06-08_13-09-42_260595134347_rgbf000199-resize_2-target.png,1000,3.661,3,4897,1005,feet,jsons/v1_VE1000_randls_64_rotated.json,816139,1201254,25,Woman
82,954862,DepthScenes,duration_manipulation_targetAtFixation,jsons/v1_VE1000_randls_64_rotated.json,http://54.235.29.9/FacialAge/BNav_EC2/DepthDuration/v2_depth_duration_MTurk/v2_DepthDuration_HTML.html#56,56,1440,900,1440,900,8-22-2022,7-59-2,83,depth_duration_stimuli/002545_2014-06-24_13-38-53_094959634447_rgbf000080-resize_4/002545_2014-06-24_13-38-53_094959634447_rgbf000080-resize_4-target.png,1000,1.9205,2,3896,997,feet,jsons/v1_VE1000_randls_64_rotated.json,816139,1201254,25,Woman
83,954862,DepthScenes,duration_manipulation_targetAtFixation,jsons/v1_VE1000_randls_64_rotated.json,http://54.235.29.9/FacialAge/BNav_EC2/DepthDuration/v2_depth_duration_MTurk/v2_DepthDuration_HTML.html#56,56,1440,900,1440,900,8-22-2022,7-59-2,84,depth_duration_stimuli/001092_2014-06-15_17-34-58_260595134347_rgbf000171-resize_3/001092_2014-06-15_17-34-58_260595134347_rgbf000171-resize_3-target.png,1000,2.6935,2,3951,1001,feet,jsons/v1_VE1000_randls_64_rotated.json,816139,1201254,25,Woman
84,954862,DepthScenes,duration_manipulation_targetAtFixation,jsons/v1_VE1000_randls_64_rotated.json,http://54.235.29.9/FacialAge/BNav_EC2/DepthDuration/v2_depth_duration_MTurk/v2_DepthDuration_HTML.html#56,56,1440,900,1440,900,8-22-2022,7-59-2,85,depth_duration_stimuli/001214_2014-06-17_16-13-55_260595134347_rgbf000111-resize_0/001214_2014-06-17_16-13-55_260595134347_rgbf000111-resize_0-target.png,1000,2.6505,2,4107,986,feet,jsons/v1_VE1000_randls_64_rotated.json,816139,1201254,25,Woman
85,954862,DepthScenes,duration_manipulation_targetAtFixation,jsons/v1_VE1000_randls_64_rotated.json,http://54.235.29.9/FacialAge/BNav_EC2/DepthDuration/v2_depth_duration_MTurk/v2_DepthDuration_HTML.html#56,56,1440,900,1440,900,8-22-2022,7-59-2,86,depth_duration_stimuli/000810_2014-06-08_17-20-01_260595134347_rgbf000105-resize_0/000810_2014-06-08_17-20-01_260595134347_rgbf000105-resize_0-target.png,1000,1.4865,2,3812,1050,feet,jsons/v1_VE1000_randls_64_rotated.json,816139,1201254,25,Woman
86,954862,DepthScenes,duration_manipulation_targetAtFixation,jsons/v1_VE1000_randls_64_rotated.json,http://54.235.29.9/FacialAge/BNav_EC2/DepthDuration/v2_depth_duration_MTurk/v2_DepthDuration_HTML.html#56,56,1440,900,1440,900,8-22-2022,7-59-2,87,depth_duration_stimuli/001136_2014-06-17_15-19-41_260595134347_rgbf000076-resize_3/001136_2014-06-17_15-19-41_260595134347_rgbf000076-resize_3-target.png,1000,1.8655,2,5406,1008,feet,jsons/v1_VE1000_randls_64_rotated.json,816139,1201254,25,Woman
87,954862,DepthScenes,duration_manipulation_targetAtFixation,jsons/v1_VE1000_randls_64_rotated.json,http://54.235.29.9/FacialAge/BNav_EC2/DepthDuration/v2_depth_duration_MTurk/v2_DepthDuration_HTML.html#56,56,1440,900,1440,900,8-22-2022,7-59-2,88,depth_duration_stimuli/001164_2014-06-17_15-35-46_260595134347_rgbf000085-resize_3/001164_2014-06-17_15-35-46_260595134347_rgbf000085-resize_3-target.png,1000,2.354,2,4249,1004,feet,jsons/v1_VE1000_randls_64_rotated.json,816139,1201254,25,Woman
88,954862,DepthScenes,duration_manipulation_targetAtFixation,jsons/v1_VE1000_randls_64_rotated.json,http://54.235.29.9/FacialAge/BNav_EC2/DepthDuration/v2_depth_duration_MTurk/v2_DepthDuration_HTML.html#56,56,1440,900,1440,900,8-22-2022,7-59-2,89,depth_duration_stimuli/000549_2014-06-08_22-10-24_260595134347_rgbf000247-resize_3/000549_2014-06-08_22-10-24_260595134347_rgbf000247-resize_3-target.png,1000,1.841,1,3934,976,feet,jsons/v1_VE1000_randls_64_rotated.json,816139,1201254,25,Woman
89,954862,DepthScenes,duration_manipulation_targetAtFixation,jsons/v1_VE1000_randls_64_rotated.json,http://54.235.29.9/FacialAge/BNav_EC2/DepthDuration/v2_depth_duration_MTurk/v2_DepthDuration_HTML.html#56,56,1440,900,1440,900,8-22-2022,7-59-2,90,depth_duration_stimuli/001055_2014-06-08_18-45-35_260595134347_rgbf000111-resize_4/001055_2014-06-08_18-45-35_260595134347_rgbf000111-resize_4-target.png,1000,2.4290000000000003,3,5056,994,feet,jsons/v1_VE1000_randls_64_rotated.json,816139,1201254,25,Woman
90,954862,DepthScenes,duration_manipulation_targetAtFixation,jsons/v1_VE1000_randls_64_rotated.json,http://54.235.29.9/FacialAge/BNav_EC2/DepthDuration/v2_depth_duration_MTurk/v2_DepthDuration_HTML.html#56,56,1440,900,1440,900,8-22-2022,7-59-2,91,depth_duration_stimuli/000742_2014-06-08_18-48-09_260595134347_rgbf000164-resize_4/000742_2014-06-08_18-48-09_260595134347_rgbf000164-resize_4-target.png,1000,4.632,4,4082,982,feet,jsons/v1_VE1000_randls_64_rotated.json,816139,1201254,25,Woman
91,954862,DepthScenes,duration_manipulation_targetAtFixation,jsons/v1_VE1000_randls_64_rotated.json,http://54.235.29.9/FacialAge/BNav_EC2/DepthDuration/v2_depth_duration_MTurk/v2_DepthDuration_HTML.html#56,56,1440,900,1440,900,8-22-2022,7-59-2,92,depth_duration_stimuli/001066_2014-06-08_22-03-20_260595134347_rgbf000066-resize_4/001066_2014-06-08_22-03-20_260595134347_rgbf000066-resize_4-target.png,1000,4.2330000000000005,5,4026,984,feet,jsons/v1_VE1000_randls_64_rotated.json,816139,1201254,25,Woman
92,954862,DepthScenes,duration_manipulation_targetAtFixation,jsons/v1_VE1000_randls_64_rotated.json,http://54.235.29.9/FacialAge/BNav_EC2/DepthDuration/v2_depth_duration_MTurk/v2_DepthDuration_HTML.html#56,56,1440,900,1440,900,8-22-2022,7-59-2,93,depth_duration_stimuli/000137_2014-05-20_17-04-49_260595134347_rgbf000120-resize_1/000137_2014-05-20_17-04-49_260595134347_rgbf000120-resize_1-target.png,1000,3.786,4,3914,988,feet,jsons/v1_VE1000_randls_64_rotated.json,816139,1201254,25,Woman
93,954862,DepthScenes,duration_manipulation_targetAtFixation,jsons/v1_VE1000_randls_64_rotated.json,http://54.235.29.9/FacialAge/BNav_EC2/DepthDuration/v2_depth_duration_MTurk/v2_DepthDuration_HTML.html#56,56,1440,900,1440,900,8-22-2022,7-59-2,94,depth_duration_stimuli/000736_2014-06-08_18-24-15_260595134347_rgbf000206-resize_3/000736_2014-06-08_18-24-15_260595134347_rgbf000206-resize_3-target.png,1000,3.515,3,4206,989,feet,jsons/v1_VE1000_randls_64_rotated.json,816139,1201254,25,Woman
94,954862,DepthScenes,duration_manipulation_targetAtFixation,jsons/v1_VE1000_randls_64_rotated.json,http://54.235.29.9/FacialAge/BNav_EC2/DepthDuration/v2_depth_duration_MTurk/v2_DepthDuration_HTML.html#56,56,1440,900,1440,900,8-22-2022,7-59-2,95,depth_duration_stimuli/000734_2014-06-08_17-39-11_260595134347_rgbf000128-resize_2/000734_2014-06-08_17-39-11_260595134347_rgbf000128-resize_2-target.png,1000,4.098,2,4064,998,feet,jsons/v1_VE1000_randls_64_rotated.json,816139,1201254,25,Woman
95,954862,DepthScenes,duration_manipulation_targetAtFixation,jsons/v1_VE1000_randls_64_rotated.json,http://54.235.29.9/FacialAge/BNav_EC2/DepthDuration/v2_depth_duration_MTurk/v2_DepthDuration_HTML.html#56,56,1440,900,1440,900,8-22-2022,7-59-2,96,depth_duration_stimuli/000739_2014-06-08_18-45-58_260595134347_rgbf000068-resize_1/000739_2014-06-08_18-45-58_260595134347_rgbf000068-resize_1-target.png,1000,3.534,2,4046,994,feet,jsons/v1_VE1000_randls_64_rotated.json,816139,1201254,25,Woman
96,954862,DepthScenes,duration_manipulation_targetAtFixation,jsons/v1_VE1000_randls_64_rotated.json,http://54.235.29.9/FacialAge/BNav_EC2/DepthDuration/v2_depth_duration_MTurk/v2_DepthDuration_HTML.html#56,56,1440,900,1440,900,8-22-2022,7-59-2,97,depth_duration_stimuli/003010_2014-06-15_12-54-35_094959634447_rgbf000112-resize_0/003010_2014-06-15_12-54-35_094959634447_rgbf000112-resize_0-target.png,1000,3.1185,3,3668,988,feet,jsons/v1_VE1000_randls_64_rotated.json,816139,1201254,25,Woman
97,954862,DepthScenes,duration_manipulation_targetAtFixation,jsons/v1_VE1000_randls_64_rotated.json,http://54.235.29.9/FacialAge/BNav_EC2/DepthDuration/v2_depth_duration_MTurk/v2_DepthDuration_HTML.html#56,56,1440,900,1440,900,8-22-2022,7-59-2,98,depth_duration_stimuli/001810_2014-06-26_20-51-35_260595134347_rgbf000040-resize_3/001810_2014-06-26_20-51-35_260595134347_rgbf000040-resize_3-target.png,1000,2.2525,3,3807,1010,feet,jsons/v1_VE1000_randls_64_rotated.json,816139,1201254,25,Woman
98,954862,DepthScenes,duration_manipulation_targetAtFixation,jsons/v1_VE1000_randls_64_rotated.json,http://54.235.29.9/FacialAge/BNav_EC2/DepthDuration/v2_depth_duration_MTurk/v2_DepthDuration_HTML.html#56,56,1440,900,1440,900,8-22-2022,7-59-2,99,depth_duration_stimuli/001222_2014-06-17_16-24-06_260595134347_rgbf000073-resize_0/001222_2014-06-17_16-24-06_260595134347_rgbf000073-resize-original.jpg,1000,1.4385,0,3600,904,feet,jsons/v1_VE1000_randls_64_rotated.json,816139,1201254,25,Woman
99,954862,DepthScenes,duration_manipulation_targetAtFixation,jsons/v1_VE1000_randls_64_rotated.json,http://54.235.29.9/FacialAge/BNav_EC2/DepthDuration/v2_depth_duration_MTurk/v2_DepthDuration_HTML.html#56,56,1440,900,1440,900,8-22-2022,7-59-2,100,depth_duration_stimuli/001584_2014-06-20_11-07-43_260595134347_rgbf000002-resize_1/001584_2014-06-20_11-07-43_260595134347_rgbf000002-resize_1-target.png,1000,3.53,3,3602,1004,feet,jsons/v1_VE1000_randls_64_rotated.json,816139,1201254,25,Woman
100,954862,DepthScenes,duration_manipulation_targetAtFixation,jsons/v1_VE1000_randls_64_rotated.json,http://54.235.29.9/FacialAge/BNav_EC2/DepthDuration/v2_depth_duration_MTurk/v2_DepthDuration_HTML.html#56,56,1440,900,1440,900,8-22-2022,7-59-2,101,depth_duration_stimuli/003621_2014-05-23_18-06-08_094959634447_rgbf000101-resize_1/003621_2014-05-23_18-06-08_094959634447_rgbf000101-resize_1-target.png,1000,3.9835,5,4234,987,feet,jsons/v1_VE1000_randls_64_rotated.json,816139,1201254,25,Woman
101,954862,DepthScenes,duration_manipulation_targetAtFixation,jsons/v1_VE1000_randls_64_rotated.json,http://54.235.29.9/FacialAge/BNav_EC2/DepthDuration/v2_depth_duration_MTurk/v2_DepthDuration_HTML.html#56,56,1440,900,1440,900,8-22-2022,7-59-2,102,depth_duration_stimuli/000109_2014-05-14_23-41-52_260595134347_rgbf000035-resize_9/000109_2014-05-14_23-41-52_260595134347_rgbf000035-resize_9-target.png,1000,1.3545,1,3824,1003,feet,jsons/v1_VE1000_randls_64_rotated.json,816139,1201254,25,Woman
102,954862,DepthScenes,duration_manipulation_targetAtFixation,jsons/v1_VE1000_randls_64_rotated.json,http://54.235.29.9/FacialAge/BNav_EC2/DepthDuration/v2_depth_duration_MTurk/v2_DepthDuration_HTML.html#56,56,1440,900,1440,900,8-22-2022,7-59-2,103,depth_duration_stimuli/000470_2014-06-09_19-42-40_260595134347_rgbf000094-resize_1/000470_2014-06-09_19-42-40_260595134347_rgbf000094-resize_1-target.png,1000,1.831,2,3671,1001,feet,jsons/v1_VE1000_randls_64_rotated.json,816139,1201254,25,Woman
103,954862,DepthScenes,duration_manipulation_targetAtFixation,jsons/v1_VE1000_randls_64_rotated.json,http://54.235.29.9/FacialAge/BNav_EC2/DepthDuration/v2_depth_duration_MTurk/v2_DepthDuration_HTML.html#56,56,1440,900,1440,900,8-22-2022,7-59-2,104,depth_duration_stimuli/003048_2014-06-15_13-49-43_094959634447_rgbf000150-resize_1/003048_2014-06-15_13-49-43_094959634447_rgbf000150-resize_1-target.png,1000,4.0035,4,5085,985,feet,jsons/v1_VE1000_randls_64_rotated.json,816139,1201254,25,Woman
104,954862,DepthScenes,duration_manipulation_targetAtFixation,jsons/v1_VE1000_randls_64_rotated.json,http://54.235.29.9/FacialAge/BNav_EC2/DepthDuration/v2_depth_duration_MTurk/v2_DepthDuration_HTML.html#56,56,1440,900,1440,900,8-22-2022,7-59-2,105,depth_duration_stimuli/002043_2014-06-24_20-29-38_260595134347_rgbf000039-resize_4/002043_2014-06-24_20-29-38_260595134347_rgbf000039-resize_4-target.png,1000,2.8435,2,3896,998,feet,jsons/v1_VE1000_randls_64_rotated.json,816139,1201254,25,Woman
105,954862,DepthScenes,duration_manipulation_targetAtFixation,jsons/v1_VE1000_randls_64_rotated.json,http://54.235.29.9/FacialAge/BNav_EC2/DepthDuration/v2_depth_duration_MTurk/v2_DepthDuration_HTML.html#56,56,1440,900,1440,900,8-22-2022,7-59-2,106,depth_duration_stimuli/002209_2014-06-28_18-36-10_260595134347_rgbf000051-resize_1/002209_2014-06-28_18-36-10_260595134347_rgbf000051-resize_1-target.png,1000,2.057,2,7206,999,feet,jsons/v1_VE1000_randls_64_rotated.json,816139,1201254,25,Woman
106,954862,DepthScenes,duration_manipulation_targetAtFixation,jsons/v1_VE1000_randls_64_rotated.json,http://54.235.29.9/FacialAge/BNav_EC2/DepthDuration/v2_depth_duration_MTurk/v2_DepthDuration_HTML.html#56,56,1440,900,1440,900,8-22-2022,7-59-2,107,depth_duration_stimuli/002763_2014-06-22_19-13-10_094959634447_rgbf000075-resize_4/002763_2014-06-22_19-13-10_094959634447_rgbf000075-resize_4-target.png,1000,1.68375,2,3986,992,feet,jsons/v1_VE1000_randls_64_rotated.json,816139,1201254,25,Woman
107,954862,DepthScenes,duration_manipulation_targetAtFixation,jsons/v1_VE1000_randls_64_rotated.json,http://54.235.29.9/FacialAge/BNav_EC2/DepthDuration/v2_depth_duration_MTurk/v2_DepthDuration_HTML.html#56,56,1440,900,1440,900,8-22-2022,7-59-2,108,depth_duration_stimuli/003587_2014-05-23_16-48-02_094959634447_rgbf002384-resize_2/003587_2014-05-23_16-48-02_094959634447_rgbf002384-resize_2-target.png,1000,1.357,1,4501,1013,feet,jsons/v1_VE1000_randls_64_rotated.json,816139,1201254,25,Woman
108,954862,DepthScenes,duration_manipulation_targetAtFixation,jsons/v1_VE1000_randls_64_rotated.json,http://54.235.29.9/FacialAge/BNav_EC2/DepthDuration/v2_depth_duration_MTurk/v2_DepthDuration_HTML.html#56,56,1440,900,1440,900,8-22-2022,7-59-2,109,depth_duration_stimuli/001167_2014-06-17_15-38-07_260595134347_rgbf000108-resize_0/001167_2014-06-17_15-38-07_260595134347_rgbf000108-resize_0-target.png,1000,1.8505,3,8375,988,feet,jsons/v1_VE1000_randls_64_rotated.json,816139,1201254,25,Woman
109,954862,DepthScenes,duration_manipulation_targetAtFixation,jsons/v1_VE1000_randls_64_rotated.json,http://54.235.29.9/FacialAge/BNav_EC2/DepthDuration/v2_depth_duration_MTurk/v2_DepthDuration_HTML.html#56,56,1440,900,1440,900,8-22-2022,7-59-2,110,depth_duration_stimuli/000502_2014-06-08_23-02-32_260595134347_rgbf000063-resize_4/000502_2014-06-08_23-02-32_260595134347_rgbf000063-resize_4-target.png,1000,2.431,3,4604,998,feet,jsons/v1_VE1000_randls_64_rotated.json,816139,1201254,25,Woman
110,954862,DepthScenes,duration_manipulation_targetAtFixation,jsons/v1_VE1000_randls_64_rotated.json,http://54.235.29.9/FacialAge/BNav_EC2/DepthDuration/v2_depth_duration_MTurk/v2_DepthDuration_HTML.html#56,56,1440,900,1440,900,8-22-2022,7-59-2,111,depth_duration_stimuli/001199_2014-06-17_16-03-48_260595134347_rgbf000077-resize_0/001199_2014-06-17_16-03-48_260595134347_rgbf000077-resize_0-target.png,1000,3.4375,3,3845,977,feet,jsons/v1_VE1000_randls_64_rotated.json,816139,1201254,25,Woman
111,954862,DepthScenes,duration_manipulation_targetAtFixation,jsons/v1_VE1000_randls_64_rotated.json,http://54.235.29.9/FacialAge/BNav_EC2/DepthDuration/v2_depth_duration_MTurk/v2_DepthDuration_HTML.html#56,56,1440,900,1440,900,8-22-2022,7-59-2,112,depth_duration_stimuli/000103_2014-05-14_22-01-17_260595134347_rgbf000152-resize_5/000103_2014-05-14_22-01-17_260595134347_rgbf000152-resize_5-target.png,1000,1.993,4,3768,1000,feet,jsons/v1_VE1000_randls_64_rotated.json,816139,1201254,25,Woman
112,954862,DepthScenes,duration_manipulation_targetAtFixation,jsons/v1_VE1000_randls_64_rotated.json,http://54.235.29.9/FacialAge/BNav_EC2/DepthDuration/v2_depth_duration_MTurk/v2_DepthDuration_HTML.html#56,56,1440,900,1440,900,8-22-2022,7-59-2,113,depth_duration_stimuli/001555_2014-06-20_17-12-10_260595134347_rgbf000065-resize_4/001555_2014-06-20_17-12-10_260595134347_rgbf000065-resize_4-target.png,1000,1.633,2,4103,972,feet,jsons/v1_VE1000_randls_64_rotated.json,816139,1201254,25,Woman
113,954862,DepthScenes,duration_manipulation_targetAtFixation,jsons/v1_VE1000_randls_64_rotated.json,http://54.235.29.9/FacialAge/BNav_EC2/DepthDuration/v2_depth_duration_MTurk/v2_DepthDuration_HTML.html#56,56,1440,900,1440,900,8-22-2022,7-59-2,114,depth_duration_stimuli/002340_2014-06-28_20-05-46_260595134347_rgbf000113-resize_0/002340_2014-06-28_20-05-46_260595134347_rgbf000113-resize_0-target.png,1000,2.4735,2,5683,1003,feet,jsons/v1_VE1000_randls_64_rotated.json,816139,1201254,25,Woman
114,954862,DepthScenes,duration_manipulation_targetAtFixation,jsons/v1_VE1000_randls_64_rotated.json,http://54.235.29.9/FacialAge/BNav_EC2/DepthDuration/v2_depth_duration_MTurk/v2_DepthDuration_HTML.html#56,56,1440,900,1440,900,8-22-2022,7-59-2,115,depth_duration_stimuli/001016_2014-06-09_16-16-10_260595134347_rgbf000112-resize_5/001016_2014-06-09_16-16-10_260595134347_rgbf000112-resize_5-target.png,1000,1.6565,2,4023,1001,feet,jsons/v1_VE1000_randls_64_rotated.json,816139,1201254,25,Woman
115,954862,DepthScenes,duration_manipulation_targetAtFixation,jsons/v1_VE1000_randls_64_rotated.json,http://54.235.29.9/FacialAge/BNav_EC2/DepthDuration/v2_depth_duration_MTurk/v2_DepthDuration_HTML.html#56,56,1440,900,1440,900,8-22-2022,7-59-2,116,depth_duration_stimuli/001571_2014-06-20_17-21-32_260595134347_rgbf000089-resize_1/001571_2014-06-20_17-21-32_260595134347_rgbf000089-resize_1-target.png,1000,1.86,3,3673,930,feet,jsons/v1_VE1000_randls_64_rotated.json,816139,1201254,25,Woman
116,954862,DepthScenes,duration_manipulation_targetAtFixation,jsons/v1_VE1000_randls_64_rotated.json,http://54.235.29.9/FacialAge/BNav_EC2/DepthDuration/v2_depth_duration_MTurk/v2_DepthDuration_HTML.html#56,56,1440,900,1440,900,8-22-2022,7-59-2,117,depth_duration_stimuli/002272_2014-06-28_18-53-56_260595134347_rgbf000067-resize_2/002272_2014-06-28_18-53-56_260595134347_rgbf000067-resize_2-target.png,1000,1.138,1,4094,1003,feet,jsons/v1_VE1000_randls_64_rotated.json,816139,1201254,25,Woman
117,954862,DepthScenes,duration_manipulation_targetAtFixation,jsons/v1_VE1000_randls_64_rotated.json,http://54.235.29.9/FacialAge/BNav_EC2/DepthDuration/v2_depth_duration_MTurk/v2_DepthDuration_HTML.html#56,56,1440,900,1440,900,8-22-2022,7-59-2,118,depth_duration_stimuli/003081_2014-06-15_15-19-16_094959634447_rgbf000150-resize_1/003081_2014-06-15_15-19-16_094959634447_rgbf000150-resize_1-target.png,1000,3.9125,3,3787,1001,feet,jsons/v1_VE1000_randls_64_rotated.json,816139,1201254,25,Woman
118,954862,DepthScenes,duration_manipulation_targetAtFixation,jsons/v1_VE1000_randls_64_rotated.json,http://54.235.29.9/FacialAge/BNav_EC2/DepthDuration/v2_depth_duration_MTurk/v2_DepthDuration_HTML.html#56,56,1440,900,1440,900,8-22-2022,7-59-2,119,depth_duration_stimuli/001417_2014-06-19_16-25-36_260595134347_rgbf000115-resize_5/001417_2014-06-19_16-25-36_260595134347_rgbf000115-resize_5-target.png,1000,4.6255,2,4421,1001,feet,jsons/v1_VE1000_randls_64_rotated.json,816139,1201254,25,Woman
119,954862,DepthScenes,duration_manipulation_targetAtFixation,jsons/v1_VE1000_randls_64_rotated.json,http://54.235.29.9/FacialAge/BNav_EC2/DepthDuration/v2_depth_duration_MTurk/v2_DepthDuration_HTML.html#56,56,1440,900,1440,900,8-22-2022,7-59-2,120,depth_duration_stimuli/000787_2014-06-08_22-33-53_260595134347_rgbf000175-resize_1/000787_2014-06-08_22-33-53_260595134347_rgbf000175-resize-original.jpg,1000,4.784,0,3742,995,feet,jsons/v1_VE1000_randls_64_rotated.json,816139,1201254,25,Woman
120,954862,DepthScenes,duration_manipulation_targetAtFixation,jsons/v1_VE1000_randls_64_rotated.json,http://54.235.29.9/FacialAge/BNav_EC2/DepthDuration/v2_depth_duration_MTurk/v2_DepthDuration_HTML.html#56,56,1440,900,1440,900,8-22-2022,7-59-2,121,depth_duration_stimuli/002995_2014-06-15_12-31-26_094959634447_rgbf000150-resize_1/002995_2014-06-15_12-31-26_094959634447_rgbf000150-resize_1-target.png,1000,3.8360000000000003,0,3953,999,feet,jsons/v1_VE1000_randls_64_rotated.json,816139,1201254,25,Woman
121,954862,DepthScenes,duration_manipulation_targetAtFixation,jsons/v1_VE1000_randls_64_rotated.json,http://54.235.29.9/FacialAge/BNav_EC2/DepthDuration/v2_depth_duration_MTurk/v2_DepthDuration_HTML.html#56,56,1440,900,1440,900,8-22-2022,7-59-2,122,depth_duration_stimuli/002748_2014-06-22_19-07-22_094959634447_rgbf000078-resize_1/002748_2014-06-22_19-07-22_094959634447_rgbf000078-resize_1-target.png,1000,4.6705,2,5199,1000,feet,jsons/v1_VE1000_randls_64_rotated.json,816139,1201254,25,Woman
122,954862,DepthScenes,duration_manipulation_targetAtFixation,jsons/v1_VE1000_randls_64_rotated.json,http://54.235.29.9/FacialAge/BNav_EC2/DepthDuration/v2_depth_duration_MTurk/v2_DepthDuration_HTML.html#56,56,1440,900,1440,900,8-22-2022,7-59-2,123,depth_duration_stimuli/000677_2014-06-08_23-10-32_260595134347_rgbf000158-resize_6/000677_2014-06-08_23-10-32_260595134347_rgbf000158-resize_6-target.png,1000,3.556,3,4123,995,feet,jsons/v1_VE1000_randls_64_rotated.json,816139,1201254,25,Woman
123,954862,DepthScenes,duration_manipulation_targetAtFixation,jsons/v1_VE1000_randls_64_rotated.json,http://54.235.29.9/FacialAge/BNav_EC2/DepthDuration/v2_depth_duration_MTurk/v2_DepthDuration_HTML.html#56,56,1440,900,1440,900,8-22-2022,7-59-2,124,depth_duration_stimuli/001029_2014-06-08_13-17-57_260595134347_rgbf000065-resize_1/001029_2014-06-08_13-17-57_260595134347_rgbf000065-resize_1-target.png,1000,3.0835,4,4128,995,feet,jsons/v1_VE1000_randls_64_rotated.json,816139,1201254,25,Woman
124,954862,DepthScenes,duration_manipulation_targetAtFixation,jsons/v1_VE1000_randls_64_rotated.json,http://54.235.29.9/FacialAge/BNav_EC2/DepthDuration/v2_depth_duration_MTurk/v2_DepthDuration_HTML.html#56,56,1440,900,1440,900,8-22-2022,7-59-2,125,depth_duration_stimuli/002568_2014-06-24_13-59-21_094959634447_rgbf000062-resize_4/002568_2014-06-24_13-59-21_094959634447_rgbf000062-resize_4-target.png,1000,3.015,4,4244,995,feet,jsons/v1_VE1000_randls_64_rotated.json,816139,1201254,25,Woman
125,954862,DepthScenes,duration_manipulation_targetAtFixation,jsons/v1_VE1000_randls_64_rotated.json,http://54.235.29.9/FacialAge/BNav_EC2/DepthDuration/v2_depth_duration_MTurk/v2_DepthDuration_HTML.html#56,56,1440,900,1440,900,8-22-2022,7-59-2,126,depth_duration_stimuli/003492_2014-05-21_15-50-55_094959634447_rgbf000828-resize_1/003492_2014-05-21_15-50-55_094959634447_rgbf000828-resize_1-target.png,1000,4.06875,3,3875,1004,feet,jsons/v1_VE1000_randls_64_rotated.json,816139,1201254,25,Woman
126,954862,DepthScenes,duration_manipulation_targetAtFixation,jsons/v1_VE1000_randls_64_rotated.json,http://54.235.29.9/FacialAge/BNav_EC2/DepthDuration/v2_depth_duration_MTurk/v2_DepthDuration_HTML.html#56,56,1440,900,1440,900,8-22-2022,7-59-2,127,depth_duration_stimuli/001815_2014-06-26_20-52-55_260595134347_rgbf000020-resize_0/001815_2014-06-26_20-52-55_260595134347_rgbf000020-resize_0-target.png,1000,3.3865,4,3717,991,feet,jsons/v1_VE1000_randls_64_rotated.json,816139,1201254,25,Woman
127,954862,DepthScenes,duration_manipulation_targetAtFixation,jsons/v1_VE1000_randls_64_rotated.json,http://54.235.29.9/FacialAge/BNav_EC2/DepthDuration/v2_depth_duration_MTurk/v2_DepthDuration_HTML.html#56,56,1440,900,1440,900,8-22-2022,7-59-2,128,depth_duration_stimuli/001808_2014-06-26_20-50-58_260595134347_rgbf000029-resize_1/001808_2014-06-26_20-50-58_260595134347_rgbf000029-resize_1-target.png,1000,4.249,3,4245,998,feet,jsons/v1_VE1000_randls_64_rotated.json,816139,1201254,25,Woman
128,954862,DepthScenes,duration_manipulation_targetAtFixation,jsons/v1_VE1000_randls_64_rotated.json,http://54.235.29.9/FacialAge/BNav_EC2/DepthDuration/v2_depth_duration_MTurk/v2_DepthDuration_HTML.html#56,56,1440,900,1440,900,8-22-2022,7-59-2,129,depth_duration_stimuli/000191_2014-05-12_17-07-38_260595134347_rgbf000199-resize_0/000191_2014-05-12_17-07-38_260595134347_rgbf000199-resize_0-target.png,1000,3.7995,5,4253,993,feet,jsons/v1_VE1000_randls_64_rotated.json,816139,1201254,25,Woman
129,954862,DepthScenes,duration_manipulation_targetAtFixation,jsons/v1_VE1000_randls_64_rotated.json,http://54.235.29.9/FacialAge/BNav_EC2/DepthDuration/v2_depth_duration_MTurk/v2_DepthDuration_HTML.html#56,56,1440,900,1440,900,8-22-2022,7-59-2,130,depth_duration_stimuli/000493_2014-06-09_21-01-18_260595134347_rgbf000196-resize_3/000493_2014-06-09_21-01-18_260595134347_rgbf000196-resize_3-target.png,1000,3.44,3,3924,1004,feet,jsons/v1_VE1000_randls_64_rotated.json,816139,1201254,25,Woman
130,954862,DepthScenes,duration_manipulation_targetAtFixation,jsons/v1_VE1000_randls_64_rotated.json,http://54.235.29.9/FacialAge/BNav_EC2/DepthDuration/v2_depth_duration_MTurk/v2_DepthDuration_HTML.html#56,56,1440,900,1440,900,8-22-2022,7-59-2,131,depth_duration_stimuli/002953_2014-06-08_17-32-18_094959634447_rgbf000059-resize_5/002953_2014-06-08_17-32-18_094959634447_rgbf000059-resize_5-target.png,1000,1.551,3,3978,985,feet,jsons/v1_VE1000_randls_64_rotated.json,816139,1201254,25,Woman
131,954862,DepthScenes,duration_manipulation_targetAtFixation,jsons/v1_VE1000_randls_64_rotated.json,http://54.235.29.9/FacialAge/BNav_EC2/DepthDuration/v2_depth_duration_MTurk/v2_DepthDuration_HTML.html#56,56,1440,900,1440,900,8-22-2022,7-59-2,132,depth_duration_stimuli/000878_2014-06-08_22-52-45_260595134347_rgbf000045-resize_2/000878_2014-06-08_22-52-45_260595134347_rgbf000045-resize_2-target.png,1000,2.092,3,3922,1007,feet,jsons/v1_VE1000_randls_64_rotated.json,816139,1201254,25,Woman
132,954862,DepthScenes,duration_manipulation_targetAtFixation,jsons/v1_VE1000_randls_64_rotated.json,http://54.235.29.9/FacialAge/BNav_EC2/DepthDuration/v2_depth_duration_MTurk/v2_DepthDuration_HTML.html#56,56,1440,900,1440,900,8-22-2022,7-59-2,133,depth_duration_stimuli/000457_2014-06-08_16-52-43_260595134347_rgbf000199-resize_1/000457_2014-06-08_16-52-43_260595134347_rgbf000199-resize_1-target.png,1000,3.6489999999999996,3,4169,1003,feet,jsons/v1_VE1000_randls_64_rotated.json,816139,1201254,25,Woman
133,954862,DepthScenes,duration_manipulation_targetAtFixation,jsons/v1_VE1000_randls_64_rotated.json,http://54.235.29.9/FacialAge/BNav_EC2/DepthDuration/v2_depth_duration_MTurk/v2_DepthDuration_HTML.html#56,56,1440,900,1440,900,8-22-2022,7-59-2,134,depth_duration_stimuli/000929_2014-06-09_16-33-19_260595134347_rgbf000139-resize_0/000929_2014-06-09_16-33-19_260595134347_rgbf000139-resize_0-target.png,1000,2.8680000000000003,3,3889,999,feet,jsons/v1_VE1000_randls_64_rotated.json,816139,1201254,25,Woman
134,954862,DepthScenes,duration_manipulation_targetAtFixation,jsons/v1_VE1000_randls_64_rotated.json,http://54.235.29.9/FacialAge/BNav_EC2/DepthDuration/v2_depth_duration_MTurk/v2_DepthDuration_HTML.html#56,56,1440,900,1440,900,8-22-2022,7-59-2,135,depth_duration_stimuli/000375_2014-06-08_11-17-29_260595134347_rgbf000133-resize_2/000375_2014-06-08_11-17-29_260595134347_rgbf000133-resize-original.jpg,1000,4.718,0,6066,997,feet,jsons/v1_VE1000_randls_64_rotated.json,816139,1201254,25,Woman
135,954862,DepthScenes,duration_manipulation_targetAtFixation,jsons/v1_VE1000_randls_64_rotated.json,http://54.235.29.9/FacialAge/BNav_EC2/DepthDuration/v2_depth_duration_MTurk/v2_DepthDuration_HTML.html#56,56,1440,900,1440,900,8-22-2022,7-59-2,136,depth_duration_stimuli/000943_2014-06-09_19-31-07_260595134347_rgbf000128-resize_1/000943_2014-06-09_19-31-07_260595134347_rgbf000128-resize_1-target.png,1000,1.9765,2,4015,1001,feet,jsons/v1_VE1000_randls_64_rotated.json,816139,1201254,25,Woman
136,954862,DepthScenes,duration_manipulation_targetAtFixation,jsons/v1_VE1000_randls_64_rotated.json,http://54.235.29.9/FacialAge/BNav_EC2/DepthDuration/v2_depth_duration_MTurk/v2_DepthDuration_HTML.html#56,56,1440,900,1440,900,8-22-2022,7-59-2,137,depth_duration_stimuli/003070_2014-06-15_14-58-27_094959634447_rgbf000150-resize_3/003070_2014-06-15_14-58-27_094959634447_rgbf000150-resize_3-target.png,1000,2.9415,4,4425,999,feet,jsons/v1_VE1000_randls_64_rotated.json,816139,1201254,25,Woman
137,954862,DepthScenes,duration_manipulation_targetAtFixation,jsons/v1_VE1000_randls_64_rotated.json,http://54.235.29.9/FacialAge/BNav_EC2/DepthDuration/v2_depth_duration_MTurk/v2_DepthDuration_HTML.html#56,56,1440,900,1440,900,8-22-2022,7-59-2,138,depth_duration_stimuli/002425_2014-06-28_20-27-29_260595134347_rgbf000031-resize_8/002425_2014-06-28_20-27-29_260595134347_rgbf000031-resize_8-target.png,1000,3.8960000000000004,4,4178,1011,feet,jsons/v1_VE1000_randls_64_rotated.json,816139,1201254,25,Woman
138,954862,DepthScenes,duration_manipulation_targetAtFixation,jsons/v1_VE1000_randls_64_rotated.json,http://54.235.29.9/FacialAge/BNav_EC2/DepthDuration/v2_depth_duration_MTurk/v2_DepthDuration_HTML.html#56,56,1440,900,1440,900,8-22-2022,7-59-2,139,depth_duration_stimuli/000642_2014-06-08_16-59-25_260595134347_rgbf000098-resize_2/000642_2014-06-08_16-59-25_260595134347_rgbf000098-resize_2-target.png,1000,2.8815,3,3875,997,feet,jsons/v1_VE1000_randls_64_rotated.json,816139,1201254,25,Woman
139,954862,DepthScenes,duration_manipulation_targetAtFixation,jsons/v1_VE1000_randls_64_rotated.json,http://54.235.29.9/FacialAge/BNav_EC2/DepthDuration/v2_depth_duration_MTurk/v2_DepthDuration_HTML.html#56,56,1440,900,1440,900,8-22-2022,7-59-2,140,depth_duration_stimuli/003338_2014-05-20_11-01-23_094959634447_rgbf000051-resize_6/003338_2014-05-20_11-01-23_094959634447_rgbf000051-resize_6-target.png,1000,1.693,2,4023,1005,feet,jsons/v1_VE1000_randls_64_rotated.json,816139,1201254,25,Woman
140,954862,DepthScenes,duration_manipulation_targetAtFixation,jsons/v1_VE1000_randls_64_rotated.json,http://54.235.29.9/FacialAge/BNav_EC2/DepthDuration/v2_depth_duration_MTurk/v2_DepthDuration_HTML.html#56,56,1440,900,1440,900,8-22-2022,7-59-2,141,depth_duration_stimuli/002509_2014-06-24_13-19-22_094959634447_rgbf000077-resize_0/002509_2014-06-24_13-19-22_094959634447_rgbf000077-resize_0-target.png,1000,1.3065,2,3517,1010,feet,jsons/v1_VE1000_randls_64_rotated.json,816139,1201254,25,Woman
141,954862,DepthScenes,duration_manipulation_targetAtFixation,jsons/v1_VE1000_randls_64_rotated.json,http://54.235.29.9/FacialAge/BNav_EC2/DepthDuration/v2_depth_duration_MTurk/v2_DepthDuration_HTML.html#56,56,1440,900,1440,900,8-22-2022,7-59-2,142,depth_duration_stimuli/002199_2014-06-28_18-33-56_260595134347_rgbf000074-resize_0/002199_2014-06-28_18-33-56_260595134347_rgbf000074-resize_0-target.png,1000,1.996,1,3665,988,feet,jsons/v1_VE1000_randls_64_rotated.json,816139,1201254,25,Woman
142,954862,DepthScenes,duration_manipulation_targetAtFixation,jsons/v1_VE1000_randls_64_rotated.json,http://54.235.29.9/FacialAge/BNav_EC2/DepthDuration/v2_depth_duration_MTurk/v2_DepthDuration_HTML.html#56,56,1440,900,1440,900,8-22-2022,7-59-2,143,depth_duration_stimuli/001056_2014-06-08_18-46-44_260595134347_rgbf000068-resize_0/001056_2014-06-08_18-46-44_260595134347_rgbf000068-resize_0-target.png,1000,2.6625,2,3667,995,feet,jsons/v1_VE1000_randls_64_rotated.json,816139,1201254,25,Woman
143,954862,DepthScenes,duration_manipulation_targetAtFixation,jsons/v1_VE1000_randls_64_rotated.json,http://54.235.29.9/FacialAge/BNav_EC2/DepthDuration/v2_depth_duration_MTurk/v2_DepthDuration_HTML.html#56,56,1440,900,1440,900,8-22-2022,7-59-2,144,depth_duration_stimuli/003495_2014-05-21_16-01-51_094959634447_rgbf000100-resize_3/003495_2014-05-21_16-01-51_094959634447_rgbf000100-resize_3-target.png,1000,1.6255,2,3844,994,feet,jsons/v1_VE1000_randls_64_rotated.json,816139,1201254,25,Woman
144,954862,DepthScenes,duration_manipulation_targetAtFixation,jsons/v1_VE1000_randls_64_rotated.json,http://54.235.29.9/FacialAge/BNav_EC2/DepthDuration/v2_depth_duration_MTurk/v2_DepthDuration_HTML.html#56,56,1440,900,1440,900,8-22-2022,7-59-2,145,depth_duration_stimuli/001244_2014-06-17_16-47-45_260595134347_rgbf000030-resize_4/001244_2014-06-17_16-47-45_260595134347_rgbf000030-resize_4-target.png,1000,2.0425,2,3821,987,feet,jsons/v1_VE1000_randls_64_rotated.json,816139,1201254,25,Woman
145,954862,DepthScenes,duration_manipulation_targetAtFixation,jsons/v1_VE1000_randls_64_rotated.json,http://54.235.29.9/FacialAge/BNav_EC2/DepthDuration/v2_depth_duration_MTurk/v2_DepthDuration_HTML.html#56,56,1440,900,1440,900,8-22-2022,7-59-2,146,depth_duration_stimuli/002103_2014-06-25_20-00-40_260595134347_rgbf000049-resize_0/002103_2014-06-25_20-00-40_260595134347_rgbf000049-resize_0-target.png,1000,4.105,3,4690,998,feet,jsons/v1_VE1000_randls_64_rotated.json,816139,1201254,25,Woman
146,954862,DepthScenes,duration_manipulation_targetAtFixation,jsons/v1_VE1000_randls_64_rotated.json,http://54.235.29.9/FacialAge/BNav_EC2/DepthDuration/v2_depth_duration_MTurk/v2_DepthDuration_HTML.html#56,56,1440,900,1440,900,8-22-2022,7-59-2,147,depth_duration_stimuli/002039_2014-06-24_20-22-38_260595134347_rgbf000084-resize_1/002039_2014-06-24_20-22-38_260595134347_rgbf000084-resize_1-target.png,1000,4.408,5,3755,994,feet,jsons/v1_VE1000_randls_64_rotated.json,816139,1201254,25,Woman
147,954862,DepthScenes,duration_manipulation_targetAtFixation,jsons/v1_VE1000_randls_64_rotated.json,http://54.235.29.9/FacialAge/BNav_EC2/DepthDuration/v2_depth_duration_MTurk/v2_DepthDuration_HTML.html#56,56,1440,900,1440,900,8-22-2022,7-59-2,148,depth_duration_stimuli/000866_2014-06-09_20-45-42_260595134347_rgbf000139-resize_1/000866_2014-06-09_20-45-42_260595134347_rgbf000139-resize_1-target.png,1000,3.2155,2,3876,1000,feet,jsons/v1_VE1000_randls_64_rotated.json,816139,1201254,25,Woman
148,954862,DepthScenes,duration_manipulation_targetAtFixation,jsons/v1_VE1000_randls_64_rotated.json,http://54.235.29.9/FacialAge/BNav_EC2/DepthDuration/v2_depth_duration_MTurk/v2_DepthDuration_HTML.html#56,56,1440,900,1440,900,8-22-2022,7-59-2,149,depth_duration_stimuli/002989_2014-06-15_12-25-03_094959634447_rgbf000150-resize_3/002989_2014-06-15_12-25-03_094959634447_rgbf000150-resize_3-target.png,1000,4.1975,4,4318,1003,feet,jsons/v1_VE1000_randls_64_rotated.json,816139,1201254,25,Woman
149,954862,DepthScenes,duration_manipulation_targetAtFixation,jsons/v1_VE1000_randls_64_rotated.json,http://54.235.29.9/FacialAge/BNav_EC2/DepthDuration/v2_depth_duration_MTurk/v2_DepthDuration_HTML.html#56,56,1440,900,1440,900,8-22-2022,7-59-2,150,depth_duration_stimuli/000749_2014-06-08_21-55-06_260595134347_rgbf000070-resize_2/000749_2014-06-08_21-55-06_260595134347_rgbf000070-resize_2-target.png,1000,2.331,4,3963,944,feet,jsons/v1_VE1000_randls_64_rotated.json,816139,1201254,25,Woman
150,954862,DepthScenes,duration_manipulation_targetAtFixation,jsons/v1_VE1000_randls_64_rotated.json,http://54.235.29.9/FacialAge/BNav_EC2/DepthDuration/v2_depth_duration_MTurk/v2_DepthDuration_HTML.html#56,56,1440,900,1440,900,8-22-2022,7-59-2,151,depth_duration_stimuli/002788_2014-06-22_19-36-03_094959634447_rgbf000088-resize_2/002788_2014-06-22_19-36-03_094959634447_rgbf000088-resize_2-target.png,1000,1.6465,2,4611,1001,feet,jsons/v1_VE1000_randls_64_rotated.json,816139,1201254,25,Woman
151,954862,DepthScenes,duration_manipulation_targetAtFixation,jsons/v1_VE1000_randls_64_rotated.json,http://54.235.29.9/FacialAge/BNav_EC2/DepthDuration/v2_depth_duration_MTurk/v2_DepthDuration_HTML.html#56,56,1440,900,1440,900,8-22-2022,7-59-2,152,depth_duration_stimuli/000569_2014-06-09_22-51-47_260595134347_rgbf000141-resize_3/000569_2014-06-09_22-51-47_260595134347_rgbf000141-resize-original.jpg,1000,4.512,0,3916,999,feet,jsons/v1_VE1000_randls_64_rotated.json,816139,1201254,25,Woman
152,954862,DepthScenes,duration_manipulation_targetAtFixation,jsons/v1_VE1000_randls_64_rotated.json,http://54.235.29.9/FacialAge/BNav_EC2/DepthDuration/v2_depth_duration_MTurk/v2_DepthDuration_HTML.html#56,56,1440,900,1440,900,8-22-2022,7-59-2,153,depth_duration_stimuli/000854_2014-06-09_19-43-13_260595134347_rgbf000066-resize_0/000854_2014-06-09_19-43-13_260595134347_rgbf000066-resize_0-target.png,1000,3.068,2,4958,1014,feet,jsons/v1_VE1000_randls_64_rotated.json,816139,1201254,25,Woman
153,954862,DepthScenes,duration_manipulation_targetAtFixation,jsons/v1_VE1000_randls_64_rotated.json,http://54.235.29.9/FacialAge/BNav_EC2/DepthDuration/v2_depth_duration_MTurk/v2_DepthDuration_HTML.html#56,56,1440,900,1440,900,8-22-2022,7-59-2,154,depth_duration_stimuli/000758_2014-06-08_22-05-08_260595134347_rgbf000085-resize_0/000758_2014-06-08_22-05-08_260595134347_rgbf000085-resize_0-target.png,1000,3.3810000000000002,2,3905,1002,feet,jsons/v1_VE1000_randls_64_rotated.json,816139,1201254,25,Woman
154,954862,DepthScenes,duration_manipulation_targetAtFixation,jsons/v1_VE1000_randls_64_rotated.json,http://54.235.29.9/FacialAge/BNav_EC2/DepthDuration/v2_depth_duration_MTurk/v2_DepthDuration_HTML.html#56,56,1440,900,1440,900,8-22-2022,7-59-2,155,depth_duration_stimuli/003079_2014-06-15_15-18-20_094959634447_rgbf000152-resize_8/003079_2014-06-15_15-18-20_094959634447_rgbf000152-resize_8-target.png,1000,2.8775,3,3890,1009,feet,jsons/v1_VE1000_randls_64_rotated.json,816139,1201254,25,Woman
155,954862,DepthScenes,duration_manipulation_targetAtFixation,jsons/v1_VE1000_randls_64_rotated.json,http://54.235.29.9/FacialAge/BNav_EC2/DepthDuration/v2_depth_duration_MTurk/v2_DepthDuration_HTML.html#56,56,1440,900,1440,900,8-22-2022,7-59-2,156,depth_duration_stimuli/000506_2014-06-08_23-21-00_260595134347_rgbf000070-resize_7/000506_2014-06-08_23-21-00_260595134347_rgbf000070-resize_7-target.png,1000,4.0585,4,7632,1006,feet,jsons/v1_VE1000_randls_64_rotated.json,816139,1201254,25,Woman
156,954862,DepthScenes,duration_manipulation_targetAtFixation,jsons/v1_VE1000_randls_64_rotated.json,http://54.235.29.9/FacialAge/BNav_EC2/DepthDuration/v2_depth_duration_MTurk/v2_DepthDuration_HTML.html#56,56,1440,900,1440,900,8-22-2022,7-59-2,157,depth_duration_stimuli/000635_2014-06-08_16-38-42_260595134347_rgbf000106-resize_1/000635_2014-06-08_16-38-42_260595134347_rgbf000106-resize_1-target.png,1000,2.074,2,9579,1001,feet,jsons/v1_VE1000_randls_64_rotated.json,816139,1201254,25,Woman
157,954862,DepthScenes,duration_manipulation_targetAtFixation,jsons/v1_VE1000_randls_64_rotated.json,http://54.235.29.9/FacialAge/BNav_EC2/DepthDuration/v2_depth_duration_MTurk/v2_DepthDuration_HTML.html#56,56,1440,900,1440,900,8-22-2022,7-59-2,158,depth_duration_stimuli/002279_2014-06-28_18-55-32_260595134347_rgbf000040-resize_5/002279_2014-06-28_18-55-32_260595134347_rgbf000040-resize_5-target.png,1000,1.5043333333333,3,3694,992,feet,jsons/v1_VE1000_randls_64_rotated.json,816139,1201254,25,Woman
158,954862,DepthScenes,duration_manipulation_targetAtFixation,jsons/v1_VE1000_randls_64_rotated.json,http://54.235.29.9/FacialAge/BNav_EC2/DepthDuration/v2_depth_duration_MTurk/v2_DepthDuration_HTML.html#56,56,1440,900,1440,900,8-22-2022,7-59-2,159,depth_duration_stimuli/002323_2014-06-28_20-01-54_260595134347_rgbf000051-resize_4/002323_2014-06-28_20-01-54_260595134347_rgbf000051-resize_4-target.png,1000,3.7310000000000003,4,3744,1000,feet,jsons/v1_VE1000_randls_64_rotated.json,816139,1201254,25,Woman
159,954862,DepthScenes,duration_manipulation_targetAtFixation,jsons/v1_VE1000_randls_64_rotated.json,http://54.235.29.9/FacialAge/BNav_EC2/DepthDuration/v2_depth_duration_MTurk/v2_DepthDuration_HTML.html#56,56,1440,900,1440,900,8-22-2022,7-59-2,160,depth_duration_stimuli/000917_2014-06-09_22-45-29_260595134347_rgbf000149-resize_3/000917_2014-06-09_22-45-29_260595134347_rgbf000149-resize_3-target.png,1000,4.1865,3,3654,994,feet,jsons/v1_VE1000_randls_64_rotated.json,816139,1201254,25,Woman
160,954862,DepthScenes,duration_manipulation_targetAtFixation,jsons/v1_VE1000_randls_64_rotated.json,http://54.235.29.9/FacialAge/BNav_EC2/DepthDuration/v2_depth_duration_MTurk/v2_DepthDuration_HTML.html#56,56,1440,900,1440,900,8-22-2022,7-59-2,161,depth_duration_stimuli/002136_2014-06-25_21-18-03_260595134347_rgbf000109-resize_3/002136_2014-06-25_21-18-03_260595134347_rgbf000109-resize_3-target.png,1000,1.9569999999999999,2,14615,994,feet,jsons/v1_VE1000_randls_64_rotated.json,816139,1201254,25,Woman
161,954862,DepthScenes,duration_manipulation_targetAtFixation,jsons/v1_VE1000_randls_64_rotated.json,http://54.235.29.9/FacialAge/BNav_EC2/DepthDuration/v2_depth_duration_MTurk/v2_DepthDuration_HTML.html#56,56,1440,900,1440,900,8-22-2022,7-59-2,162,depth_duration_stimuli/002964_2014-06-08_17-46-11_094959634447_rgbf000091-resize_4/002964_2014-06-08_17-46-11_094959634447_rgbf000091-resize_4-target.png,1000,1.6909999999999998,3,6159,1007,feet,jsons/v1_VE1000_randls_64_rotated.json,816139,1201254,25,Woman
162,954862,DepthScenes,duration_manipulation_targetAtFixation,jsons/v1_VE1000_randls_64_rotated.json,http://54.235.29.9/FacialAge/BNav_EC2/DepthDuration/v2_depth_duration_MTurk/v2_DepthDuration_HTML.html#56,56,1440,900,1440,900,8-22-2022,7-59-2,163,depth_duration_stimuli/001052_2014-06-08_18-24-54_260595134347_rgbf000130-resize_1/001052_2014-06-08_18-24-54_260595134347_rgbf000130-resize_1-target.png,1000,4.1045,3,4689,1000,feet,jsons/v1_VE1000_randls_64_rotated.json,816139,1201254,25,Woman
163,954862,DepthScenes,duration_manipulation_targetAtFixation,jsons/v1_VE1000_randls_64_rotated.json,http://54.235.29.9/FacialAge/BNav_EC2/DepthDuration/v2_depth_duration_MTurk/v2_DepthDuration_HTML.html#56,56,1440,900,1440,900,8-22-2022,7-59-2,164,depth_duration_stimuli/002988_2014-06-15_12-24-20_094959634447_rgbf000150-resize_1/002988_2014-06-15_12-24-20_094959634447_rgbf000150-resize_1-target.png,1000,4.7669999999999995,3,3843,996,feet,jsons/v1_VE1000_randls_64_rotated.json,816139,1201254,25,Woman
