,subjID,experimentName,versionName,sequenceName,url,selected_row,windowWidth,windowHeight,screenWidth,screenHeight,startDate,startTime,trial,stimulus,duration,actual_depth,depth_estimate,trial_RT,log_sceneDuration,unitSelection,seq_filepath,experimentTime,totalTime,age,gender
0,957163,DepthScenes,duration_manipulation_targetAtFixation,jsons/v1_VE1000_randls_29.json,http://54.235.29.9/FacialAge/BNav_EC2/DepthDuration/v2_depth_duration_MTurk/v2_DepthDuration_HTML.html#102,102,1680,1050,1680,1050,8-22-2022,2-1-55,1,depth_duration_stimuli/000486_2014-06-09_20-47-20_260595134347_rgbf000143-resize_2/000486_2014-06-09_20-47-20_260595134347_rgbf000143-resize_2-target.png,1000,4.8325,14,11829,999,feet,jsons/v1_VE1000_randls_29.json,1169314,1491514,67,Man
1,957163,DepthScenes,duration_manipulation_targetAtFixation,jsons/v1_VE1000_randls_29.json,http://54.235.29.9/FacialAge/BNav_EC2/DepthDuration/v2_depth_duration_MTurk/v2_DepthDuration_HTML.html#102,102,1680,1050,1680,1050,8-22-2022,2-1-55,2,depth_duration_stimuli/003083_2014-06-15_15-21-03_094959634447_rgbf000063-resize_1/003083_2014-06-15_15-21-03_094959634447_rgbf000063-resize_1-target.png,1000,4.1405,17,12863,998,feet,jsons/v1_VE1000_randls_29.json,1169314,1491514,67,Man
2,957163,DepthScenes,duration_manipulation_targetAtFixation,jsons/v1_VE1000_randls_29.json,http://54.235.29.9/FacialAge/BNav_EC2/DepthDuration/v2_depth_duration_MTurk/v2_DepthDuration_HTML.html#102,102,1680,1050,1680,1050,8-22-2022,2-1-55,3,depth_duration_stimuli/001158_2014-06-17_15-32-16_260595134347_rgbf000138-resize_2/001158_2014-06-17_15-32-16_260595134347_rgbf000138-resize_2-target.png,1000,4.5315,16,12772,997,feet,jsons/v1_VE1000_randls_29.json,1169314,1491514,67,Man
3,957163,DepthScenes,duration_manipulation_targetAtFixation,jsons/v1_VE1000_randls_29.json,http://54.235.29.9/FacialAge/BNav_EC2/DepthDuration/v2_depth_duration_MTurk/v2_DepthDuration_HTML.html#102,102,1680,1050,1680,1050,8-22-2022,2-1-55,4,depth_duration_stimuli/000556_2014-06-09_22-42-56_260595134347_rgbf000214-resize_1/000556_2014-06-09_22-42-56_260595134347_rgbf000214-resize_1-target.png,1000,4.8415,14,6960,1000,feet,jsons/v1_VE1000_randls_29.json,1169314,1491514,67,Man
4,957163,DepthScenes,duration_manipulation_targetAtFixation,jsons/v1_VE1000_randls_29.json,http://54.235.29.9/FacialAge/BNav_EC2/DepthDuration/v2_depth_duration_MTurk/v2_DepthDuration_HTML.html#102,102,1680,1050,1680,1050,8-22-2022,2-1-55,5,depth_duration_stimuli/003492_2014-05-21_15-50-55_094959634447_rgbf000828-resize_1/003492_2014-05-21_15-50-55_094959634447_rgbf000828-resize_1-target.png,1000,4.06875,17,12358,1001,feet,jsons/v1_VE1000_randls_29.json,1169314,1491514,67,Man
5,957163,DepthScenes,duration_manipulation_targetAtFixation,jsons/v1_VE1000_randls_29.json,http://54.235.29.9/FacialAge/BNav_EC2/DepthDuration/v2_depth_duration_MTurk/v2_DepthDuration_HTML.html#102,102,1680,1050,1680,1050,8-22-2022,2-1-55,6,depth_duration_stimuli/002568_2014-06-24_13-59-21_094959634447_rgbf000062-resize_4/002568_2014-06-24_13-59-21_094959634447_rgbf000062-resize_4-target.png,1000,3.015,10,7362,996,feet,jsons/v1_VE1000_randls_29.json,1169314,1491514,67,Man
6,957163,DepthScenes,duration_manipulation_targetAtFixation,jsons/v1_VE1000_randls_29.json,http://54.235.29.9/FacialAge/BNav_EC2/DepthDuration/v2_depth_duration_MTurk/v2_DepthDuration_HTML.html#102,102,1680,1050,1680,1050,8-22-2022,2-1-55,7,depth_duration_stimuli/001029_2014-06-08_13-17-57_260595134347_rgbf000065-resize_1/001029_2014-06-08_13-17-57_260595134347_rgbf000065-resize_1-target.png,1000,3.0835,12,5530,1000,feet,jsons/v1_VE1000_randls_29.json,1169314,1491514,67,Man
7,957163,DepthScenes,duration_manipulation_targetAtFixation,jsons/v1_VE1000_randls_29.json,http://54.235.29.9/FacialAge/BNav_EC2/DepthDuration/v2_depth_duration_MTurk/v2_DepthDuration_HTML.html#102,102,1680,1050,1680,1050,8-22-2022,2-1-55,8,depth_duration_stimuli/000677_2014-06-08_23-10-32_260595134347_rgbf000158-resize_6/000677_2014-06-08_23-10-32_260595134347_rgbf000158-resize_6-target.png,1000,3.556,12,9380,999,feet,jsons/v1_VE1000_randls_29.json,1169314,1491514,67,Man
8,957163,DepthScenes,duration_manipulation_targetAtFixation,jsons/v1_VE1000_randls_29.json,http://54.235.29.9/FacialAge/BNav_EC2/DepthDuration/v2_depth_duration_MTurk/v2_DepthDuration_HTML.html#102,102,1680,1050,1680,1050,8-22-2022,2-1-55,9,depth_duration_stimuli/000493_2014-06-09_21-01-18_260595134347_rgbf000196-resize_3/000493_2014-06-09_21-01-18_260595134347_rgbf000196-resize_3-target.png,1000,3.44,11,6965,985,feet,jsons/v1_VE1000_randls_29.json,1169314,1491514,67,Man
9,957163,DepthScenes,duration_manipulation_targetAtFixation,jsons/v1_VE1000_randls_29.json,http://54.235.29.9/FacialAge/BNav_EC2/DepthDuration/v2_depth_duration_MTurk/v2_DepthDuration_HTML.html#102,102,1680,1050,1680,1050,8-22-2022,2-1-55,10,depth_duration_stimuli/000191_2014-05-12_17-07-38_260595134347_rgbf000199-resize_0/000191_2014-05-12_17-07-38_260595134347_rgbf000199-resize_0-target.png,1000,3.7995,18,7744,998,feet,jsons/v1_VE1000_randls_29.json,1169314,1491514,67,Man
10,957163,DepthScenes,duration_manipulation_targetAtFixation,jsons/v1_VE1000_randls_29.json,http://54.235.29.9/FacialAge/BNav_EC2/DepthDuration/v2_depth_duration_MTurk/v2_DepthDuration_HTML.html#102,102,1680,1050,1680,1050,8-22-2022,2-1-55,11,depth_duration_stimuli/000368_2014-06-09_15-53-01_260595134347_rgbf000155-resize_2/000368_2014-06-09_15-53-01_260595134347_rgbf000155-resize_2-target.png,1000,2.4859999999999998,7,6892,1003,feet,jsons/v1_VE1000_randls_29.json,1169314,1491514,67,Man
11,957163,DepthScenes,duration_manipulation_targetAtFixation,jsons/v1_VE1000_randls_29.json,http://54.235.29.9/FacialAge/BNav_EC2/DepthDuration/v2_depth_duration_MTurk/v2_DepthDuration_HTML.html#102,102,1680,1050,1680,1050,8-22-2022,2-1-55,12,depth_duration_stimuli/002678_2014-06-13_16-15-32_094959634447_rgbf000151-resize_6/002678_2014-06-13_16-15-32_094959634447_rgbf000151-resize_6-target.png,1000,2.1830000000000003,20,8673,996,feet,jsons/v1_VE1000_randls_29.json,1169314,1491514,67,Man
12,957163,DepthScenes,duration_manipulation_targetAtFixation,jsons/v1_VE1000_randls_29.json,http://54.235.29.9/FacialAge/BNav_EC2/DepthDuration/v2_depth_duration_MTurk/v2_DepthDuration_HTML.html#102,102,1680,1050,1680,1050,8-22-2022,2-1-55,13,depth_duration_stimuli/000569_2014-06-09_22-51-47_260595134347_rgbf000141-resize_3/000569_2014-06-09_22-51-47_260595134347_rgbf000141-resize-original.jpg,1000,4.512,0,6061,1004,feet,jsons/v1_VE1000_randls_29.json,1169314,1491514,67,Man
13,957163,DepthScenes,duration_manipulation_targetAtFixation,jsons/v1_VE1000_randls_29.json,http://54.235.29.9/FacialAge/BNav_EC2/DepthDuration/v2_depth_duration_MTurk/v2_DepthDuration_HTML.html#102,102,1680,1050,1680,1050,8-22-2022,2-1-55,14,depth_duration_stimuli/002445_2014-06-28_20-32-16_260595134347_rgbf000029-resize_4/002445_2014-06-28_20-32-16_260595134347_rgbf000029-resize_4-target.png,1000,2.5315,8,10882,999,feet,jsons/v1_VE1000_randls_29.json,1169314,1491514,67,Man
14,957163,DepthScenes,duration_manipulation_targetAtFixation,jsons/v1_VE1000_randls_29.json,http://54.235.29.9/FacialAge/BNav_EC2/DepthDuration/v2_depth_duration_MTurk/v2_DepthDuration_HTML.html#102,102,1680,1050,1680,1050,8-22-2022,2-1-55,15,depth_duration_stimuli/000780_2014-06-08_22-28-29_260595134347_rgbf000126-resize_1/000780_2014-06-08_22-28-29_260595134347_rgbf000126-resize_1-target.png,1000,3.3825,18,7419,1000,feet,jsons/v1_VE1000_randls_29.json,1169314,1491514,67,Man
15,957163,DepthScenes,duration_manipulation_targetAtFixation,jsons/v1_VE1000_randls_29.json,http://54.235.29.9/FacialAge/BNav_EC2/DepthDuration/v2_depth_duration_MTurk/v2_DepthDuration_HTML.html#102,102,1680,1050,1680,1050,8-22-2022,2-1-55,16,depth_duration_stimuli/003621_2014-05-23_18-06-08_094959634447_rgbf000101-resize_1/003621_2014-05-23_18-06-08_094959634447_rgbf000101-resize_1-target.png,1000,3.9835,21,8415,1005,feet,jsons/v1_VE1000_randls_29.json,1169314,1491514,67,Man
16,957163,DepthScenes,duration_manipulation_targetAtFixation,jsons/v1_VE1000_randls_29.json,http://54.235.29.9/FacialAge/BNav_EC2/DepthDuration/v2_depth_duration_MTurk/v2_DepthDuration_HTML.html#102,102,1680,1050,1680,1050,8-22-2022,2-1-55,17,depth_duration_stimuli/001584_2014-06-20_11-07-43_260595134347_rgbf000002-resize_1/001584_2014-06-20_11-07-43_260595134347_rgbf000002-resize_1-target.png,1000,3.53,18,9264,1001,feet,jsons/v1_VE1000_randls_29.json,1169314,1491514,67,Man
17,957163,DepthScenes,duration_manipulation_targetAtFixation,jsons/v1_VE1000_randls_29.json,http://54.235.29.9/FacialAge/BNav_EC2/DepthDuration/v2_depth_duration_MTurk/v2_DepthDuration_HTML.html#102,102,1680,1050,1680,1050,8-22-2022,2-1-55,18,depth_duration_stimuli/003534_2014-05-22_15-06-10_094959634447_rgbf000102-resize_4/003534_2014-05-22_15-06-10_094959634447_rgbf000102-resize_4-target.png,1000,1.426,7,8889,1004,feet,jsons/v1_VE1000_randls_29.json,1169314,1491514,67,Man
18,957163,DepthScenes,duration_manipulation_targetAtFixation,jsons/v1_VE1000_randls_29.json,http://54.235.29.9/FacialAge/BNav_EC2/DepthDuration/v2_depth_duration_MTurk/v2_DepthDuration_HTML.html#102,102,1680,1050,1680,1050,8-22-2022,2-1-55,19,depth_duration_stimuli/002637_2014-06-24_14-51-13_094959634447_rgbf000066-resize_4/002637_2014-06-24_14-51-13_094959634447_rgbf000066-resize_4-target.png,1000,1.9955,8,7479,1002,feet,jsons/v1_VE1000_randls_29.json,1169314,1491514,67,Man
19,957163,DepthScenes,duration_manipulation_targetAtFixation,jsons/v1_VE1000_randls_29.json,http://54.235.29.9/FacialAge/BNav_EC2/DepthDuration/v2_depth_duration_MTurk/v2_DepthDuration_HTML.html#102,102,1680,1050,1680,1050,8-22-2022,2-1-55,20,depth_duration_stimuli/002549_2014-06-24_13-41-39_094959634447_rgbf000022-resize_3/002549_2014-06-24_13-41-39_094959634447_rgbf000022-resize_3-target.png,1000,1.476,5,7606,1000,feet,jsons/v1_VE1000_randls_29.json,1169314,1491514,67,Man
20,957163,DepthScenes,duration_manipulation_targetAtFixation,jsons/v1_VE1000_randls_29.json,http://54.235.29.9/FacialAge/BNav_EC2/DepthDuration/v2_depth_duration_MTurk/v2_DepthDuration_HTML.html#102,102,1680,1050,1680,1050,8-22-2022,2-1-55,21,depth_duration_stimuli/002750_2014-06-22_19-08-03_094959634447_rgbf000094-resize_4/002750_2014-06-22_19-08-03_094959634447_rgbf000094-resize_4-target.png,1000,2.354,10,7938,1001,feet,jsons/v1_VE1000_randls_29.json,1169314,1491514,67,Man
21,957163,DepthScenes,duration_manipulation_targetAtFixation,jsons/v1_VE1000_randls_29.json,http://54.235.29.9/FacialAge/BNav_EC2/DepthDuration/v2_depth_duration_MTurk/v2_DepthDuration_HTML.html#102,102,1680,1050,1680,1050,8-22-2022,2-1-55,22,depth_duration_stimuli/001175_2014-06-17_15-45-55_260595134347_rgbf000129-resize_4/001175_2014-06-17_15-45-55_260595134347_rgbf000129-resize_4-target.png,1000,4.255,20,6129,998,feet,jsons/v1_VE1000_randls_29.json,1169314,1491514,67,Man
22,957163,DepthScenes,duration_manipulation_targetAtFixation,jsons/v1_VE1000_randls_29.json,http://54.235.29.9/FacialAge/BNav_EC2/DepthDuration/v2_depth_duration_MTurk/v2_DepthDuration_HTML.html#102,102,1680,1050,1680,1050,8-22-2022,2-1-55,23,depth_duration_stimuli/003490_2014-05-21_15-50-11_094959634447_rgbf000101-resize_3/003490_2014-05-21_15-50-11_094959634447_rgbf000101-resize_3-target.png,1000,3.6445,14,6310,1005,feet,jsons/v1_VE1000_randls_29.json,1169314,1491514,67,Man
23,957163,DepthScenes,duration_manipulation_targetAtFixation,jsons/v1_VE1000_randls_29.json,http://54.235.29.9/FacialAge/BNav_EC2/DepthDuration/v2_depth_duration_MTurk/v2_DepthDuration_HTML.html#102,102,1680,1050,1680,1050,8-22-2022,2-1-55,24,depth_duration_stimuli/001164_2014-06-17_15-35-46_260595134347_rgbf000085-resize_3/001164_2014-06-17_15-35-46_260595134347_rgbf000085-resize_3-target.png,1000,2.354,10,5921,967,feet,jsons/v1_VE1000_randls_29.json,1169314,1491514,67,Man
24,957163,DepthScenes,duration_manipulation_targetAtFixation,jsons/v1_VE1000_randls_29.json,http://54.235.29.9/FacialAge/BNav_EC2/DepthDuration/v2_depth_duration_MTurk/v2_DepthDuration_HTML.html#102,102,1680,1050,1680,1050,8-22-2022,2-1-55,25,depth_duration_stimuli/001136_2014-06-17_15-19-41_260595134347_rgbf000076-resize_3/001136_2014-06-17_15-19-41_260595134347_rgbf000076-resize_3-target.png,1000,1.8655,12,8120,1002,feet,jsons/v1_VE1000_randls_29.json,1169314,1491514,67,Man
25,957163,DepthScenes,duration_manipulation_targetAtFixation,jsons/v1_VE1000_randls_29.json,http://54.235.29.9/FacialAge/BNav_EC2/DepthDuration/v2_depth_duration_MTurk/v2_DepthDuration_HTML.html#102,102,1680,1050,1680,1050,8-22-2022,2-1-55,26,depth_duration_stimuli/002213_2014-06-28_18-37-58_260595134347_rgbf000055-resize_1/002213_2014-06-28_18-37-58_260595134347_rgbf000055-resize_1-target.png,1000,3.62,15,7578,1000,feet,jsons/v1_VE1000_randls_29.json,1169314,1491514,67,Man
26,957163,DepthScenes,duration_manipulation_targetAtFixation,jsons/v1_VE1000_randls_29.json,http://54.235.29.9/FacialAge/BNav_EC2/DepthDuration/v2_depth_duration_MTurk/v2_DepthDuration_HTML.html#102,102,1680,1050,1680,1050,8-22-2022,2-1-55,27,depth_duration_stimuli/000691_2014-06-08_13-08-50_260595134347_rgbf000132-resize_3/000691_2014-06-08_13-08-50_260595134347_rgbf000132-resize_3-target.png,1000,4.1530000000000005,16,8055,1002,feet,jsons/v1_VE1000_randls_29.json,1169314,1491514,67,Man
27,957163,DepthScenes,duration_manipulation_targetAtFixation,jsons/v1_VE1000_randls_29.json,http://54.235.29.9/FacialAge/BNav_EC2/DepthDuration/v2_depth_duration_MTurk/v2_DepthDuration_HTML.html#102,102,1680,1050,1680,1050,8-22-2022,2-1-55,28,depth_duration_stimuli/000692_2014-06-08_13-09-42_260595134347_rgbf000199-resize_2/000692_2014-06-08_13-09-42_260595134347_rgbf000199-resize_2-target.png,1000,3.661,20,7460,1000,feet,jsons/v1_VE1000_randls_29.json,1169314,1491514,67,Man
28,957163,DepthScenes,duration_manipulation_targetAtFixation,jsons/v1_VE1000_randls_29.json,http://54.235.29.9/FacialAge/BNav_EC2/DepthDuration/v2_depth_duration_MTurk/v2_DepthDuration_HTML.html#102,102,1680,1050,1680,1050,8-22-2022,2-1-55,29,depth_duration_stimuli/001094_2014-06-15_17-36-00_260595134347_rgbf000205-resize_0/001094_2014-06-15_17-36-00_260595134347_rgbf000205-resize_0-target.png,1000,4.2175,22,9707,1000,feet,jsons/v1_VE1000_randls_29.json,1169314,1491514,67,Man
29,957163,DepthScenes,duration_manipulation_targetAtFixation,jsons/v1_VE1000_randls_29.json,http://54.235.29.9/FacialAge/BNav_EC2/DepthDuration/v2_depth_duration_MTurk/v2_DepthDuration_HTML.html#102,102,1680,1050,1680,1050,8-22-2022,2-1-55,30,depth_duration_stimuli/000375_2014-06-08_11-17-29_260595134347_rgbf000133-resize_2/000375_2014-06-08_11-17-29_260595134347_rgbf000133-resize-original.jpg,1000,4.718,0,5934,1004,feet,jsons/v1_VE1000_randls_29.json,1169314,1491514,67,Man
30,957163,DepthScenes,duration_manipulation_targetAtFixation,jsons/v1_VE1000_randls_29.json,http://54.235.29.9/FacialAge/BNav_EC2/DepthDuration/v2_depth_duration_MTurk/v2_DepthDuration_HTML.html#102,102,1680,1050,1680,1050,8-22-2022,2-1-55,31,depth_duration_stimuli/002988_2014-06-15_12-24-20_094959634447_rgbf000150-resize_1/002988_2014-06-15_12-24-20_094959634447_rgbf000150-resize_1-target.png,1000,4.7669999999999995,23,9204,1001,feet,jsons/v1_VE1000_randls_29.json,1169314,1491514,67,Man
31,957163,DepthScenes,duration_manipulation_targetAtFixation,jsons/v1_VE1000_randls_29.json,http://54.235.29.9/FacialAge/BNav_EC2/DepthDuration/v2_depth_duration_MTurk/v2_DepthDuration_HTML.html#102,102,1680,1050,1680,1050,8-22-2022,2-1-55,32,depth_duration_stimuli/001052_2014-06-08_18-24-54_260595134347_rgbf000130-resize_1/001052_2014-06-08_18-24-54_260595134347_rgbf000130-resize_1-target.png,1000,4.1045,20,7447,1000,feet,jsons/v1_VE1000_randls_29.json,1169314,1491514,67,Man
32,957163,DepthScenes,duration_manipulation_targetAtFixation,jsons/v1_VE1000_randls_29.json,http://54.235.29.9/FacialAge/BNav_EC2/DepthDuration/v2_depth_duration_MTurk/v2_DepthDuration_HTML.html#102,102,1680,1050,1680,1050,8-22-2022,2-1-55,33,depth_duration_stimuli/002057_2014-06-24_21-00-13_260595134347_rgbf000120-resize_1/002057_2014-06-24_21-00-13_260595134347_rgbf000120-resize_1-target.png,1000,2.967,10,6693,986,feet,jsons/v1_VE1000_randls_29.json,1169314,1491514,67,Man
33,957163,DepthScenes,duration_manipulation_targetAtFixation,jsons/v1_VE1000_randls_29.json,http://54.235.29.9/FacialAge/BNav_EC2/DepthDuration/v2_depth_duration_MTurk/v2_DepthDuration_HTML.html#102,102,1680,1050,1680,1050,8-22-2022,2-1-55,34,depth_duration_stimuli/000709_2014-06-08_13-51-55_260595134347_rgbf000068-resize_3/000709_2014-06-08_13-51-55_260595134347_rgbf000068-resize_3-target.png,1000,1.8030000000000002,6,5787,998,feet,jsons/v1_VE1000_randls_29.json,1169314,1491514,67,Man
34,957163,DepthScenes,duration_manipulation_targetAtFixation,jsons/v1_VE1000_randls_29.json,http://54.235.29.9/FacialAge/BNav_EC2/DepthDuration/v2_depth_duration_MTurk/v2_DepthDuration_HTML.html#102,102,1680,1050,1680,1050,8-22-2022,2-1-55,35,depth_duration_stimuli/001092_2014-06-15_17-34-58_260595134347_rgbf000171-resize_3/001092_2014-06-15_17-34-58_260595134347_rgbf000171-resize_3-target.png,1000,2.6935,5,7905,1000,feet,jsons/v1_VE1000_randls_29.json,1169314,1491514,67,Man
35,957163,DepthScenes,duration_manipulation_targetAtFixation,jsons/v1_VE1000_randls_29.json,http://54.235.29.9/FacialAge/BNav_EC2/DepthDuration/v2_depth_duration_MTurk/v2_DepthDuration_HTML.html#102,102,1680,1050,1680,1050,8-22-2022,2-1-55,36,depth_duration_stimuli/002545_2014-06-24_13-38-53_094959634447_rgbf000080-resize_4/002545_2014-06-24_13-38-53_094959634447_rgbf000080-resize_4-target.png,1000,1.9205,7,7518,999,feet,jsons/v1_VE1000_randls_29.json,1169314,1491514,67,Man
36,957163,DepthScenes,duration_manipulation_targetAtFixation,jsons/v1_VE1000_randls_29.json,http://54.235.29.9/FacialAge/BNav_EC2/DepthDuration/v2_depth_duration_MTurk/v2_DepthDuration_HTML.html#102,102,1680,1050,1680,1050,8-22-2022,2-1-55,37,depth_duration_stimuli/001055_2014-06-08_18-45-35_260595134347_rgbf000111-resize_4/001055_2014-06-08_18-45-35_260595134347_rgbf000111-resize_4-target.png,1000,2.4290000000000003,12,6811,1001,feet,jsons/v1_VE1000_randls_29.json,1169314,1491514,67,Man
37,957163,DepthScenes,duration_manipulation_targetAtFixation,jsons/v1_VE1000_randls_29.json,http://54.235.29.9/FacialAge/BNav_EC2/DepthDuration/v2_depth_duration_MTurk/v2_DepthDuration_HTML.html#102,102,1680,1050,1680,1050,8-22-2022,2-1-55,38,depth_duration_stimuli/000549_2014-06-08_22-10-24_260595134347_rgbf000247-resize_3/000549_2014-06-08_22-10-24_260595134347_rgbf000247-resize_3-target.png,1000,1.841,4,7443,996,feet,jsons/v1_VE1000_randls_29.json,1169314,1491514,67,Man
38,957163,DepthScenes,duration_manipulation_targetAtFixation,jsons/v1_VE1000_randls_29.json,http://54.235.29.9/FacialAge/BNav_EC2/DepthDuration/v2_depth_duration_MTurk/v2_DepthDuration_HTML.html#102,102,1680,1050,1680,1050,8-22-2022,2-1-55,39,depth_duration_stimuli/002570_2014-06-24_13-59-54_094959634447_rgbf000059-resize_0/002570_2014-06-24_13-59-54_094959634447_rgbf000059-resize_0-target.png,1000,4.037,9,5543,1000,feet,jsons/v1_VE1000_randls_29.json,1169314,1491514,67,Man
39,957163,DepthScenes,duration_manipulation_targetAtFixation,jsons/v1_VE1000_randls_29.json,http://54.235.29.9/FacialAge/BNav_EC2/DepthDuration/v2_depth_duration_MTurk/v2_DepthDuration_HTML.html#102,102,1680,1050,1680,1050,8-22-2022,2-1-55,40,depth_duration_stimuli/002467_2014-06-28_20-38-07_260595134347_rgbf000026-resize_2/002467_2014-06-28_20-38-07_260595134347_rgbf000026-resize_2-target.png,1000,4.742,14,8821,1000,feet,jsons/v1_VE1000_randls_29.json,1169314,1491514,67,Man
40,957163,DepthScenes,duration_manipulation_targetAtFixation,jsons/v1_VE1000_randls_29.json,http://54.235.29.9/FacialAge/BNav_EC2/DepthDuration/v2_depth_duration_MTurk/v2_DepthDuration_HTML.html#102,102,1680,1050,1680,1050,8-22-2022,2-1-55,41,depth_duration_stimuli/000917_2014-06-09_22-45-29_260595134347_rgbf000149-resize_3/000917_2014-06-09_22-45-29_260595134347_rgbf000149-resize_3-target.png,1000,4.1865,13,12488,1003,feet,jsons/v1_VE1000_randls_29.json,1169314,1491514,67,Man
41,957163,DepthScenes,duration_manipulation_targetAtFixation,jsons/v1_VE1000_randls_29.json,http://54.235.29.9/FacialAge/BNav_EC2/DepthDuration/v2_depth_duration_MTurk/v2_DepthDuration_HTML.html#102,102,1680,1050,1680,1050,8-22-2022,2-1-55,42,depth_duration_stimuli/002323_2014-06-28_20-01-54_260595134347_rgbf000051-resize_4/002323_2014-06-28_20-01-54_260595134347_rgbf000051-resize_4-target.png,1000,3.7310000000000003,14,7619,999,feet,jsons/v1_VE1000_randls_29.json,1169314,1491514,67,Man
42,957163,DepthScenes,duration_manipulation_targetAtFixation,jsons/v1_VE1000_randls_29.json,http://54.235.29.9/FacialAge/BNav_EC2/DepthDuration/v2_depth_duration_MTurk/v2_DepthDuration_HTML.html#102,102,1680,1050,1680,1050,8-22-2022,2-1-55,43,depth_duration_stimuli/001066_2014-06-08_22-03-20_260595134347_rgbf000066-resize_4/001066_2014-06-08_22-03-20_260595134347_rgbf000066-resize_4-target.png,1000,4.2330000000000005,18,10891,1002,feet,jsons/v1_VE1000_randls_29.json,1169314,1491514,67,Man
43,957163,DepthScenes,duration_manipulation_targetAtFixation,jsons/v1_VE1000_randls_29.json,http://54.235.29.9/FacialAge/BNav_EC2/DepthDuration/v2_depth_duration_MTurk/v2_DepthDuration_HTML.html#102,102,1680,1050,1680,1050,8-22-2022,2-1-55,44,depth_duration_stimuli/000742_2014-06-08_18-48-09_260595134347_rgbf000164-resize_4/000742_2014-06-08_18-48-09_260595134347_rgbf000164-resize_4-target.png,1000,4.632,9,5684,1002,feet,jsons/v1_VE1000_randls_29.json,1169314,1491514,67,Man
44,957163,DepthScenes,duration_manipulation_targetAtFixation,jsons/v1_VE1000_randls_29.json,http://54.235.29.9/FacialAge/BNav_EC2/DepthDuration/v2_depth_duration_MTurk/v2_DepthDuration_HTML.html#102,102,1680,1050,1680,1050,8-22-2022,2-1-55,45,depth_duration_stimuli/000787_2014-06-08_22-33-53_260595134347_rgbf000175-resize_1/000787_2014-06-08_22-33-53_260595134347_rgbf000175-resize-original.jpg,1000,4.784,0,6407,1003,feet,jsons/v1_VE1000_randls_29.json,1169314,1491514,67,Man
45,957163,DepthScenes,duration_manipulation_targetAtFixation,jsons/v1_VE1000_randls_29.json,http://54.235.29.9/FacialAge/BNav_EC2/DepthDuration/v2_depth_duration_MTurk/v2_DepthDuration_HTML.html#102,102,1680,1050,1680,1050,8-22-2022,2-1-55,46,depth_duration_stimuli/000414_2014-06-04_19-49-13_260595134347_rgbf000044-resize_0/000414_2014-06-04_19-49-13_260595134347_rgbf000044-resize_0-target.png,1000,4.329,17,11739,999,feet,jsons/v1_VE1000_randls_29.json,1169314,1491514,67,Man
46,957163,DepthScenes,duration_manipulation_targetAtFixation,jsons/v1_VE1000_randls_29.json,http://54.235.29.9/FacialAge/BNav_EC2/DepthDuration/v2_depth_duration_MTurk/v2_DepthDuration_HTML.html#102,102,1680,1050,1680,1050,8-22-2022,2-1-55,47,depth_duration_stimuli/003129_2014-05-12_10-48-10_094959634447_rgbf000100-resize_0/003129_2014-05-12_10-48-10_094959634447_rgbf000100-resize_0-target.png,1000,4.9305,15,6563,1002,feet,jsons/v1_VE1000_randls_29.json,1169314,1491514,67,Man
47,957163,DepthScenes,duration_manipulation_targetAtFixation,jsons/v1_VE1000_randls_29.json,http://54.235.29.9/FacialAge/BNav_EC2/DepthDuration/v2_depth_duration_MTurk/v2_DepthDuration_HTML.html#102,102,1680,1050,1680,1050,8-22-2022,2-1-55,48,depth_duration_stimuli/002039_2014-06-24_20-22-38_260595134347_rgbf000084-resize_1/002039_2014-06-24_20-22-38_260595134347_rgbf000084-resize_1-target.png,1000,4.408,16,9604,995,feet,jsons/v1_VE1000_randls_29.json,1169314,1491514,67,Man
48,957163,DepthScenes,duration_manipulation_targetAtFixation,jsons/v1_VE1000_randls_29.json,http://54.235.29.9/FacialAge/BNav_EC2/DepthDuration/v2_depth_duration_MTurk/v2_DepthDuration_HTML.html#102,102,1680,1050,1680,1050,8-22-2022,2-1-55,49,depth_duration_stimuli/002103_2014-06-25_20-00-40_260595134347_rgbf000049-resize_0/002103_2014-06-25_20-00-40_260595134347_rgbf000049-resize_0-target.png,1000,4.105,16,7688,1000,feet,jsons/v1_VE1000_randls_29.json,1169314,1491514,67,Man
49,957163,DepthScenes,duration_manipulation_targetAtFixation,jsons/v1_VE1000_randls_29.json,http://54.235.29.9/FacialAge/BNav_EC2/DepthDuration/v2_depth_duration_MTurk/v2_DepthDuration_HTML.html#102,102,1680,1050,1680,1050,8-22-2022,2-1-55,50,depth_duration_stimuli/001555_2014-06-20_17-12-10_260595134347_rgbf000065-resize_4/001555_2014-06-20_17-12-10_260595134347_rgbf000065-resize_4-target.png,1000,1.633,6,7763,1000,feet,jsons/v1_VE1000_randls_29.json,1169314,1491514,67,Man
50,957163,DepthScenes,duration_manipulation_targetAtFixation,jsons/v1_VE1000_randls_29.json,http://54.235.29.9/FacialAge/BNav_EC2/DepthDuration/v2_depth_duration_MTurk/v2_DepthDuration_HTML.html#102,102,1680,1050,1680,1050,8-22-2022,2-1-55,51,depth_duration_stimuli/000103_2014-05-14_22-01-17_260595134347_rgbf000152-resize_5/000103_2014-05-14_22-01-17_260595134347_rgbf000152-resize_5-target.png,1000,1.993,10,6187,1001,feet,jsons/v1_VE1000_randls_29.json,1169314,1491514,67,Man
51,957163,DepthScenes,duration_manipulation_targetAtFixation,jsons/v1_VE1000_randls_29.json,http://54.235.29.9/FacialAge/BNav_EC2/DepthDuration/v2_depth_duration_MTurk/v2_DepthDuration_HTML.html#102,102,1680,1050,1680,1050,8-22-2022,2-1-55,52,depth_duration_stimuli/000906_2014-06-08_13-35-43_260595134347_rgbf000155-resize_1/000906_2014-06-08_13-35-43_260595134347_rgbf000155-resize_1-target.png,1000,2.8489999999999998,12,7613,1003,feet,jsons/v1_VE1000_randls_29.json,1169314,1491514,67,Man
52,957163,DepthScenes,duration_manipulation_targetAtFixation,jsons/v1_VE1000_randls_29.json,http://54.235.29.9/FacialAge/BNav_EC2/DepthDuration/v2_depth_duration_MTurk/v2_DepthDuration_HTML.html#102,102,1680,1050,1680,1050,8-22-2022,2-1-55,53,depth_duration_stimuli/002805_2014-06-22_19-54-03_094959634447_rgbf000079-resize_1/002805_2014-06-22_19-54-03_094959634447_rgbf000079-resize_1-target.png,1000,3.1439999999999997,12,6991,998,feet,jsons/v1_VE1000_randls_29.json,1169314,1491514,67,Man
53,957163,DepthScenes,duration_manipulation_targetAtFixation,jsons/v1_VE1000_randls_29.json,http://54.235.29.9/FacialAge/BNav_EC2/DepthDuration/v2_depth_duration_MTurk/v2_DepthDuration_HTML.html#102,102,1680,1050,1680,1050,8-22-2022,2-1-55,54,depth_duration_stimuli/002788_2014-06-22_19-36-03_094959634447_rgbf000088-resize_2/002788_2014-06-22_19-36-03_094959634447_rgbf000088-resize_2-target.png,1000,1.6465,9,5551,1003,feet,jsons/v1_VE1000_randls_29.json,1169314,1491514,67,Man
54,957163,DepthScenes,duration_manipulation_targetAtFixation,jsons/v1_VE1000_randls_29.json,http://54.235.29.9/FacialAge/BNav_EC2/DepthDuration/v2_depth_duration_MTurk/v2_DepthDuration_HTML.html#102,102,1680,1050,1680,1050,8-22-2022,2-1-55,55,depth_duration_stimuli/000749_2014-06-08_21-55-06_260595134347_rgbf000070-resize_2/000749_2014-06-08_21-55-06_260595134347_rgbf000070-resize_2-target.png,1000,2.331,7,5611,1003,feet,jsons/v1_VE1000_randls_29.json,1169314,1491514,67,Man
55,957163,DepthScenes,duration_manipulation_targetAtFixation,jsons/v1_VE1000_randls_29.json,http://54.235.29.9/FacialAge/BNav_EC2/DepthDuration/v2_depth_duration_MTurk/v2_DepthDuration_HTML.html#102,102,1680,1050,1680,1050,8-22-2022,2-1-55,56,depth_duration_stimuli/000447_2014-06-08_16-15-46_260595134347_rgbf000130-resize_1/000447_2014-06-08_16-15-46_260595134347_rgbf000130-resize_1-target.png,1000,4.479,13,8245,1004,feet,jsons/v1_VE1000_randls_29.json,1169314,1491514,67,Man
56,957163,DepthScenes,duration_manipulation_targetAtFixation,jsons/v1_VE1000_randls_29.json,http://54.235.29.9/FacialAge/BNav_EC2/DepthDuration/v2_depth_duration_MTurk/v2_DepthDuration_HTML.html#102,102,1680,1050,1680,1050,8-22-2022,2-1-55,57,depth_duration_stimuli/001447_2014-06-19_17-00-32_260595134347_rgbf000082-resize_5/001447_2014-06-19_17-00-32_260595134347_rgbf000082-resize_5-target.png,1000,4.13775,8,7620,1004,feet,jsons/v1_VE1000_randls_29.json,1169314,1491514,67,Man
57,957163,DepthScenes,duration_manipulation_targetAtFixation,jsons/v1_VE1000_randls_29.json,http://54.235.29.9/FacialAge/BNav_EC2/DepthDuration/v2_depth_duration_MTurk/v2_DepthDuration_HTML.html#102,102,1680,1050,1680,1050,8-22-2022,2-1-55,58,depth_duration_stimuli/000739_2014-06-08_18-45-58_260595134347_rgbf000068-resize_1/000739_2014-06-08_18-45-58_260595134347_rgbf000068-resize_1-target.png,1000,3.534,15,8803,1000,feet,jsons/v1_VE1000_randls_29.json,1169314,1491514,67,Man
58,957163,DepthScenes,duration_manipulation_targetAtFixation,jsons/v1_VE1000_randls_29.json,http://54.235.29.9/FacialAge/BNav_EC2/DepthDuration/v2_depth_duration_MTurk/v2_DepthDuration_HTML.html#102,102,1680,1050,1680,1050,8-22-2022,2-1-55,59,depth_duration_stimuli/000734_2014-06-08_17-39-11_260595134347_rgbf000128-resize_2/000734_2014-06-08_17-39-11_260595134347_rgbf000128-resize_2-target.png,1000,4.098,15,5208,982,feet,jsons/v1_VE1000_randls_29.json,1169314,1491514,67,Man
59,957163,DepthScenes,duration_manipulation_targetAtFixation,jsons/v1_VE1000_randls_29.json,http://54.235.29.9/FacialAge/BNav_EC2/DepthDuration/v2_depth_duration_MTurk/v2_DepthDuration_HTML.html#102,102,1680,1050,1680,1050,8-22-2022,2-1-55,60,depth_duration_stimuli/002663_2014-06-13_15-50-26_094959634447_rgbf000075-resize_1/002663_2014-06-13_15-50-26_094959634447_rgbf000075-resize_1-target.png,1000,4.7495,16,6323,1000,feet,jsons/v1_VE1000_randls_29.json,1169314,1491514,67,Man
60,957163,DepthScenes,duration_manipulation_targetAtFixation,jsons/v1_VE1000_randls_29.json,http://54.235.29.9/FacialAge/BNav_EC2/DepthDuration/v2_depth_duration_MTurk/v2_DepthDuration_HTML.html#102,102,1680,1050,1680,1050,8-22-2022,2-1-55,61,depth_duration_stimuli/000409_2014-06-04_19-23-33_260595134347_rgbf000067-resize_0/000409_2014-06-04_19-23-33_260595134347_rgbf000067-resize_0-target.png,1000,3.7335,13,10839,1002,feet,jsons/v1_VE1000_randls_29.json,1169314,1491514,67,Man
61,957163,DepthScenes,duration_manipulation_targetAtFixation,jsons/v1_VE1000_randls_29.json,http://54.235.29.9/FacialAge/BNav_EC2/DepthDuration/v2_depth_duration_MTurk/v2_DepthDuration_HTML.html#102,102,1680,1050,1680,1050,8-22-2022,2-1-55,62,depth_duration_stimuli/001810_2014-06-26_20-51-35_260595134347_rgbf000040-resize_3/001810_2014-06-26_20-51-35_260595134347_rgbf000040-resize_3-target.png,1000,2.2525,4,6840,1001,feet,jsons/v1_VE1000_randls_29.json,1169314,1491514,67,Man
62,957163,DepthScenes,duration_manipulation_targetAtFixation,jsons/v1_VE1000_randls_29.json,http://54.235.29.9/FacialAge/BNav_EC2/DepthDuration/v2_depth_duration_MTurk/v2_DepthDuration_HTML.html#102,102,1680,1050,1680,1050,8-22-2022,2-1-55,63,depth_duration_stimuli/003010_2014-06-15_12-54-35_094959634447_rgbf000112-resize_0/003010_2014-06-15_12-54-35_094959634447_rgbf000112-resize_0-target.png,1000,3.1185,12,5184,992,feet,jsons/v1_VE1000_randls_29.json,1169314,1491514,67,Man
63,957163,DepthScenes,duration_manipulation_targetAtFixation,jsons/v1_VE1000_randls_29.json,http://54.235.29.9/FacialAge/BNav_EC2/DepthDuration/v2_depth_duration_MTurk/v2_DepthDuration_HTML.html#102,102,1680,1050,1680,1050,8-22-2022,2-1-55,64,depth_duration_stimuli/001133_2014-06-17_14-49-16_260595134347_rgbf000100-resize_0/001133_2014-06-17_14-49-16_260595134347_rgbf000100-resize_0-target.png,1000,4.2115,11,6164,998,feet,jsons/v1_VE1000_randls_29.json,1169314,1491514,67,Man
64,957163,DepthScenes,duration_manipulation_targetAtFixation,jsons/v1_VE1000_randls_29.json,http://54.235.29.9/FacialAge/BNav_EC2/DepthDuration/v2_depth_duration_MTurk/v2_DepthDuration_HTML.html#102,102,1680,1050,1680,1050,8-22-2022,2-1-55,65,depth_duration_stimuli/001132_2014-06-17_14-48-54_260595134347_rgbf000100-resize_2/001132_2014-06-17_14-48-54_260595134347_rgbf000100-resize_2-target.png,1000,3.753,13,4650,1001,feet,jsons/v1_VE1000_randls_29.json,1169314,1491514,67,Man
65,957163,DepthScenes,duration_manipulation_targetAtFixation,jsons/v1_VE1000_randls_29.json,http://54.235.29.9/FacialAge/BNav_EC2/DepthDuration/v2_depth_duration_MTurk/v2_DepthDuration_HTML.html#102,102,1680,1050,1680,1050,8-22-2022,2-1-55,66,depth_duration_stimuli/001222_2014-06-17_16-24-06_260595134347_rgbf000073-resize_0/001222_2014-06-17_16-24-06_260595134347_rgbf000073-resize-original.jpg,1000,1.4385,0,5106,999,feet,jsons/v1_VE1000_randls_29.json,1169314,1491514,67,Man
66,957163,DepthScenes,duration_manipulation_targetAtFixation,jsons/v1_VE1000_randls_29.json,http://54.235.29.9/FacialAge/BNav_EC2/DepthDuration/v2_depth_duration_MTurk/v2_DepthDuration_HTML.html#102,102,1680,1050,1680,1050,8-22-2022,2-1-55,67,depth_duration_stimuli/002600_2014-06-24_14-27-04_094959634447_rgbf000074-resize_2/002600_2014-06-24_14-27-04_094959634447_rgbf000074-resize_2-target.png,1000,2.7575,7,6531,1000,feet,jsons/v1_VE1000_randls_29.json,1169314,1491514,67,Man
67,957163,DepthScenes,duration_manipulation_targetAtFixation,jsons/v1_VE1000_randls_29.json,http://54.235.29.9/FacialAge/BNav_EC2/DepthDuration/v2_depth_duration_MTurk/v2_DepthDuration_HTML.html#102,102,1680,1050,1680,1050,8-22-2022,2-1-55,68,depth_duration_stimuli/003228_2014-05-14_13-42-35_094959634447_rgbf000101-resize_1/003228_2014-05-14_13-42-35_094959634447_rgbf000101-resize_1-target.png,1000,1.9680000000000002,4,8067,1000,feet,jsons/v1_VE1000_randls_29.json,1169314,1491514,67,Man
68,957163,DepthScenes,duration_manipulation_targetAtFixation,jsons/v1_VE1000_randls_29.json,http://54.235.29.9/FacialAge/BNav_EC2/DepthDuration/v2_depth_duration_MTurk/v2_DepthDuration_HTML.html#102,102,1680,1050,1680,1050,8-22-2022,2-1-55,69,depth_duration_stimuli/001417_2014-06-19_16-25-36_260595134347_rgbf000115-resize_5/001417_2014-06-19_16-25-36_260595134347_rgbf000115-resize_5-target.png,1000,4.6255,10,5778,999,feet,jsons/v1_VE1000_randls_29.json,1169314,1491514,67,Man
69,957163,DepthScenes,duration_manipulation_targetAtFixation,jsons/v1_VE1000_randls_29.json,http://54.235.29.9/FacialAge/BNav_EC2/DepthDuration/v2_depth_duration_MTurk/v2_DepthDuration_HTML.html#102,102,1680,1050,1680,1050,8-22-2022,2-1-55,70,depth_duration_stimuli/003081_2014-06-15_15-19-16_094959634447_rgbf000150-resize_1/003081_2014-06-15_15-19-16_094959634447_rgbf000150-resize_1-target.png,1000,3.9125,11,4935,1003,feet,jsons/v1_VE1000_randls_29.json,1169314,1491514,67,Man
70,957163,DepthScenes,duration_manipulation_targetAtFixation,jsons/v1_VE1000_randls_29.json,http://54.235.29.9/FacialAge/BNav_EC2/DepthDuration/v2_depth_duration_MTurk/v2_DepthDuration_HTML.html#102,102,1680,1050,1680,1050,8-22-2022,2-1-55,71,depth_duration_stimuli/002905_2014-06-03_18-04-43_094959634447_rgbf000151-resize_2/002905_2014-06-03_18-04-43_094959634447_rgbf000151-resize_2-target.png,1000,2.0295,6,7398,1003,feet,jsons/v1_VE1000_randls_29.json,1169314,1491514,67,Man
71,957163,DepthScenes,duration_manipulation_targetAtFixation,jsons/v1_VE1000_randls_29.json,http://54.235.29.9/FacialAge/BNav_EC2/DepthDuration/v2_depth_duration_MTurk/v2_DepthDuration_HTML.html#102,102,1680,1050,1680,1050,8-22-2022,2-1-55,72,depth_duration_stimuli/003423_2014-05-21_10-23-26_094959634447_rgbf002665-resize_2/003423_2014-05-21_10-23-26_094959634447_rgbf002665-resize_2-target.png,1000,3.2575,12,7915,990,feet,jsons/v1_VE1000_randls_29.json,1169314,1491514,67,Man
72,957163,DepthScenes,duration_manipulation_targetAtFixation,jsons/v1_VE1000_randls_29.json,http://54.235.29.9/FacialAge/BNav_EC2/DepthDuration/v2_depth_duration_MTurk/v2_DepthDuration_HTML.html#102,102,1680,1050,1680,1050,8-22-2022,2-1-55,73,depth_duration_stimuli/000436_2014-06-09_22-25-11_260595134347_rgbf000137-resize_1/000436_2014-06-09_22-25-11_260595134347_rgbf000137-resize_1-target.png,1000,4.0705,14,5241,997,feet,jsons/v1_VE1000_randls_29.json,1169314,1491514,67,Man
73,957163,DepthScenes,duration_manipulation_targetAtFixation,jsons/v1_VE1000_randls_29.json,http://54.235.29.9/FacialAge/BNav_EC2/DepthDuration/v2_depth_duration_MTurk/v2_DepthDuration_HTML.html#102,102,1680,1050,1680,1050,8-22-2022,2-1-55,74,depth_duration_stimuli/002444_2014-06-28_20-32-08_260595134347_rgbf000027-resize_0/002444_2014-06-28_20-32-08_260595134347_rgbf000027-resize_0-target.png,1000,4.388999999999999,15,6175,997,feet,jsons/v1_VE1000_randls_29.json,1169314,1491514,67,Man
74,957163,DepthScenes,duration_manipulation_targetAtFixation,jsons/v1_VE1000_randls_29.json,http://54.235.29.9/FacialAge/BNav_EC2/DepthDuration/v2_depth_duration_MTurk/v2_DepthDuration_HTML.html#102,102,1680,1050,1680,1050,8-22-2022,2-1-55,75,depth_duration_stimuli/002989_2014-06-15_12-25-03_094959634447_rgbf000150-resize_3/002989_2014-06-15_12-25-03_094959634447_rgbf000150-resize_3-target.png,1000,4.1975,17,7626,1002,feet,jsons/v1_VE1000_randls_29.json,1169314,1491514,67,Man
75,957163,DepthScenes,duration_manipulation_targetAtFixation,jsons/v1_VE1000_randls_29.json,http://54.235.29.9/FacialAge/BNav_EC2/DepthDuration/v2_depth_duration_MTurk/v2_DepthDuration_HTML.html#102,102,1680,1050,1680,1050,8-22-2022,2-1-55,76,depth_duration_stimuli/000866_2014-06-09_20-45-42_260595134347_rgbf000139-resize_1/000866_2014-06-09_20-45-42_260595134347_rgbf000139-resize_1-target.png,1000,3.2155,7,7119,1003,feet,jsons/v1_VE1000_randls_29.json,1169314,1491514,67,Man
76,957163,DepthScenes,duration_manipulation_targetAtFixation,jsons/v1_VE1000_randls_29.json,http://54.235.29.9/FacialAge/BNav_EC2/DepthDuration/v2_depth_duration_MTurk/v2_DepthDuration_HTML.html#102,102,1680,1050,1680,1050,8-22-2022,2-1-55,77,depth_duration_stimuli/003292_2014-05-14_21-53-49_094959634447_rgbf000100-resize_2/003292_2014-05-14_21-53-49_094959634447_rgbf000100-resize_2-target.png,1000,3.4815,6,5497,999,feet,jsons/v1_VE1000_randls_29.json,1169314,1491514,67,Man
77,957163,DepthScenes,duration_manipulation_targetAtFixation,jsons/v1_VE1000_randls_29.json,http://54.235.29.9/FacialAge/BNav_EC2/DepthDuration/v2_depth_duration_MTurk/v2_DepthDuration_HTML.html#102,102,1680,1050,1680,1050,8-22-2022,2-1-55,78,depth_duration_stimuli/002639_2014-06-24_14-51-37_094959634447_rgbf000074-resize_4/002639_2014-06-24_14-51-37_094959634447_rgbf000074-resize_4-target.png,1000,4.0375,10,5208,1000,feet,jsons/v1_VE1000_randls_29.json,1169314,1491514,67,Man
78,957163,DepthScenes,duration_manipulation_targetAtFixation,jsons/v1_VE1000_randls_29.json,http://54.235.29.9/FacialAge/BNav_EC2/DepthDuration/v2_depth_duration_MTurk/v2_DepthDuration_HTML.html#102,102,1680,1050,1680,1050,8-22-2022,2-1-55,79,depth_duration_stimuli/002725_2014-06-22_11-47-51_094959634447_rgbf000070-resize_1/002725_2014-06-22_11-47-51_094959634447_rgbf000070-resize_1-target.png,1000,2.195,6,7146,999,feet,jsons/v1_VE1000_randls_29.json,1169314,1491514,67,Man
79,957163,DepthScenes,duration_manipulation_targetAtFixation,jsons/v1_VE1000_randls_29.json,http://54.235.29.9/FacialAge/BNav_EC2/DepthDuration/v2_depth_duration_MTurk/v2_DepthDuration_HTML.html#102,102,1680,1050,1680,1050,8-22-2022,2-1-55,80,depth_duration_stimuli/002344_2014-06-28_20-06-29_260595134347_rgbf000030-resize_1/002344_2014-06-28_20-06-29_260595134347_rgbf000030-resize_1-target.png,1000,1.5795,4,8064,1003,feet,jsons/v1_VE1000_randls_29.json,1169314,1491514,67,Man
80,957163,DepthScenes,duration_manipulation_targetAtFixation,jsons/v1_VE1000_randls_29.json,http://54.235.29.9/FacialAge/BNav_EC2/DepthDuration/v2_depth_duration_MTurk/v2_DepthDuration_HTML.html#102,102,1680,1050,1680,1050,8-22-2022,2-1-55,81,depth_duration_stimuli/000736_2014-06-08_18-24-15_260595134347_rgbf000206-resize_3/000736_2014-06-08_18-24-15_260595134347_rgbf000206-resize_3-target.png,1000,3.515,7,8567,1002,feet,jsons/v1_VE1000_randls_29.json,1169314,1491514,67,Man
81,957163,DepthScenes,duration_manipulation_targetAtFixation,jsons/v1_VE1000_randls_29.json,http://54.235.29.9/FacialAge/BNav_EC2/DepthDuration/v2_depth_duration_MTurk/v2_DepthDuration_HTML.html#102,102,1680,1050,1680,1050,8-22-2022,2-1-55,82,depth_duration_stimuli/000137_2014-05-20_17-04-49_260595134347_rgbf000120-resize_1/000137_2014-05-20_17-04-49_260595134347_rgbf000120-resize_1-target.png,1000,3.786,12,4853,999,feet,jsons/v1_VE1000_randls_29.json,1169314,1491514,67,Man
82,957163,DepthScenes,duration_manipulation_targetAtFixation,jsons/v1_VE1000_randls_29.json,http://54.235.29.9/FacialAge/BNav_EC2/DepthDuration/v2_depth_duration_MTurk/v2_DepthDuration_HTML.html#102,102,1680,1050,1680,1050,8-22-2022,2-1-55,83,depth_duration_stimuli/002748_2014-06-22_19-07-22_094959634447_rgbf000078-resize_1/002748_2014-06-22_19-07-22_094959634447_rgbf000078-resize_1-target.png,1000,4.6705,16,7115,999,feet,jsons/v1_VE1000_randls_29.json,1169314,1491514,67,Man
83,957163,DepthScenes,duration_manipulation_targetAtFixation,jsons/v1_VE1000_randls_29.json,http://54.235.29.9/FacialAge/BNav_EC2/DepthDuration/v2_depth_duration_MTurk/v2_DepthDuration_HTML.html#102,102,1680,1050,1680,1050,8-22-2022,2-1-55,84,depth_duration_stimuli/002995_2014-06-15_12-31-26_094959634447_rgbf000150-resize_1/002995_2014-06-15_12-31-26_094959634447_rgbf000150-resize_1-target.png,1000,3.8360000000000003,15,5689,996,feet,jsons/v1_VE1000_randls_29.json,1169314,1491514,67,Man
84,957163,DepthScenes,duration_manipulation_targetAtFixation,jsons/v1_VE1000_randls_29.json,http://54.235.29.9/FacialAge/BNav_EC2/DepthDuration/v2_depth_duration_MTurk/v2_DepthDuration_HTML.html#102,102,1680,1050,1680,1050,8-22-2022,2-1-55,85,depth_duration_stimuli/000773_2014-06-08_22-24-54_260595134347_rgbf000093-resize_1/000773_2014-06-08_22-24-54_260595134347_rgbf000093-resize_1-target.png,1000,4.973,13,6538,1000,feet,jsons/v1_VE1000_randls_29.json,1169314,1491514,67,Man
85,957163,DepthScenes,duration_manipulation_targetAtFixation,jsons/v1_VE1000_randls_29.json,http://54.235.29.9/FacialAge/BNav_EC2/DepthDuration/v2_depth_duration_MTurk/v2_DepthDuration_HTML.html#102,102,1680,1050,1680,1050,8-22-2022,2-1-55,86,depth_duration_stimuli/002414_2014-06-28_20-24-58_260595134347_rgbf000067-resize_4/002414_2014-06-28_20-24-58_260595134347_rgbf000067-resize_4-target.png,1000,4.363,14,7433,997,feet,jsons/v1_VE1000_randls_29.json,1169314,1491514,67,Man
86,957163,DepthScenes,duration_manipulation_targetAtFixation,jsons/v1_VE1000_randls_29.json,http://54.235.29.9/FacialAge/BNav_EC2/DepthDuration/v2_depth_duration_MTurk/v2_DepthDuration_HTML.html#102,102,1680,1050,1680,1050,8-22-2022,2-1-55,87,depth_duration_stimuli/000469_2014-06-09_19-42-10_260595134347_rgbf000081-resize_1/000469_2014-06-09_19-42-10_260595134347_rgbf000081-resize_1-target.png,1000,1.652,5,6363,995,feet,jsons/v1_VE1000_randls_29.json,1169314,1491514,67,Man
87,957163,DepthScenes,duration_manipulation_targetAtFixation,jsons/v1_VE1000_randls_29.json,http://54.235.29.9/FacialAge/BNav_EC2/DepthDuration/v2_depth_duration_MTurk/v2_DepthDuration_HTML.html#102,102,1680,1050,1680,1050,8-22-2022,2-1-55,88,depth_duration_stimuli/000483_2014-06-09_20-41-45_260595134347_rgbf000116-resize_4/000483_2014-06-09_20-41-45_260595134347_rgbf000116-resize_4-target.png,1000,1.337,5,4162,998,feet,jsons/v1_VE1000_randls_29.json,1169314,1491514,67,Man
88,957163,DepthScenes,duration_manipulation_targetAtFixation,jsons/v1_VE1000_randls_29.json,http://54.235.29.9/FacialAge/BNav_EC2/DepthDuration/v2_depth_duration_MTurk/v2_DepthDuration_HTML.html#102,102,1680,1050,1680,1050,8-22-2022,2-1-55,89,depth_duration_stimuli/000506_2014-06-08_23-21-00_260595134347_rgbf000070-resize_7/000506_2014-06-08_23-21-00_260595134347_rgbf000070-resize_7-target.png,1000,4.0585,10,4852,998,feet,jsons/v1_VE1000_randls_29.json,1169314,1491514,67,Man
89,957163,DepthScenes,duration_manipulation_targetAtFixation,jsons/v1_VE1000_randls_29.json,http://54.235.29.9/FacialAge/BNav_EC2/DepthDuration/v2_depth_duration_MTurk/v2_DepthDuration_HTML.html#102,102,1680,1050,1680,1050,8-22-2022,2-1-55,90,depth_duration_stimuli/003079_2014-06-15_15-18-20_094959634447_rgbf000152-resize_8/003079_2014-06-15_15-18-20_094959634447_rgbf000152-resize_8-target.png,1000,2.8775,13,6853,997,feet,jsons/v1_VE1000_randls_29.json,1169314,1491514,67,Man
90,957163,DepthScenes,duration_manipulation_targetAtFixation,jsons/v1_VE1000_randls_29.json,http://54.235.29.9/FacialAge/BNav_EC2/DepthDuration/v2_depth_duration_MTurk/v2_DepthDuration_HTML.html#102,102,1680,1050,1680,1050,8-22-2022,2-1-55,91,depth_duration_stimuli/002043_2014-06-24_20-29-38_260595134347_rgbf000039-resize_4/002043_2014-06-24_20-29-38_260595134347_rgbf000039-resize_4-target.png,1000,2.8435,13,4613,1002,feet,jsons/v1_VE1000_randls_29.json,1169314,1491514,67,Man
91,957163,DepthScenes,duration_manipulation_targetAtFixation,jsons/v1_VE1000_randls_29.json,http://54.235.29.9/FacialAge/BNav_EC2/DepthDuration/v2_depth_duration_MTurk/v2_DepthDuration_HTML.html#102,102,1680,1050,1680,1050,8-22-2022,2-1-55,92,depth_duration_stimuli/003048_2014-06-15_13-49-43_094959634447_rgbf000150-resize_1/003048_2014-06-15_13-49-43_094959634447_rgbf000150-resize_1-target.png,1000,4.0035,13,13095,1002,feet,jsons/v1_VE1000_randls_29.json,1169314,1491514,67,Man
92,957163,DepthScenes,duration_manipulation_targetAtFixation,jsons/v1_VE1000_randls_29.json,http://54.235.29.9/FacialAge/BNav_EC2/DepthDuration/v2_depth_duration_MTurk/v2_DepthDuration_HTML.html#102,102,1680,1050,1680,1050,8-22-2022,2-1-55,93,depth_duration_stimuli/002784_2014-06-22_19-26-30_094959634447_rgbf000083-resize_3/002784_2014-06-22_19-26-30_094959634447_rgbf000083-resize_3-target.png,1000,1.8046666666667,6,6394,996,feet,jsons/v1_VE1000_randls_29.json,1169314,1491514,67,Man
93,957163,DepthScenes,duration_manipulation_targetAtFixation,jsons/v1_VE1000_randls_29.json,http://54.235.29.9/FacialAge/BNav_EC2/DepthDuration/v2_depth_duration_MTurk/v2_DepthDuration_HTML.html#102,102,1680,1050,1680,1050,8-22-2022,2-1-55,94,depth_duration_stimuli/001100_2014-06-15_17-46-26_260595134347_rgbf000225-resize_2/001100_2014-06-15_17-46-26_260595134347_rgbf000225-resize_2-target.png,1000,2.24,4,4271,1000,feet,jsons/v1_VE1000_randls_29.json,1169314,1491514,67,Man
94,957163,DepthScenes,duration_manipulation_targetAtFixation,jsons/v1_VE1000_randls_29.json,http://54.235.29.9/FacialAge/BNav_EC2/DepthDuration/v2_depth_duration_MTurk/v2_DepthDuration_HTML.html#102,102,1680,1050,1680,1050,8-22-2022,2-1-55,95,depth_duration_stimuli/001244_2014-06-17_16-47-45_260595134347_rgbf000030-resize_4/001244_2014-06-17_16-47-45_260595134347_rgbf000030-resize_4-target.png,1000,2.0425,5,4101,995,feet,jsons/v1_VE1000_randls_29.json,1169314,1491514,67,Man
95,957163,DepthScenes,duration_manipulation_targetAtFixation,jsons/v1_VE1000_randls_29.json,http://54.235.29.9/FacialAge/BNav_EC2/DepthDuration/v2_depth_duration_MTurk/v2_DepthDuration_HTML.html#102,102,1680,1050,1680,1050,8-22-2022,2-1-55,96,depth_duration_stimuli/003495_2014-05-21_16-01-51_094959634447_rgbf000100-resize_3/003495_2014-05-21_16-01-51_094959634447_rgbf000100-resize_3-target.png,1000,1.6255,5,4485,998,feet,jsons/v1_VE1000_randls_29.json,1169314,1491514,67,Man
96,957163,DepthScenes,duration_manipulation_targetAtFixation,jsons/v1_VE1000_randls_29.json,http://54.235.29.9/FacialAge/BNav_EC2/DepthDuration/v2_depth_duration_MTurk/v2_DepthDuration_HTML.html#102,102,1680,1050,1680,1050,8-22-2022,2-1-55,97,depth_duration_stimuli/001056_2014-06-08_18-46-44_260595134347_rgbf000068-resize_0/001056_2014-06-08_18-46-44_260595134347_rgbf000068-resize_0-target.png,1000,2.6625,6,4513,996,feet,jsons/v1_VE1000_randls_29.json,1169314,1491514,67,Man
97,957163,DepthScenes,duration_manipulation_targetAtFixation,jsons/v1_VE1000_randls_29.json,http://54.235.29.9/FacialAge/BNav_EC2/DepthDuration/v2_depth_duration_MTurk/v2_DepthDuration_HTML.html#102,102,1680,1050,1680,1050,8-22-2022,2-1-55,98,depth_duration_stimuli/002199_2014-06-28_18-33-56_260595134347_rgbf000074-resize_0/002199_2014-06-28_18-33-56_260595134347_rgbf000074-resize_0-target.png,1000,1.996,4,6723,1003,feet,jsons/v1_VE1000_randls_29.json,1169314,1491514,67,Man
98,957163,DepthScenes,duration_manipulation_targetAtFixation,jsons/v1_VE1000_randls_29.json,http://54.235.29.9/FacialAge/BNav_EC2/DepthDuration/v2_depth_duration_MTurk/v2_DepthDuration_HTML.html#102,102,1680,1050,1680,1050,8-22-2022,2-1-55,99,depth_duration_stimuli/001540_2014-06-20_17-01-05_260595134347_rgbf000086-resize_2/001540_2014-06-20_17-01-05_260595134347_rgbf000086-resize-original.jpg,1000,1.459,0,5128,999,feet,jsons/v1_VE1000_randls_29.json,1169314,1491514,67,Man
99,957163,DepthScenes,duration_manipulation_targetAtFixation,jsons/v1_VE1000_randls_29.json,http://54.235.29.9/FacialAge/BNav_EC2/DepthDuration/v2_depth_duration_MTurk/v2_DepthDuration_HTML.html#102,102,1680,1050,1680,1050,8-22-2022,2-1-55,100,depth_duration_stimuli/001570_2014-06-20_17-21-09_260595134347_rgbf000135-resize_4/001570_2014-06-20_17-21-09_260595134347_rgbf000135-resize_4-target.png,1000,4.467,13,7663,999,feet,jsons/v1_VE1000_randls_29.json,1169314,1491514,67,Man
100,957163,DepthScenes,duration_manipulation_targetAtFixation,jsons/v1_VE1000_randls_29.json,http://54.235.29.9/FacialAge/BNav_EC2/DepthDuration/v2_depth_duration_MTurk/v2_DepthDuration_HTML.html#102,102,1680,1050,1680,1050,8-22-2022,2-1-55,101,depth_duration_stimuli/001392_2014-06-19_16-07-59_260595134347_rgbf000046-resize_1/001392_2014-06-19_16-07-59_260595134347_rgbf000046-resize_1-target.png,1000,4.135,15,5208,999,feet,jsons/v1_VE1000_randls_29.json,1169314,1491514,67,Man
101,957163,DepthScenes,duration_manipulation_targetAtFixation,jsons/v1_VE1000_randls_29.json,http://54.235.29.9/FacialAge/BNav_EC2/DepthDuration/v2_depth_duration_MTurk/v2_DepthDuration_HTML.html#102,102,1680,1050,1680,1050,8-22-2022,2-1-55,102,depth_duration_stimuli/000929_2014-06-09_16-33-19_260595134347_rgbf000139-resize_0/000929_2014-06-09_16-33-19_260595134347_rgbf000139-resize_0-target.png,1000,2.8680000000000003,8,6789,998,feet,jsons/v1_VE1000_randls_29.json,1169314,1491514,67,Man
102,957163,DepthScenes,duration_manipulation_targetAtFixation,jsons/v1_VE1000_randls_29.json,http://54.235.29.9/FacialAge/BNav_EC2/DepthDuration/v2_depth_duration_MTurk/v2_DepthDuration_HTML.html#102,102,1680,1050,1680,1050,8-22-2022,2-1-55,103,depth_duration_stimuli/000457_2014-06-08_16-52-43_260595134347_rgbf000199-resize_1/000457_2014-06-08_16-52-43_260595134347_rgbf000199-resize_1-target.png,1000,3.6489999999999996,11,4409,999,feet,jsons/v1_VE1000_randls_29.json,1169314,1491514,67,Man
103,957163,DepthScenes,duration_manipulation_targetAtFixation,jsons/v1_VE1000_randls_29.json,http://54.235.29.9/FacialAge/BNav_EC2/DepthDuration/v2_depth_duration_MTurk/v2_DepthDuration_HTML.html#102,102,1680,1050,1680,1050,8-22-2022,2-1-55,104,depth_duration_stimuli/000522_2014-06-08_13-35-06_260595134347_rgbf000244-resize_1/000522_2014-06-08_13-35-06_260595134347_rgbf000244-resize_1-target.png,1000,2.3715,4,4079,997,feet,jsons/v1_VE1000_randls_29.json,1169314,1491514,67,Man
104,957163,DepthScenes,duration_manipulation_targetAtFixation,jsons/v1_VE1000_randls_29.json,http://54.235.29.9/FacialAge/BNav_EC2/DepthDuration/v2_depth_duration_MTurk/v2_DepthDuration_HTML.html#102,102,1680,1050,1680,1050,8-22-2022,2-1-55,105,depth_duration_stimuli/002949_2014-06-26_15-57-42_094959634447_rgbf000079-resize_1/002949_2014-06-26_15-57-42_094959634447_rgbf000079-resize_1-target.png,1000,1.8915,5,4568,1002,feet,jsons/v1_VE1000_randls_29.json,1169314,1491514,67,Man
105,957163,DepthScenes,duration_manipulation_targetAtFixation,jsons/v1_VE1000_randls_29.json,http://54.235.29.9/FacialAge/BNav_EC2/DepthDuration/v2_depth_duration_MTurk/v2_DepthDuration_HTML.html#102,102,1680,1050,1680,1050,8-22-2022,2-1-55,106,depth_duration_stimuli/003070_2014-06-15_14-58-27_094959634447_rgbf000150-resize_3/003070_2014-06-15_14-58-27_094959634447_rgbf000150-resize_3-target.png,1000,2.9415,8,10650,1000,feet,jsons/v1_VE1000_randls_29.json,1169314,1491514,67,Man
106,957163,DepthScenes,duration_manipulation_targetAtFixation,jsons/v1_VE1000_randls_29.json,http://54.235.29.9/FacialAge/BNav_EC2/DepthDuration/v2_depth_duration_MTurk/v2_DepthDuration_HTML.html#102,102,1680,1050,1680,1050,8-22-2022,2-1-55,107,depth_duration_stimuli/000943_2014-06-09_19-31-07_260595134347_rgbf000128-resize_1/000943_2014-06-09_19-31-07_260595134347_rgbf000128-resize_1-target.png,1000,1.9765,6,5318,1003,feet,jsons/v1_VE1000_randls_29.json,1169314,1491514,67,Man
107,957163,DepthScenes,duration_manipulation_targetAtFixation,jsons/v1_VE1000_randls_29.json,http://54.235.29.9/FacialAge/BNav_EC2/DepthDuration/v2_depth_duration_MTurk/v2_DepthDuration_HTML.html#102,102,1680,1050,1680,1050,8-22-2022,2-1-55,108,depth_duration_stimuli/001199_2014-06-17_16-03-48_260595134347_rgbf000077-resize_0/001199_2014-06-17_16-03-48_260595134347_rgbf000077-resize_0-target.png,1000,3.4375,11,7514,1002,feet,jsons/v1_VE1000_randls_29.json,1169314,1491514,67,Man
108,957163,DepthScenes,duration_manipulation_targetAtFixation,jsons/v1_VE1000_randls_29.json,http://54.235.29.9/FacialAge/BNav_EC2/DepthDuration/v2_depth_duration_MTurk/v2_DepthDuration_HTML.html#102,102,1680,1050,1680,1050,8-22-2022,2-1-55,109,depth_duration_stimuli/000502_2014-06-08_23-02-32_260595134347_rgbf000063-resize_4/000502_2014-06-08_23-02-32_260595134347_rgbf000063-resize_4-target.png,1000,2.431,6,7142,1002,feet,jsons/v1_VE1000_randls_29.json,1169314,1491514,67,Man
109,957163,DepthScenes,duration_manipulation_targetAtFixation,jsons/v1_VE1000_randls_29.json,http://54.235.29.9/FacialAge/BNav_EC2/DepthDuration/v2_depth_duration_MTurk/v2_DepthDuration_HTML.html#102,102,1680,1050,1680,1050,8-22-2022,2-1-55,110,depth_duration_stimuli/001167_2014-06-17_15-38-07_260595134347_rgbf000108-resize_0/001167_2014-06-17_15-38-07_260595134347_rgbf000108-resize_0-target.png,1000,1.8505,4,5109,1000,feet,jsons/v1_VE1000_randls_29.json,1169314,1491514,67,Man
110,957163,DepthScenes,duration_manipulation_targetAtFixation,jsons/v1_VE1000_randls_29.json,http://54.235.29.9/FacialAge/BNav_EC2/DepthDuration/v2_depth_duration_MTurk/v2_DepthDuration_HTML.html#102,102,1680,1050,1680,1050,8-22-2022,2-1-55,111,depth_duration_stimuli/003587_2014-05-23_16-48-02_094959634447_rgbf002384-resize_2/003587_2014-05-23_16-48-02_094959634447_rgbf002384-resize_2-target.png,1000,1.357,3,4666,1002,feet,jsons/v1_VE1000_randls_29.json,1169314,1491514,67,Man
111,957163,DepthScenes,duration_manipulation_targetAtFixation,jsons/v1_VE1000_randls_29.json,http://54.235.29.9/FacialAge/BNav_EC2/DepthDuration/v2_depth_duration_MTurk/v2_DepthDuration_HTML.html#102,102,1680,1050,1680,1050,8-22-2022,2-1-55,112,depth_duration_stimuli/000758_2014-06-08_22-05-08_260595134347_rgbf000085-resize_0/000758_2014-06-08_22-05-08_260595134347_rgbf000085-resize_0-target.png,1000,3.3810000000000002,12,4404,1001,feet,jsons/v1_VE1000_randls_29.json,1169314,1491514,67,Man
112,957163,DepthScenes,duration_manipulation_targetAtFixation,jsons/v1_VE1000_randls_29.json,http://54.235.29.9/FacialAge/BNav_EC2/DepthDuration/v2_depth_duration_MTurk/v2_DepthDuration_HTML.html#102,102,1680,1050,1680,1050,8-22-2022,2-1-55,113,depth_duration_stimuli/000854_2014-06-09_19-43-13_260595134347_rgbf000066-resize_0/000854_2014-06-09_19-43-13_260595134347_rgbf000066-resize_0-target.png,1000,3.068,9,4059,1003,feet,jsons/v1_VE1000_randls_29.json,1169314,1491514,67,Man
113,957163,DepthScenes,duration_manipulation_targetAtFixation,jsons/v1_VE1000_randls_29.json,http://54.235.29.9/FacialAge/BNav_EC2/DepthDuration/v2_depth_duration_MTurk/v2_DepthDuration_HTML.html#102,102,1680,1050,1680,1050,8-22-2022,2-1-55,114,depth_duration_stimuli/001806_2014-06-26_20-50-20_260595134347_rgbf000091-resize_1/001806_2014-06-26_20-50-20_260595134347_rgbf000091-resize_1-target.png,1000,2.7305,5,5760,1000,feet,jsons/v1_VE1000_randls_29.json,1169314,1491514,67,Man
114,957163,DepthScenes,duration_manipulation_targetAtFixation,jsons/v1_VE1000_randls_29.json,http://54.235.29.9/FacialAge/BNav_EC2/DepthDuration/v2_depth_duration_MTurk/v2_DepthDuration_HTML.html#102,102,1680,1050,1680,1050,8-22-2022,2-1-55,115,depth_duration_stimuli/001617_2014-06-20_11-35-32_260595134347_rgbf000066-resize_1/001617_2014-06-20_11-35-32_260595134347_rgbf000066-resize_1-target.png,1000,3.7910000000000004,8,6836,992,feet,jsons/v1_VE1000_randls_29.json,1169314,1491514,67,Man
115,957163,DepthScenes,duration_manipulation_targetAtFixation,jsons/v1_VE1000_randls_29.json,http://54.235.29.9/FacialAge/BNav_EC2/DepthDuration/v2_depth_duration_MTurk/v2_DepthDuration_HTML.html#102,102,1680,1050,1680,1050,8-22-2022,2-1-55,116,depth_duration_stimuli/001170_2014-06-17_15-43-44_260595134347_rgbf000096-resize_6/001170_2014-06-17_15-43-44_260595134347_rgbf000096-resize-original.jpg,1000,1.1909999999999998,4,5156,1001,feet,jsons/v1_VE1000_randls_29.json,1169314,1491514,67,Man
116,957163,DepthScenes,duration_manipulation_targetAtFixation,jsons/v1_VE1000_randls_29.json,http://54.235.29.9/FacialAge/BNav_EC2/DepthDuration/v2_depth_duration_MTurk/v2_DepthDuration_HTML.html#102,102,1680,1050,1680,1050,8-22-2022,2-1-55,117,depth_duration_stimuli/002375_2014-06-28_20-13-44_260595134347_rgbf000032-resize_1/002375_2014-06-28_20-13-44_260595134347_rgbf000032-resize_1-target.png,1000,4.0175,5,6483,998,feet,jsons/v1_VE1000_randls_29.json,1169314,1491514,67,Man
117,957163,DepthScenes,duration_manipulation_targetAtFixation,jsons/v1_VE1000_randls_29.json,http://54.235.29.9/FacialAge/BNav_EC2/DepthDuration/v2_depth_duration_MTurk/v2_DepthDuration_HTML.html#102,102,1680,1050,1680,1050,8-22-2022,2-1-55,118,depth_duration_stimuli/002657_2014-06-13_15-29-54_094959634447_rgbf000150-resize_1/002657_2014-06-13_15-29-54_094959634447_rgbf000150-resize_1-target.png,1000,4.919,10,6014,999,feet,jsons/v1_VE1000_randls_29.json,1169314,1491514,67,Man
118,957163,DepthScenes,duration_manipulation_targetAtFixation,jsons/v1_VE1000_randls_29.json,http://54.235.29.9/FacialAge/BNav_EC2/DepthDuration/v2_depth_duration_MTurk/v2_DepthDuration_HTML.html#102,102,1680,1050,1680,1050,8-22-2022,2-1-55,119,depth_duration_stimuli/002964_2014-06-08_17-46-11_094959634447_rgbf000091-resize_4/002964_2014-06-08_17-46-11_094959634447_rgbf000091-resize_4-target.png,1000,1.6909999999999998,5,6631,1003,feet,jsons/v1_VE1000_randls_29.json,1169314,1491514,67,Man
119,957163,DepthScenes,duration_manipulation_targetAtFixation,jsons/v1_VE1000_randls_29.json,http://54.235.29.9/FacialAge/BNav_EC2/DepthDuration/v2_depth_duration_MTurk/v2_DepthDuration_HTML.html#102,102,1680,1050,1680,1050,8-22-2022,2-1-55,120,depth_duration_stimuli/002136_2014-06-25_21-18-03_260595134347_rgbf000109-resize_3/002136_2014-06-25_21-18-03_260595134347_rgbf000109-resize_3-target.png,1000,1.9569999999999999,5,4207,1003,feet,jsons/v1_VE1000_randls_29.json,1169314,1491514,67,Man
120,957163,DepthScenes,duration_manipulation_targetAtFixation,jsons/v1_VE1000_randls_29.json,http://54.235.29.9/FacialAge/BNav_EC2/DepthDuration/v2_depth_duration_MTurk/v2_DepthDuration_HTML.html#102,102,1680,1050,1680,1050,8-22-2022,2-1-55,121,depth_duration_stimuli/002509_2014-06-24_13-19-22_094959634447_rgbf000077-resize_0/002509_2014-06-24_13-19-22_094959634447_rgbf000077-resize_0-target.png,1000,1.3065,5,5589,1000,feet,jsons/v1_VE1000_randls_29.json,1169314,1491514,67,Man
121,957163,DepthScenes,duration_manipulation_targetAtFixation,jsons/v1_VE1000_randls_29.json,http://54.235.29.9/FacialAge/BNav_EC2/DepthDuration/v2_depth_duration_MTurk/v2_DepthDuration_HTML.html#102,102,1680,1050,1680,1050,8-22-2022,2-1-55,122,depth_duration_stimuli/003338_2014-05-20_11-01-23_094959634447_rgbf000051-resize_6/003338_2014-05-20_11-01-23_094959634447_rgbf000051-resize_6-target.png,1000,1.693,4,4043,1001,feet,jsons/v1_VE1000_randls_29.json,1169314,1491514,67,Man
122,957163,DepthScenes,duration_manipulation_targetAtFixation,jsons/v1_VE1000_randls_29.json,http://54.235.29.9/FacialAge/BNav_EC2/DepthDuration/v2_depth_duration_MTurk/v2_DepthDuration_HTML.html#102,102,1680,1050,1680,1050,8-22-2022,2-1-55,123,depth_duration_stimuli/001449_2014-06-19_17-01-27_260595134347_rgbf000116-resize_2/001449_2014-06-19_17-01-27_260595134347_rgbf000116-resize_2-target.png,1000,3.452,7,5122,999,feet,jsons/v1_VE1000_randls_29.json,1169314,1491514,67,Man
123,957163,DepthScenes,duration_manipulation_targetAtFixation,jsons/v1_VE1000_randls_29.json,http://54.235.29.9/FacialAge/BNav_EC2/DepthDuration/v2_depth_duration_MTurk/v2_DepthDuration_HTML.html#102,102,1680,1050,1680,1050,8-22-2022,2-1-55,124,depth_duration_stimuli/001450_2014-06-19_17-02-03_260595134347_rgbf000203-resize_4/001450_2014-06-19_17-02-03_260595134347_rgbf000203-resize_4-target.png,1000,4.0106666666667,11,5457,999,feet,jsons/v1_VE1000_randls_29.json,1169314,1491514,67,Man
124,957163,DepthScenes,duration_manipulation_targetAtFixation,jsons/v1_VE1000_randls_29.json,http://54.235.29.9/FacialAge/BNav_EC2/DepthDuration/v2_depth_duration_MTurk/v2_DepthDuration_HTML.html#102,102,1680,1050,1680,1050,8-22-2022,2-1-55,125,depth_duration_stimuli/002630_2014-06-24_14-47-50_094959634447_rgbf000055-resize_1/002630_2014-06-24_14-47-50_094959634447_rgbf000055-resize_1-target.png,1000,3.0095,14,6609,1005,feet,jsons/v1_VE1000_randls_29.json,1169314,1491514,67,Man
125,957163,DepthScenes,duration_manipulation_targetAtFixation,jsons/v1_VE1000_randls_29.json,http://54.235.29.9/FacialAge/BNav_EC2/DepthDuration/v2_depth_duration_MTurk/v2_DepthDuration_HTML.html#102,102,1680,1050,1680,1050,8-22-2022,2-1-55,126,depth_duration_stimuli/002758_2014-06-22_19-11-20_094959634447_rgbf000128-resize_1/002758_2014-06-22_19-11-20_094959634447_rgbf000128-resize_1-target.png,1000,2.555,5,6727,1000,feet,jsons/v1_VE1000_randls_29.json,1169314,1491514,67,Man
126,957163,DepthScenes,duration_manipulation_targetAtFixation,jsons/v1_VE1000_randls_29.json,http://54.235.29.9/FacialAge/BNav_EC2/DepthDuration/v2_depth_duration_MTurk/v2_DepthDuration_HTML.html#102,102,1680,1050,1680,1050,8-22-2022,2-1-55,127,depth_duration_stimuli/000682_2014-06-08_23-14-58_260595134347_rgbf000041-resize_5/000682_2014-06-08_23-14-58_260595134347_rgbf000041-resize_5-target.png,1000,2.7239999999999998,5,6836,998,feet,jsons/v1_VE1000_randls_29.json,1169314,1491514,67,Man
127,957163,DepthScenes,duration_manipulation_targetAtFixation,jsons/v1_VE1000_randls_29.json,http://54.235.29.9/FacialAge/BNav_EC2/DepthDuration/v2_depth_duration_MTurk/v2_DepthDuration_HTML.html#102,102,1680,1050,1680,1050,8-22-2022,2-1-55,128,depth_duration_stimuli/001650_2014-06-20_12-09-00_260595134347_rgbf000087-resize_3/001650_2014-06-20_12-09-00_260595134347_rgbf000087-resize_3-target.png,1000,1.9505,4,5286,1002,feet,jsons/v1_VE1000_randls_29.json,1169314,1491514,67,Man
128,957163,DepthScenes,duration_manipulation_targetAtFixation,jsons/v1_VE1000_randls_29.json,http://54.235.29.9/FacialAge/BNav_EC2/DepthDuration/v2_depth_duration_MTurk/v2_DepthDuration_HTML.html#102,102,1680,1050,1680,1050,8-22-2022,2-1-55,129,depth_duration_stimuli/001059_2014-06-08_21-53-27_260595134347_rgbf000061-resize_4/001059_2014-06-08_21-53-27_260595134347_rgbf000061-resize_4-target.png,1000,2.4185,6,5273,1003,feet,jsons/v1_VE1000_randls_29.json,1169314,1491514,67,Man
129,957163,DepthScenes,duration_manipulation_targetAtFixation,jsons/v1_VE1000_randls_29.json,http://54.235.29.9/FacialAge/BNav_EC2/DepthDuration/v2_depth_duration_MTurk/v2_DepthDuration_HTML.html#102,102,1680,1050,1680,1050,8-22-2022,2-1-55,130,depth_duration_stimuli/001032_2014-06-08_13-23-17_260595134347_rgbf000021-resize_3/001032_2014-06-08_13-23-17_260595134347_rgbf000021-resize_3-target.png,1000,3.2725,6,3755,997,feet,jsons/v1_VE1000_randls_29.json,1169314,1491514,67,Man
130,957163,DepthScenes,duration_manipulation_targetAtFixation,jsons/v1_VE1000_randls_29.json,http://54.235.29.9/FacialAge/BNav_EC2/DepthDuration/v2_depth_duration_MTurk/v2_DepthDuration_HTML.html#102,102,1680,1050,1680,1050,8-22-2022,2-1-55,131,depth_duration_stimuli/002118_2014-06-25_20-32-08_260595134347_rgbf000078-resize_1/002118_2014-06-25_20-32-08_260595134347_rgbf000078-resize_1-target.png,1000,2.6460000000000004,7,5309,1003,feet,jsons/v1_VE1000_randls_29.json,1169314,1491514,67,Man
131,957163,DepthScenes,duration_manipulation_targetAtFixation,jsons/v1_VE1000_randls_29.json,http://54.235.29.9/FacialAge/BNav_EC2/DepthDuration/v2_depth_duration_MTurk/v2_DepthDuration_HTML.html#102,102,1680,1050,1680,1050,8-22-2022,2-1-55,132,depth_duration_stimuli/001516_2014-06-20_16-25-09_260595134347_rgbf000076-resize_2/001516_2014-06-20_16-25-09_260595134347_rgbf000076-resize_2-target.png,1000,1.7445,5,8956,999,feet,jsons/v1_VE1000_randls_29.json,1169314,1491514,67,Man
132,957163,DepthScenes,duration_manipulation_targetAtFixation,jsons/v1_VE1000_randls_29.json,http://54.235.29.9/FacialAge/BNav_EC2/DepthDuration/v2_depth_duration_MTurk/v2_DepthDuration_HTML.html#102,102,1680,1050,1680,1050,8-22-2022,2-1-55,133,depth_duration_stimuli/002279_2014-06-28_18-55-32_260595134347_rgbf000040-resize_5/002279_2014-06-28_18-55-32_260595134347_rgbf000040-resize_5-target.png,1000,1.5043333333333,5,3897,1003,feet,jsons/v1_VE1000_randls_29.json,1169314,1491514,67,Man
133,957163,DepthScenes,duration_manipulation_targetAtFixation,jsons/v1_VE1000_randls_29.json,http://54.235.29.9/FacialAge/BNav_EC2/DepthDuration/v2_depth_duration_MTurk/v2_DepthDuration_HTML.html#102,102,1680,1050,1680,1050,8-22-2022,2-1-55,134,depth_duration_stimuli/000635_2014-06-08_16-38-42_260595134347_rgbf000106-resize_1/000635_2014-06-08_16-38-42_260595134347_rgbf000106-resize_1-target.png,1000,2.074,6,6243,996,feet,jsons/v1_VE1000_randls_29.json,1169314,1491514,67,Man
134,957163,DepthScenes,duration_manipulation_targetAtFixation,jsons/v1_VE1000_randls_29.json,http://54.235.29.9/FacialAge/BNav_EC2/DepthDuration/v2_depth_duration_MTurk/v2_DepthDuration_HTML.html#102,102,1680,1050,1680,1050,8-22-2022,2-1-55,135,depth_duration_stimuli/002072_2014-06-24_21-48-06_260595134347_rgbf000115-resize_0/002072_2014-06-24_21-48-06_260595134347_rgbf000115-resize-original.jpg,1000,4.702,0,4887,1016,feet,jsons/v1_VE1000_randls_29.json,1169314,1491514,67,Man
135,957163,DepthScenes,duration_manipulation_targetAtFixation,jsons/v1_VE1000_randls_29.json,http://54.235.29.9/FacialAge/BNav_EC2/DepthDuration/v2_depth_duration_MTurk/v2_DepthDuration_HTML.html#102,102,1680,1050,1680,1050,8-22-2022,2-1-55,136,depth_duration_stimuli/000878_2014-06-08_22-52-45_260595134347_rgbf000045-resize_2/000878_2014-06-08_22-52-45_260595134347_rgbf000045-resize_2-target.png,1000,2.092,8,5648,1003,feet,jsons/v1_VE1000_randls_29.json,1169314,1491514,67,Man
136,957163,DepthScenes,duration_manipulation_targetAtFixation,jsons/v1_VE1000_randls_29.json,http://54.235.29.9/FacialAge/BNav_EC2/DepthDuration/v2_depth_duration_MTurk/v2_DepthDuration_HTML.html#102,102,1680,1050,1680,1050,8-22-2022,2-1-55,137,depth_duration_stimuli/002953_2014-06-08_17-32-18_094959634447_rgbf000059-resize_5/002953_2014-06-08_17-32-18_094959634447_rgbf000059-resize_5-target.png,1000,1.551,4,4194,1004,feet,jsons/v1_VE1000_randls_29.json,1169314,1491514,67,Man
137,957163,DepthScenes,duration_manipulation_targetAtFixation,jsons/v1_VE1000_randls_29.json,http://54.235.29.9/FacialAge/BNav_EC2/DepthDuration/v2_depth_duration_MTurk/v2_DepthDuration_HTML.html#102,102,1680,1050,1680,1050,8-22-2022,2-1-55,138,depth_duration_stimuli/001110_2014-06-15_17-25-28_260595134347_rgbf000150-resize_1/001110_2014-06-15_17-25-28_260595134347_rgbf000150-resize_1-target.png,1000,1.7115,6,5180,1000,feet,jsons/v1_VE1000_randls_29.json,1169314,1491514,67,Man
138,957163,DepthScenes,duration_manipulation_targetAtFixation,jsons/v1_VE1000_randls_29.json,http://54.235.29.9/FacialAge/BNav_EC2/DepthDuration/v2_depth_duration_MTurk/v2_DepthDuration_HTML.html#102,102,1680,1050,1680,1050,8-22-2022,2-1-55,139,depth_duration_stimuli/000927_2014-06-09_16-32-30_260595134347_rgbf000123-resize_3/000927_2014-06-09_16-32-30_260595134347_rgbf000123-resize_3-target.png,1000,2.6785,8,8654,1000,feet,jsons/v1_VE1000_randls_29.json,1169314,1491514,67,Man
139,957163,DepthScenes,duration_manipulation_targetAtFixation,jsons/v1_VE1000_randls_29.json,http://54.235.29.9/FacialAge/BNav_EC2/DepthDuration/v2_depth_duration_MTurk/v2_DepthDuration_HTML.html#102,102,1680,1050,1680,1050,8-22-2022,2-1-55,140,depth_duration_stimuli/000642_2014-06-08_16-59-25_260595134347_rgbf000098-resize_2/000642_2014-06-08_16-59-25_260595134347_rgbf000098-resize_2-target.png,1000,2.8815,7,3690,1004,feet,jsons/v1_VE1000_randls_29.json,1169314,1491514,67,Man
140,957163,DepthScenes,duration_manipulation_targetAtFixation,jsons/v1_VE1000_randls_29.json,http://54.235.29.9/FacialAge/BNav_EC2/DepthDuration/v2_depth_duration_MTurk/v2_DepthDuration_HTML.html#102,102,1680,1050,1680,1050,8-22-2022,2-1-55,141,depth_duration_stimuli/002425_2014-06-28_20-27-29_260595134347_rgbf000031-resize_8/002425_2014-06-28_20-27-29_260595134347_rgbf000031-resize_8-target.png,1000,3.8960000000000004,10,9334,1000,feet,jsons/v1_VE1000_randls_29.json,1169314,1491514,67,Man
141,957163,DepthScenes,duration_manipulation_targetAtFixation,jsons/v1_VE1000_randls_29.json,http://54.235.29.9/FacialAge/BNav_EC2/DepthDuration/v2_depth_duration_MTurk/v2_DepthDuration_HTML.html#102,102,1680,1050,1680,1050,8-22-2022,2-1-55,142,depth_duration_stimuli/000009_2014-05-26_14-32-05_260595134347_rgbf000034-resize_3/000009_2014-05-26_14-32-05_260595134347_rgbf000034-resize_3-target.png,1000,3.8715,16,5491,998,feet,jsons/v1_VE1000_randls_29.json,1169314,1491514,67,Man
142,957163,DepthScenes,duration_manipulation_targetAtFixation,jsons/v1_VE1000_randls_29.json,http://54.235.29.9/FacialAge/BNav_EC2/DepthDuration/v2_depth_duration_MTurk/v2_DepthDuration_HTML.html#102,102,1680,1050,1680,1050,8-22-2022,2-1-55,143,depth_duration_stimuli/001828_2014-06-26_21-40-03_260595134347_rgbf000024-resize_0/001828_2014-06-26_21-40-03_260595134347_rgbf000024-resize_0-target.png,1000,4.8260000000000005,15,4712,1000,feet,jsons/v1_VE1000_randls_29.json,1169314,1491514,67,Man
143,957163,DepthScenes,duration_manipulation_targetAtFixation,jsons/v1_VE1000_randls_29.json,http://54.235.29.9/FacialAge/BNav_EC2/DepthDuration/v2_depth_duration_MTurk/v2_DepthDuration_HTML.html#102,102,1680,1050,1680,1050,8-22-2022,2-1-55,144,depth_duration_stimuli/002272_2014-06-28_18-53-56_260595134347_rgbf000067-resize_2/002272_2014-06-28_18-53-56_260595134347_rgbf000067-resize_2-target.png,1000,1.138,4,4641,1002,feet,jsons/v1_VE1000_randls_29.json,1169314,1491514,67,Man
144,957163,DepthScenes,duration_manipulation_targetAtFixation,jsons/v1_VE1000_randls_29.json,http://54.235.29.9/FacialAge/BNav_EC2/DepthDuration/v2_depth_duration_MTurk/v2_DepthDuration_HTML.html#102,102,1680,1050,1680,1050,8-22-2022,2-1-55,145,depth_duration_stimuli/001571_2014-06-20_17-21-32_260595134347_rgbf000089-resize_1/001571_2014-06-20_17-21-32_260595134347_rgbf000089-resize_1-target.png,1000,1.86,5,4201,1003,feet,jsons/v1_VE1000_randls_29.json,1169314,1491514,67,Man
145,957163,DepthScenes,duration_manipulation_targetAtFixation,jsons/v1_VE1000_randls_29.json,http://54.235.29.9/FacialAge/BNav_EC2/DepthDuration/v2_depth_duration_MTurk/v2_DepthDuration_HTML.html#102,102,1680,1050,1680,1050,8-22-2022,2-1-55,146,depth_duration_stimuli/001498_2014-06-19_17-45-14_260595134347_rgbf000129-resize_4/001498_2014-06-19_17-45-14_260595134347_rgbf000129-resize-original.jpg,1000,1.4075,0,9272,1002,feet,jsons/v1_VE1000_randls_29.json,1169314,1491514,67,Man
146,957163,DepthScenes,duration_manipulation_targetAtFixation,jsons/v1_VE1000_randls_29.json,http://54.235.29.9/FacialAge/BNav_EC2/DepthDuration/v2_depth_duration_MTurk/v2_DepthDuration_HTML.html#102,102,1680,1050,1680,1050,8-22-2022,2-1-55,147,depth_duration_stimuli/002153_2014-06-25_21-27-18_260595134347_rgbf000038-resize_5/002153_2014-06-25_21-27-18_260595134347_rgbf000038-resize_5-target.png,1000,2.505,6,6596,999,feet,jsons/v1_VE1000_randls_29.json,1169314,1491514,67,Man
147,957163,DepthScenes,duration_manipulation_targetAtFixation,jsons/v1_VE1000_randls_29.json,http://54.235.29.9/FacialAge/BNav_EC2/DepthDuration/v2_depth_duration_MTurk/v2_DepthDuration_HTML.html#102,102,1680,1050,1680,1050,8-22-2022,2-1-55,148,depth_duration_stimuli/002660_2014-06-13_15-44-18_094959634447_rgbf001878-resize_2/002660_2014-06-13_15-44-18_094959634447_rgbf001878-resize_2-target.png,1000,3.576,8,4431,999,feet,jsons/v1_VE1000_randls_29.json,1169314,1491514,67,Man
148,957163,DepthScenes,duration_manipulation_targetAtFixation,jsons/v1_VE1000_randls_29.json,http://54.235.29.9/FacialAge/BNav_EC2/DepthDuration/v2_depth_duration_MTurk/v2_DepthDuration_HTML.html#102,102,1680,1050,1680,1050,8-22-2022,2-1-55,149,depth_duration_stimuli/002763_2014-06-22_19-13-10_094959634447_rgbf000075-resize_4/002763_2014-06-22_19-13-10_094959634447_rgbf000075-resize_4-target.png,1000,1.68375,6,5867,999,feet,jsons/v1_VE1000_randls_29.json,1169314,1491514,67,Man
149,957163,DepthScenes,duration_manipulation_targetAtFixation,jsons/v1_VE1000_randls_29.json,http://54.235.29.9/FacialAge/BNav_EC2/DepthDuration/v2_depth_duration_MTurk/v2_DepthDuration_HTML.html#102,102,1680,1050,1680,1050,8-22-2022,2-1-55,150,depth_duration_stimuli/002209_2014-06-28_18-36-10_260595134347_rgbf000051-resize_1/002209_2014-06-28_18-36-10_260595134347_rgbf000051-resize_1-target.png,1000,2.057,5,4928,1000,feet,jsons/v1_VE1000_randls_29.json,1169314,1491514,67,Man
150,957163,DepthScenes,duration_manipulation_targetAtFixation,jsons/v1_VE1000_randls_29.json,http://54.235.29.9/FacialAge/BNav_EC2/DepthDuration/v2_depth_duration_MTurk/v2_DepthDuration_HTML.html#102,102,1680,1050,1680,1050,8-22-2022,2-1-55,151,depth_duration_stimuli/000810_2014-06-08_17-20-01_260595134347_rgbf000105-resize_0/000810_2014-06-08_17-20-01_260595134347_rgbf000105-resize_0-target.png,1000,1.4865,5,5285,1001,feet,jsons/v1_VE1000_randls_29.json,1169314,1491514,67,Man
151,957163,DepthScenes,duration_manipulation_targetAtFixation,jsons/v1_VE1000_randls_29.json,http://54.235.29.9/FacialAge/BNav_EC2/DepthDuration/v2_depth_duration_MTurk/v2_DepthDuration_HTML.html#102,102,1680,1050,1680,1050,8-22-2022,2-1-55,152,depth_duration_stimuli/001214_2014-06-17_16-13-55_260595134347_rgbf000111-resize_0/001214_2014-06-17_16-13-55_260595134347_rgbf000111-resize_0-target.png,1000,2.6505,6,4402,1003,feet,jsons/v1_VE1000_randls_29.json,1169314,1491514,67,Man
152,957163,DepthScenes,duration_manipulation_targetAtFixation,jsons/v1_VE1000_randls_29.json,http://54.235.29.9/FacialAge/BNav_EC2/DepthDuration/v2_depth_duration_MTurk/v2_DepthDuration_HTML.html#102,102,1680,1050,1680,1050,8-22-2022,2-1-55,153,depth_duration_stimuli/000470_2014-06-09_19-42-40_260595134347_rgbf000094-resize_1/000470_2014-06-09_19-42-40_260595134347_rgbf000094-resize_1-target.png,1000,1.831,4,4426,1002,feet,jsons/v1_VE1000_randls_29.json,1169314,1491514,67,Man
153,957163,DepthScenes,duration_manipulation_targetAtFixation,jsons/v1_VE1000_randls_29.json,http://54.235.29.9/FacialAge/BNav_EC2/DepthDuration/v2_depth_duration_MTurk/v2_DepthDuration_HTML.html#102,102,1680,1050,1680,1050,8-22-2022,2-1-55,154,depth_duration_stimuli/000109_2014-05-14_23-41-52_260595134347_rgbf000035-resize_9/000109_2014-05-14_23-41-52_260595134347_rgbf000035-resize_9-target.png,1000,1.3545,4,3736,1002,feet,jsons/v1_VE1000_randls_29.json,1169314,1491514,67,Man
154,957163,DepthScenes,duration_manipulation_targetAtFixation,jsons/v1_VE1000_randls_29.json,http://54.235.29.9/FacialAge/BNav_EC2/DepthDuration/v2_depth_duration_MTurk/v2_DepthDuration_HTML.html#102,102,1680,1050,1680,1050,8-22-2022,2-1-55,155,depth_duration_stimuli/001016_2014-06-09_16-16-10_260595134347_rgbf000112-resize_5/001016_2014-06-09_16-16-10_260595134347_rgbf000112-resize_5-target.png,1000,1.6565,5,4862,1004,feet,jsons/v1_VE1000_randls_29.json,1169314,1491514,67,Man
155,957163,DepthScenes,duration_manipulation_targetAtFixation,jsons/v1_VE1000_randls_29.json,http://54.235.29.9/FacialAge/BNav_EC2/DepthDuration/v2_depth_duration_MTurk/v2_DepthDuration_HTML.html#102,102,1680,1050,1680,1050,8-22-2022,2-1-55,156,depth_duration_stimuli/002340_2014-06-28_20-05-46_260595134347_rgbf000113-resize_0/002340_2014-06-28_20-05-46_260595134347_rgbf000113-resize_0-target.png,1000,2.4735,10,7232,1001,feet,jsons/v1_VE1000_randls_29.json,1169314,1491514,67,Man
156,957163,DepthScenes,duration_manipulation_targetAtFixation,jsons/v1_VE1000_randls_29.json,http://54.235.29.9/FacialAge/BNav_EC2/DepthDuration/v2_depth_duration_MTurk/v2_DepthDuration_HTML.html#102,102,1680,1050,1680,1050,8-22-2022,2-1-55,157,depth_duration_stimuli/001011_2014-06-08_23-18-54_260595134347_rgbf000044-resize_4/001011_2014-06-08_23-18-54_260595134347_rgbf000044-resize_4-target.png,1000,2.4730000000000003,11,4862,1000,feet,jsons/v1_VE1000_randls_29.json,1169314,1491514,67,Man
157,957163,DepthScenes,duration_manipulation_targetAtFixation,jsons/v1_VE1000_randls_29.json,http://54.235.29.9/FacialAge/BNav_EC2/DepthDuration/v2_depth_duration_MTurk/v2_DepthDuration_HTML.html#102,102,1680,1050,1680,1050,8-22-2022,2-1-55,158,depth_duration_stimuli/002875_2014-06-01_15-19-00_094959634447_rgbf000151-resize_1/002875_2014-06-01_15-19-00_094959634447_rgbf000151-resize_1-target.png,1000,1.9675,7,4670,998,feet,jsons/v1_VE1000_randls_29.json,1169314,1491514,67,Man
158,957163,DepthScenes,duration_manipulation_targetAtFixation,jsons/v1_VE1000_randls_29.json,http://54.235.29.9/FacialAge/BNav_EC2/DepthDuration/v2_depth_duration_MTurk/v2_DepthDuration_HTML.html#102,102,1680,1050,1680,1050,8-22-2022,2-1-55,159,depth_duration_stimuli/001150_2014-06-17_15-27-34_260595134347_rgbf000108-resize_2/001150_2014-06-17_15-27-34_260595134347_rgbf000108-resize_2-target.png,1000,4.0325,11,4832,1002,feet,jsons/v1_VE1000_randls_29.json,1169314,1491514,67,Man
159,957163,DepthScenes,duration_manipulation_targetAtFixation,jsons/v1_VE1000_randls_29.json,http://54.235.29.9/FacialAge/BNav_EC2/DepthDuration/v2_depth_duration_MTurk/v2_DepthDuration_HTML.html#102,102,1680,1050,1680,1050,8-22-2022,2-1-55,160,depth_duration_stimuli/000665_2014-06-09_20-42-35_260595134347_rgbf000110-resize_1/000665_2014-06-09_20-42-35_260595134347_rgbf000110-resize_1-target.png,1000,3.057,9,5787,995,feet,jsons/v1_VE1000_randls_29.json,1169314,1491514,67,Man
160,957163,DepthScenes,duration_manipulation_targetAtFixation,jsons/v1_VE1000_randls_29.json,http://54.235.29.9/FacialAge/BNav_EC2/DepthDuration/v2_depth_duration_MTurk/v2_DepthDuration_HTML.html#102,102,1680,1050,1680,1050,8-22-2022,2-1-55,161,depth_duration_stimuli/000788_2014-06-08_22-34-36_260595134347_rgbf000131-resize_1/000788_2014-06-08_22-34-36_260595134347_rgbf000131-resize_1-target.png,1000,3.359,8,5176,1002,feet,jsons/v1_VE1000_randls_29.json,1169314,1491514,67,Man
161,957163,DepthScenes,duration_manipulation_targetAtFixation,jsons/v1_VE1000_randls_29.json,http://54.235.29.9/FacialAge/BNav_EC2/DepthDuration/v2_depth_duration_MTurk/v2_DepthDuration_HTML.html#102,102,1680,1050,1680,1050,8-22-2022,2-1-55,162,depth_duration_stimuli/001235_2014-06-17_16-37-36_260595134347_rgbf000084-resize_4/001235_2014-06-17_16-37-36_260595134347_rgbf000084-resize_4-target.png,1000,3.6605,11,5512,1000,feet,jsons/v1_VE1000_randls_29.json,1169314,1491514,67,Man
162,957163,DepthScenes,duration_manipulation_targetAtFixation,jsons/v1_VE1000_randls_29.json,http://54.235.29.9/FacialAge/BNav_EC2/DepthDuration/v2_depth_duration_MTurk/v2_DepthDuration_HTML.html#102,102,1680,1050,1680,1050,8-22-2022,2-1-55,163,depth_duration_stimuli/001808_2014-06-26_20-50-58_260595134347_rgbf000029-resize_1/001808_2014-06-26_20-50-58_260595134347_rgbf000029-resize_1-target.png,1000,4.249,12,4211,996,feet,jsons/v1_VE1000_randls_29.json,1169314,1491514,67,Man
163,957163,DepthScenes,duration_manipulation_targetAtFixation,jsons/v1_VE1000_randls_29.json,http://54.235.29.9/FacialAge/BNav_EC2/DepthDuration/v2_depth_duration_MTurk/v2_DepthDuration_HTML.html#102,102,1680,1050,1680,1050,8-22-2022,2-1-55,164,depth_duration_stimuli/001815_2014-06-26_20-52-55_260595134347_rgbf000020-resize_0/001815_2014-06-26_20-52-55_260595134347_rgbf000020-resize_0-target.png,1000,3.3865,13,4785,1002,feet,jsons/v1_VE1000_randls_29.json,1169314,1491514,67,Man
