,subjID,experimentName,versionName,sequenceName,url,selected_row,windowWidth,windowHeight,screenWidth,screenHeight,startDate,startTime,trial,stimulus,duration,actual_depth,depth_estimate,trial_RT,log_sceneDuration,unitSelection,seq_filepath,experimentTime,totalTime,age,gender
0,958879,DepthScenes,duration_manipulation_targetAtFixation,jsons/VE125_randls_16.json,http://54.235.29.9/FacialAge/BNav_EC2/DepthDuration/v2_depth_duration_MTurk/v2_DepthDuration_HTML.html#153,153,1707,960,1366,768,8-21-2022,10-52-51,1,depth_duration_stimuli/002748_2014-06-22_19-07-22_094959634447_rgbf000078-resize_1/002748_2014-06-22_19-07-22_094959634447_rgbf000078-resize_1-target.png,125,4.6705,3,3215,122,feet,jsons/VE125_randls_16.json,746674,1156402,48,Woman
1,958879,DepthScenes,duration_manipulation_targetAtFixation,jsons/VE125_randls_16.json,http://54.235.29.9/FacialAge/BNav_EC2/DepthDuration/v2_depth_duration_MTurk/v2_DepthDuration_HTML.html#153,153,1707,960,1366,768,8-21-2022,10-52-51,2,depth_duration_stimuli/002995_2014-06-15_12-31-26_094959634447_rgbf000150-resize_1/002995_2014-06-15_12-31-26_094959634447_rgbf000150-resize_1-target.png,125,3.8360000000000003,5,4182,126,feet,jsons/VE125_randls_16.json,746674,1156402,48,Woman
2,958879,DepthScenes,duration_manipulation_targetAtFixation,jsons/VE125_randls_16.json,http://54.235.29.9/FacialAge/BNav_EC2/DepthDuration/v2_depth_duration_MTurk/v2_DepthDuration_HTML.html#153,153,1707,781,1366,768,8-21-2022,10-52-51,3,depth_duration_stimuli/002663_2014-06-13_15-50-26_094959634447_rgbf000075-resize_1/002663_2014-06-13_15-50-26_094959634447_rgbf000075-resize_1-target.png,125,4.7495,5,15089,146,feet,jsons/VE125_randls_16.json,746674,1156402,48,Woman
3,958879,DepthScenes,duration_manipulation_targetAtFixation,jsons/VE125_randls_16.json,http://54.235.29.9/FacialAge/BNav_EC2/DepthDuration/v2_depth_duration_MTurk/v2_DepthDuration_HTML.html#153,153,1707,781,1366,768,8-21-2022,10-52-51,4,depth_duration_stimuli/000409_2014-06-04_19-23-33_260595134347_rgbf000067-resize_0/000409_2014-06-04_19-23-33_260595134347_rgbf000067-resize_0-target.png,125,3.7335,5,202377,124,feet,jsons/VE125_randls_16.json,746674,1156402,48,Woman
4,958879,DepthScenes,duration_manipulation_targetAtFixation,jsons/VE125_randls_16.json,http://54.235.29.9/FacialAge/BNav_EC2/DepthDuration/v2_depth_duration_MTurk/v2_DepthDuration_HTML.html#153,153,1707,781,1366,768,8-21-2022,10-52-51,5,depth_duration_stimuli/000758_2014-06-08_22-05-08_260595134347_rgbf000085-resize_0/000758_2014-06-08_22-05-08_260595134347_rgbf000085-resize_0-target.png,125,3.3810000000000002,3,4511,113,feet,jsons/VE125_randls_16.json,746674,1156402,48,Woman
5,958879,DepthScenes,duration_manipulation_targetAtFixation,jsons/VE125_randls_16.json,http://54.235.29.9/FacialAge/BNav_EC2/DepthDuration/v2_depth_duration_MTurk/v2_DepthDuration_HTML.html#153,153,1707,781,1366,768,8-21-2022,10-52-51,6,depth_duration_stimuli/000854_2014-06-09_19-43-13_260595134347_rgbf000066-resize_0/000854_2014-06-09_19-43-13_260595134347_rgbf000066-resize_0-target.png,125,3.068,4,9014,126,feet,jsons/VE125_randls_16.json,746674,1156402,48,Woman
6,958879,DepthScenes,duration_manipulation_targetAtFixation,jsons/VE125_randls_16.json,http://54.235.29.9/FacialAge/BNav_EC2/DepthDuration/v2_depth_duration_MTurk/v2_DepthDuration_HTML.html#153,153,1707,781,1366,768,8-21-2022,10-52-51,7,depth_duration_stimuli/000009_2014-05-26_14-32-05_260595134347_rgbf000034-resize_3/000009_2014-05-26_14-32-05_260595134347_rgbf000034-resize_3-target.png,125,3.8715,2,4770,118,feet,jsons/VE125_randls_16.json,746674,1156402,48,Woman
7,958879,DepthScenes,duration_manipulation_targetAtFixation,jsons/VE125_randls_16.json,http://54.235.29.9/FacialAge/BNav_EC2/DepthDuration/v2_depth_duration_MTurk/v2_DepthDuration_HTML.html#153,153,1707,781,1366,768,8-21-2022,10-52-51,8,depth_duration_stimuli/001828_2014-06-26_21-40-03_260595134347_rgbf000024-resize_0/001828_2014-06-26_21-40-03_260595134347_rgbf000024-resize_0-target.png,125,4.8260000000000005,2,2666,123,feet,jsons/VE125_randls_16.json,746674,1156402,48,Woman
8,958879,DepthScenes,duration_manipulation_targetAtFixation,jsons/VE125_randls_16.json,http://54.235.29.9/FacialAge/BNav_EC2/DepthDuration/v2_depth_duration_MTurk/v2_DepthDuration_HTML.html#153,153,1707,781,1366,768,8-21-2022,10-52-51,9,depth_duration_stimuli/002213_2014-06-28_18-37-58_260595134347_rgbf000055-resize_1/002213_2014-06-28_18-37-58_260595134347_rgbf000055-resize_1-target.png,125,3.62,2,2187,139,feet,jsons/VE125_randls_16.json,746674,1156402,48,Woman
9,958879,DepthScenes,duration_manipulation_targetAtFixation,jsons/VE125_randls_16.json,http://54.235.29.9/FacialAge/BNav_EC2/DepthDuration/v2_depth_duration_MTurk/v2_DepthDuration_HTML.html#153,153,1707,781,1366,768,8-21-2022,10-52-51,10,depth_duration_stimuli/000691_2014-06-08_13-08-50_260595134347_rgbf000132-resize_3/000691_2014-06-08_13-08-50_260595134347_rgbf000132-resize_3-target.png,125,4.1530000000000005,4,2495,136,feet,jsons/VE125_randls_16.json,746674,1156402,48,Woman
10,958879,DepthScenes,duration_manipulation_targetAtFixation,jsons/VE125_randls_16.json,http://54.235.29.9/FacialAge/BNav_EC2/DepthDuration/v2_depth_duration_MTurk/v2_DepthDuration_HTML.html#153,153,1707,781,1366,768,8-21-2022,10-52-51,11,depth_duration_stimuli/000506_2014-06-08_23-21-00_260595134347_rgbf000070-resize_7/000506_2014-06-08_23-21-00_260595134347_rgbf000070-resize_7-target.png,125,4.0585,4,2083,124,feet,jsons/VE125_randls_16.json,746674,1156402,48,Woman
11,958879,DepthScenes,duration_manipulation_targetAtFixation,jsons/VE125_randls_16.json,http://54.235.29.9/FacialAge/BNav_EC2/DepthDuration/v2_depth_duration_MTurk/v2_DepthDuration_HTML.html#153,153,1707,781,1366,768,8-21-2022,10-52-51,12,depth_duration_stimuli/003079_2014-06-15_15-18-20_094959634447_rgbf000152-resize_8/003079_2014-06-15_15-18-20_094959634447_rgbf000152-resize_8-target.png,125,2.8775,5,2260,121,feet,jsons/VE125_randls_16.json,746674,1156402,48,Woman
12,958879,DepthScenes,duration_manipulation_targetAtFixation,jsons/VE125_randls_16.json,http://54.235.29.9/FacialAge/BNav_EC2/DepthDuration/v2_depth_duration_MTurk/v2_DepthDuration_HTML.html#153,153,1707,781,1366,768,8-21-2022,10-52-51,13,depth_duration_stimuli/000569_2014-06-09_22-51-47_260595134347_rgbf000141-resize_3/000569_2014-06-09_22-51-47_260595134347_rgbf000141-resize-original.jpg,125,4.512,5,2164,125,feet,jsons/VE125_randls_16.json,746674,1156402,48,Woman
13,958879,DepthScenes,duration_manipulation_targetAtFixation,jsons/VE125_randls_16.json,http://54.235.29.9/FacialAge/BNav_EC2/DepthDuration/v2_depth_duration_MTurk/v2_DepthDuration_HTML.html#153,153,1707,781,1366,768,8-21-2022,10-52-51,14,depth_duration_stimuli/001110_2014-06-15_17-25-28_260595134347_rgbf000150-resize_1/001110_2014-06-15_17-25-28_260595134347_rgbf000150-resize_1-target.png,125,1.7115,5,2055,118,feet,jsons/VE125_randls_16.json,746674,1156402,48,Woman
14,958879,DepthScenes,duration_manipulation_targetAtFixation,jsons/VE125_randls_16.json,http://54.235.29.9/FacialAge/BNav_EC2/DepthDuration/v2_depth_duration_MTurk/v2_DepthDuration_HTML.html#153,153,1707,781,1366,768,8-21-2022,10-52-51,15,depth_duration_stimuli/000927_2014-06-09_16-32-30_260595134347_rgbf000123-resize_3/000927_2014-06-09_16-32-30_260595134347_rgbf000123-resize_3-target.png,125,2.6785,5,2275,129,feet,jsons/VE125_randls_16.json,746674,1156402,48,Woman
15,958879,DepthScenes,duration_manipulation_targetAtFixation,jsons/VE125_randls_16.json,http://54.235.29.9/FacialAge/BNav_EC2/DepthDuration/v2_depth_duration_MTurk/v2_DepthDuration_HTML.html#153,153,1707,781,1366,768,8-21-2022,10-52-51,16,depth_duration_stimuli/001810_2014-06-26_20-51-35_260595134347_rgbf000040-resize_3/001810_2014-06-26_20-51-35_260595134347_rgbf000040-resize_3-target.png,125,2.2525,4,2283,121,feet,jsons/VE125_randls_16.json,746674,1156402,48,Woman
16,958879,DepthScenes,duration_manipulation_targetAtFixation,jsons/VE125_randls_16.json,http://54.235.29.9/FacialAge/BNav_EC2/DepthDuration/v2_depth_duration_MTurk/v2_DepthDuration_HTML.html#153,153,1707,781,1366,768,8-21-2022,10-52-51,17,depth_duration_stimuli/003010_2014-06-15_12-54-35_094959634447_rgbf000112-resize_0/003010_2014-06-15_12-54-35_094959634447_rgbf000112-resize_0-target.png,125,3.1185,1,2709,124,feet,jsons/VE125_randls_16.json,746674,1156402,48,Woman
17,958879,DepthScenes,duration_manipulation_targetAtFixation,jsons/VE125_randls_16.json,http://54.235.29.9/FacialAge/BNav_EC2/DepthDuration/v2_depth_duration_MTurk/v2_DepthDuration_HTML.html#153,153,1707,781,1366,768,8-21-2022,10-52-51,18,depth_duration_stimuli/000642_2014-06-08_16-59-25_260595134347_rgbf000098-resize_2/000642_2014-06-08_16-59-25_260595134347_rgbf000098-resize_2-target.png,125,2.8815,2,2759,118,feet,jsons/VE125_randls_16.json,746674,1156402,48,Woman
18,958879,DepthScenes,duration_manipulation_targetAtFixation,jsons/VE125_randls_16.json,http://54.235.29.9/FacialAge/BNav_EC2/DepthDuration/v2_depth_duration_MTurk/v2_DepthDuration_HTML.html#153,153,1707,781,1366,768,8-21-2022,10-52-51,19,depth_duration_stimuli/002425_2014-06-28_20-27-29_260595134347_rgbf000031-resize_8/002425_2014-06-28_20-27-29_260595134347_rgbf000031-resize_8-target.png,125,3.8960000000000004,3,1839,121,feet,jsons/VE125_randls_16.json,746674,1156402,48,Woman
19,958879,DepthScenes,duration_manipulation_targetAtFixation,jsons/VE125_randls_16.json,http://54.235.29.9/FacialAge/BNav_EC2/DepthDuration/v2_depth_duration_MTurk/v2_DepthDuration_HTML.html#153,153,1707,781,1366,768,8-21-2022,10-52-51,20,depth_duration_stimuli/000469_2014-06-09_19-42-10_260595134347_rgbf000081-resize_1/000469_2014-06-09_19-42-10_260595134347_rgbf000081-resize_1-target.png,125,1.652,3,1694,129,feet,jsons/VE125_randls_16.json,746674,1156402,48,Woman
20,958879,DepthScenes,duration_manipulation_targetAtFixation,jsons/VE125_randls_16.json,http://54.235.29.9/FacialAge/BNav_EC2/DepthDuration/v2_depth_duration_MTurk/v2_DepthDuration_HTML.html#153,153,1707,781,1366,768,8-21-2022,10-52-51,21,depth_duration_stimuli/000483_2014-06-09_20-41-45_260595134347_rgbf000116-resize_4/000483_2014-06-09_20-41-45_260595134347_rgbf000116-resize_4-target.png,125,1.337,3,1724,106,feet,jsons/VE125_randls_16.json,746674,1156402,48,Woman
21,958879,DepthScenes,duration_manipulation_targetAtFixation,jsons/VE125_randls_16.json,http://54.235.29.9/FacialAge/BNav_EC2/DepthDuration/v2_depth_duration_MTurk/v2_DepthDuration_HTML.html#153,153,1707,781,1366,768,8-21-2022,10-52-51,22,depth_duration_stimuli/001150_2014-06-17_15-27-34_260595134347_rgbf000108-resize_2/001150_2014-06-17_15-27-34_260595134347_rgbf000108-resize_2-target.png,125,4.0325,3,2773,42,feet,jsons/VE125_randls_16.json,746674,1156402,48,Woman
22,958879,DepthScenes,duration_manipulation_targetAtFixation,jsons/VE125_randls_16.json,http://54.235.29.9/FacialAge/BNav_EC2/DepthDuration/v2_depth_duration_MTurk/v2_DepthDuration_HTML.html#153,153,1707,781,1366,768,8-21-2022,10-52-51,23,depth_duration_stimuli/000665_2014-06-09_20-42-35_260595134347_rgbf000110-resize_1/000665_2014-06-09_20-42-35_260595134347_rgbf000110-resize_1-target.png,125,3.057,2,1746,135,feet,jsons/VE125_randls_16.json,746674,1156402,48,Woman
23,958879,DepthScenes,duration_manipulation_targetAtFixation,jsons/VE125_randls_16.json,http://54.235.29.9/FacialAge/BNav_EC2/DepthDuration/v2_depth_duration_MTurk/v2_DepthDuration_HTML.html#153,153,1707,781,1366,768,8-21-2022,10-52-51,24,depth_duration_stimuli/001555_2014-06-20_17-12-10_260595134347_rgbf000065-resize_4/001555_2014-06-20_17-12-10_260595134347_rgbf000065-resize_4-target.png,125,1.633,2,2249,131,feet,jsons/VE125_randls_16.json,746674,1156402,48,Woman
24,958879,DepthScenes,duration_manipulation_targetAtFixation,jsons/VE125_randls_16.json,http://54.235.29.9/FacialAge/BNav_EC2/DepthDuration/v2_depth_duration_MTurk/v2_DepthDuration_HTML.html#153,153,1707,781,1366,768,8-21-2022,10-52-51,25,depth_duration_stimuli/000103_2014-05-14_22-01-17_260595134347_rgbf000152-resize_5/000103_2014-05-14_22-01-17_260595134347_rgbf000152-resize_5-target.png,125,1.993,2,2196,114,feet,jsons/VE125_randls_16.json,746674,1156402,48,Woman
25,958879,DepthScenes,duration_manipulation_targetAtFixation,jsons/VE125_randls_16.json,http://54.235.29.9/FacialAge/BNav_EC2/DepthDuration/v2_depth_duration_MTurk/v2_DepthDuration_HTML.html#153,153,1707,781,1366,768,8-21-2022,10-52-51,26,depth_duration_stimuli/001016_2014-06-09_16-16-10_260595134347_rgbf000112-resize_5/001016_2014-06-09_16-16-10_260595134347_rgbf000112-resize_5-target.png,125,1.6565,3,1775,112,feet,jsons/VE125_randls_16.json,746674,1156402,48,Woman
26,958879,DepthScenes,duration_manipulation_targetAtFixation,jsons/VE125_randls_16.json,http://54.235.29.9/FacialAge/BNav_EC2/DepthDuration/v2_depth_duration_MTurk/v2_DepthDuration_HTML.html#153,153,1707,781,1366,768,8-21-2022,10-52-51,27,depth_duration_stimuli/002340_2014-06-28_20-05-46_260595134347_rgbf000113-resize_0/002340_2014-06-28_20-05-46_260595134347_rgbf000113-resize_0-target.png,125,2.4735,3,2532,120,feet,jsons/VE125_randls_16.json,746674,1156402,48,Woman
27,958879,DepthScenes,duration_manipulation_targetAtFixation,jsons/VE125_randls_16.json,http://54.235.29.9/FacialAge/BNav_EC2/DepthDuration/v2_depth_duration_MTurk/v2_DepthDuration_HTML.html#153,153,1707,781,1366,768,8-21-2022,10-52-51,28,depth_duration_stimuli/000736_2014-06-08_18-24-15_260595134347_rgbf000206-resize_3/000736_2014-06-08_18-24-15_260595134347_rgbf000206-resize_3-target.png,125,3.515,3,5290,135,feet,jsons/VE125_randls_16.json,746674,1156402,48,Woman
28,958879,DepthScenes,duration_manipulation_targetAtFixation,jsons/VE125_randls_16.json,http://54.235.29.9/FacialAge/BNav_EC2/DepthDuration/v2_depth_duration_MTurk/v2_DepthDuration_HTML.html#153,153,1707,781,1366,768,8-21-2022,10-52-51,29,depth_duration_stimuli/000137_2014-05-20_17-04-49_260595134347_rgbf000120-resize_1/000137_2014-05-20_17-04-49_260595134347_rgbf000120-resize_1-target.png,125,3.786,3,1948,126,feet,jsons/VE125_randls_16.json,746674,1156402,48,Woman
29,958879,DepthScenes,duration_manipulation_targetAtFixation,jsons/VE125_randls_16.json,http://54.235.29.9/FacialAge/BNav_EC2/DepthDuration/v2_depth_duration_MTurk/v2_DepthDuration_HTML.html#153,153,1707,781,1366,768,8-21-2022,10-52-51,30,depth_duration_stimuli/000375_2014-06-08_11-17-29_260595134347_rgbf000133-resize_2/000375_2014-06-08_11-17-29_260595134347_rgbf000133-resize-original.jpg,125,4.718,3,1732,121,feet,jsons/VE125_randls_16.json,746674,1156402,48,Woman
30,958879,DepthScenes,duration_manipulation_targetAtFixation,jsons/VE125_randls_16.json,http://54.235.29.9/FacialAge/BNav_EC2/DepthDuration/v2_depth_duration_MTurk/v2_DepthDuration_HTML.html#153,153,1707,781,1366,768,8-21-2022,10-52-51,31,depth_duration_stimuli/002570_2014-06-24_13-59-54_094959634447_rgbf000059-resize_0/002570_2014-06-24_13-59-54_094959634447_rgbf000059-resize_0-target.png,125,4.037,4,1930,125,feet,jsons/VE125_randls_16.json,746674,1156402,48,Woman
31,958879,DepthScenes,duration_manipulation_targetAtFixation,jsons/VE125_randls_16.json,http://54.235.29.9/FacialAge/BNav_EC2/DepthDuration/v2_depth_duration_MTurk/v2_DepthDuration_HTML.html#153,153,1707,781,1366,768,8-21-2022,10-52-51,32,depth_duration_stimuli/002467_2014-06-28_20-38-07_260595134347_rgbf000026-resize_2/002467_2014-06-28_20-38-07_260595134347_rgbf000026-resize_2-target.png,125,4.742,2,1752,130,feet,jsons/VE125_randls_16.json,746674,1156402,48,Woman
32,958879,DepthScenes,duration_manipulation_targetAtFixation,jsons/VE125_randls_16.json,http://54.235.29.9/FacialAge/BNav_EC2/DepthDuration/v2_depth_duration_MTurk/v2_DepthDuration_HTML.html#153,153,1707,781,1366,768,8-21-2022,10-52-51,33,depth_duration_stimuli/001133_2014-06-17_14-49-16_260595134347_rgbf000100-resize_0/001133_2014-06-17_14-49-16_260595134347_rgbf000100-resize_0-target.png,125,4.2115,2,2218,122,feet,jsons/VE125_randls_16.json,746674,1156402,48,Woman
33,958879,DepthScenes,duration_manipulation_targetAtFixation,jsons/VE125_randls_16.json,http://54.235.29.9/FacialAge/BNav_EC2/DepthDuration/v2_depth_duration_MTurk/v2_DepthDuration_HTML.html#153,153,1707,781,1366,768,8-21-2022,10-52-51,34,depth_duration_stimuli/001132_2014-06-17_14-48-54_260595134347_rgbf000100-resize_2/001132_2014-06-17_14-48-54_260595134347_rgbf000100-resize_2-target.png,125,3.753,2,1905,122,feet,jsons/VE125_randls_16.json,746674,1156402,48,Woman
34,958879,DepthScenes,duration_manipulation_targetAtFixation,jsons/VE125_randls_16.json,http://54.235.29.9/FacialAge/BNav_EC2/DepthDuration/v2_depth_duration_MTurk/v2_DepthDuration_HTML.html#153,153,1707,781,1366,768,8-21-2022,10-52-51,35,depth_duration_stimuli/002272_2014-06-28_18-53-56_260595134347_rgbf000067-resize_2/002272_2014-06-28_18-53-56_260595134347_rgbf000067-resize_2-target.png,125,1.138,5,9198,110,feet,jsons/VE125_randls_16.json,746674,1156402,48,Woman
35,958879,DepthScenes,duration_manipulation_targetAtFixation,jsons/VE125_randls_16.json,http://54.235.29.9/FacialAge/BNav_EC2/DepthDuration/v2_depth_duration_MTurk/v2_DepthDuration_HTML.html#153,153,1707,781,1366,768,8-21-2022,10-52-51,36,depth_duration_stimuli/001571_2014-06-20_17-21-32_260595134347_rgbf000089-resize_1/001571_2014-06-20_17-21-32_260595134347_rgbf000089-resize_1-target.png,125,1.86,5,2634,132,feet,jsons/VE125_randls_16.json,746674,1156402,48,Woman
36,958879,DepthScenes,duration_manipulation_targetAtFixation,jsons/VE125_randls_16.json,http://54.235.29.9/FacialAge/BNav_EC2/DepthDuration/v2_depth_duration_MTurk/v2_DepthDuration_HTML.html#153,153,1707,781,1366,768,8-21-2022,10-52-51,37,depth_duration_stimuli/001449_2014-06-19_17-01-27_260595134347_rgbf000116-resize_2/001449_2014-06-19_17-01-27_260595134347_rgbf000116-resize_2-target.png,125,3.452,2,1876,125,feet,jsons/VE125_randls_16.json,746674,1156402,48,Woman
37,958879,DepthScenes,duration_manipulation_targetAtFixation,jsons/VE125_randls_16.json,http://54.235.29.9/FacialAge/BNav_EC2/DepthDuration/v2_depth_duration_MTurk/v2_DepthDuration_HTML.html#153,153,1707,781,1366,768,8-21-2022,10-52-51,38,depth_duration_stimuli/001450_2014-06-19_17-02-03_260595134347_rgbf000203-resize_4/001450_2014-06-19_17-02-03_260595134347_rgbf000203-resize_4-target.png,125,4.0106666666667,2,1737,125,feet,jsons/VE125_randls_16.json,746674,1156402,48,Woman
38,958879,DepthScenes,duration_manipulation_targetAtFixation,jsons/VE125_randls_16.json,http://54.235.29.9/FacialAge/BNav_EC2/DepthDuration/v2_depth_duration_MTurk/v2_DepthDuration_HTML.html#153,153,1707,781,1366,768,8-21-2022,10-52-51,39,depth_duration_stimuli/001059_2014-06-08_21-53-27_260595134347_rgbf000061-resize_4/001059_2014-06-08_21-53-27_260595134347_rgbf000061-resize_4-target.png,125,2.4185,2,1846,121,feet,jsons/VE125_randls_16.json,746674,1156402,48,Woman
39,958879,DepthScenes,duration_manipulation_targetAtFixation,jsons/VE125_randls_16.json,http://54.235.29.9/FacialAge/BNav_EC2/DepthDuration/v2_depth_duration_MTurk/v2_DepthDuration_HTML.html#153,153,1707,781,1366,768,8-21-2022,10-52-51,40,depth_duration_stimuli/001032_2014-06-08_13-23-17_260595134347_rgbf000021-resize_3/001032_2014-06-08_13-23-17_260595134347_rgbf000021-resize_3-target.png,125,3.2725,3,3136,128,feet,jsons/VE125_randls_16.json,746674,1156402,48,Woman
40,958879,DepthScenes,duration_manipulation_targetAtFixation,jsons/VE125_randls_16.json,http://54.235.29.9/FacialAge/BNav_EC2/DepthDuration/v2_depth_duration_MTurk/v2_DepthDuration_HTML.html#153,153,1707,781,1366,768,8-21-2022,10-52-51,41,depth_duration_stimuli/002788_2014-06-22_19-36-03_094959634447_rgbf000088-resize_2/002788_2014-06-22_19-36-03_094959634447_rgbf000088-resize_2-target.png,125,1.6465,0,3819,125,feet,jsons/VE125_randls_16.json,746674,1156402,48,Woman
41,958879,DepthScenes,duration_manipulation_targetAtFixation,jsons/VE125_randls_16.json,http://54.235.29.9/FacialAge/BNav_EC2/DepthDuration/v2_depth_duration_MTurk/v2_DepthDuration_HTML.html#153,153,1707,781,1366,768,8-21-2022,10-52-51,42,depth_duration_stimuli/000749_2014-06-08_21-55-06_260595134347_rgbf000070-resize_2/000749_2014-06-08_21-55-06_260595134347_rgbf000070-resize_2-target.png,125,2.331,5,4273,125,feet,jsons/VE125_randls_16.json,746674,1156402,48,Woman
42,958879,DepthScenes,duration_manipulation_targetAtFixation,jsons/VE125_randls_16.json,http://54.235.29.9/FacialAge/BNav_EC2/DepthDuration/v2_depth_duration_MTurk/v2_DepthDuration_HTML.html#153,153,1707,781,1366,768,8-21-2022,10-52-51,43,depth_duration_stimuli/002375_2014-06-28_20-13-44_260595134347_rgbf000032-resize_1/002375_2014-06-28_20-13-44_260595134347_rgbf000032-resize_1-target.png,125,4.0175,4,2545,122,feet,jsons/VE125_randls_16.json,746674,1156402,48,Woman
43,958879,DepthScenes,duration_manipulation_targetAtFixation,jsons/VE125_randls_16.json,http://54.235.29.9/FacialAge/BNav_EC2/DepthDuration/v2_depth_duration_MTurk/v2_DepthDuration_HTML.html#153,153,1707,781,1366,768,8-21-2022,10-52-51,44,depth_duration_stimuli/002657_2014-06-13_15-29-54_094959634447_rgbf000150-resize_1/002657_2014-06-13_15-29-54_094959634447_rgbf000150-resize_1-target.png,125,4.919,1,3255,117,feet,jsons/VE125_randls_16.json,746674,1156402,48,Woman
44,958879,DepthScenes,duration_manipulation_targetAtFixation,jsons/VE125_randls_16.json,http://54.235.29.9/FacialAge/BNav_EC2/DepthDuration/v2_depth_duration_MTurk/v2_DepthDuration_HTML.html#153,153,1707,781,1366,768,8-21-2022,10-52-51,45,depth_duration_stimuli/000787_2014-06-08_22-33-53_260595134347_rgbf000175-resize_1/000787_2014-06-08_22-33-53_260595134347_rgbf000175-resize-original.jpg,125,4.784,2,2000,113,feet,jsons/VE125_randls_16.json,746674,1156402,48,Woman
45,958879,DepthScenes,duration_manipulation_targetAtFixation,jsons/VE125_randls_16.json,http://54.235.29.9/FacialAge/BNav_EC2/DepthDuration/v2_depth_duration_MTurk/v2_DepthDuration_HTML.html#153,153,1707,781,1366,768,8-21-2022,10-52-51,46,depth_duration_stimuli/001029_2014-06-08_13-17-57_260595134347_rgbf000065-resize_1/001029_2014-06-08_13-17-57_260595134347_rgbf000065-resize_1-target.png,125,3.0835,3,2405,136,feet,jsons/VE125_randls_16.json,746674,1156402,48,Woman
46,958879,DepthScenes,duration_manipulation_targetAtFixation,jsons/VE125_randls_16.json,http://54.235.29.9/FacialAge/BNav_EC2/DepthDuration/v2_depth_duration_MTurk/v2_DepthDuration_HTML.html#153,153,1707,781,1366,768,8-21-2022,10-52-51,47,depth_duration_stimuli/000677_2014-06-08_23-10-32_260595134347_rgbf000158-resize_6/000677_2014-06-08_23-10-32_260595134347_rgbf000158-resize_6-target.png,125,3.556,4,2089,124,feet,jsons/VE125_randls_16.json,746674,1156402,48,Woman
47,958879,DepthScenes,duration_manipulation_targetAtFixation,jsons/VE125_randls_16.json,http://54.235.29.9/FacialAge/BNav_EC2/DepthDuration/v2_depth_duration_MTurk/v2_DepthDuration_HTML.html#153,153,1707,781,1366,768,8-21-2022,10-52-51,48,depth_duration_stimuli/000810_2014-06-08_17-20-01_260595134347_rgbf000105-resize_0/000810_2014-06-08_17-20-01_260595134347_rgbf000105-resize_0-target.png,125,1.4865,5,1880,170,feet,jsons/VE125_randls_16.json,746674,1156402,48,Woman
48,958879,DepthScenes,duration_manipulation_targetAtFixation,jsons/VE125_randls_16.json,http://54.235.29.9/FacialAge/BNav_EC2/DepthDuration/v2_depth_duration_MTurk/v2_DepthDuration_HTML.html#153,153,1707,781,1366,768,8-21-2022,10-52-51,49,depth_duration_stimuli/001214_2014-06-17_16-13-55_260595134347_rgbf000111-resize_0/001214_2014-06-17_16-13-55_260595134347_rgbf000111-resize_0-target.png,125,2.6505,3,2059,122,feet,jsons/VE125_randls_16.json,746674,1156402,48,Woman
49,958879,DepthScenes,duration_manipulation_targetAtFixation,jsons/VE125_randls_16.json,http://54.235.29.9/FacialAge/BNav_EC2/DepthDuration/v2_depth_duration_MTurk/v2_DepthDuration_HTML.html#153,153,1707,781,1366,768,8-21-2022,10-52-51,50,depth_duration_stimuli/003292_2014-05-14_21-53-49_094959634447_rgbf000100-resize_2/003292_2014-05-14_21-53-49_094959634447_rgbf000100-resize_2-target.png,125,3.4815,6,2648,124,feet,jsons/VE125_randls_16.json,746674,1156402,48,Woman
50,958879,DepthScenes,duration_manipulation_targetAtFixation,jsons/VE125_randls_16.json,http://54.235.29.9/FacialAge/BNav_EC2/DepthDuration/v2_depth_duration_MTurk/v2_DepthDuration_HTML.html#153,153,1707,781,1366,768,8-21-2022,10-52-51,51,depth_duration_stimuli/002639_2014-06-24_14-51-37_094959634447_rgbf000074-resize_4/002639_2014-06-24_14-51-37_094959634447_rgbf000074-resize_4-target.png,125,4.0375,5,2644,122,feet,jsons/VE125_randls_16.json,746674,1156402,48,Woman
51,958879,DepthScenes,duration_manipulation_targetAtFixation,jsons/VE125_randls_16.json,http://54.235.29.9/FacialAge/BNav_EC2/DepthDuration/v2_depth_duration_MTurk/v2_DepthDuration_HTML.html#153,153,1707,781,1366,768,8-21-2022,10-52-51,52,depth_duration_stimuli/002763_2014-06-22_19-13-10_094959634447_rgbf000075-resize_4/002763_2014-06-22_19-13-10_094959634447_rgbf000075-resize_4-target.png,125,1.68375,5,2899,82,feet,jsons/VE125_randls_16.json,746674,1156402,48,Woman
52,958879,DepthScenes,duration_manipulation_targetAtFixation,jsons/VE125_randls_16.json,http://54.235.29.9/FacialAge/BNav_EC2/DepthDuration/v2_depth_duration_MTurk/v2_DepthDuration_HTML.html#153,153,1707,781,1366,768,8-21-2022,10-52-51,53,depth_duration_stimuli/002209_2014-06-28_18-36-10_260595134347_rgbf000051-resize_1/002209_2014-06-28_18-36-10_260595134347_rgbf000051-resize_1-target.png,125,2.057,3,2866,122,feet,jsons/VE125_randls_16.json,746674,1156402,48,Woman
53,958879,DepthScenes,duration_manipulation_targetAtFixation,jsons/VE125_randls_16.json,http://54.235.29.9/FacialAge/BNav_EC2/DepthDuration/v2_depth_duration_MTurk/v2_DepthDuration_HTML.html#153,153,1707,781,1366,768,8-21-2022,10-52-51,54,depth_duration_stimuli/001808_2014-06-26_20-50-58_260595134347_rgbf000029-resize_1/001808_2014-06-26_20-50-58_260595134347_rgbf000029-resize_1-target.png,125,4.249,3,2454,123,feet,jsons/VE125_randls_16.json,746674,1156402,48,Woman
54,958879,DepthScenes,duration_manipulation_targetAtFixation,jsons/VE125_randls_16.json,http://54.235.29.9/FacialAge/BNav_EC2/DepthDuration/v2_depth_duration_MTurk/v2_DepthDuration_HTML.html#153,153,1707,781,1366,768,8-21-2022,10-52-51,55,depth_duration_stimuli/001815_2014-06-26_20-52-55_260595134347_rgbf000020-resize_0/001815_2014-06-26_20-52-55_260595134347_rgbf000020-resize_0-target.png,125,3.3865,3,2003,127,feet,jsons/VE125_randls_16.json,746674,1156402,48,Woman
55,958879,DepthScenes,duration_manipulation_targetAtFixation,jsons/VE125_randls_16.json,http://54.235.29.9/FacialAge/BNav_EC2/DepthDuration/v2_depth_duration_MTurk/v2_DepthDuration_HTML.html#153,153,1707,781,1366,768,8-21-2022,10-52-51,56,depth_duration_stimuli/002057_2014-06-24_21-00-13_260595134347_rgbf000120-resize_1/002057_2014-06-24_21-00-13_260595134347_rgbf000120-resize_1-target.png,125,2.967,3,1890,124,feet,jsons/VE125_randls_16.json,746674,1156402,48,Woman
56,958879,DepthScenes,duration_manipulation_targetAtFixation,jsons/VE125_randls_16.json,http://54.235.29.9/FacialAge/BNav_EC2/DepthDuration/v2_depth_duration_MTurk/v2_DepthDuration_HTML.html#153,153,1707,781,1366,768,8-21-2022,10-52-51,57,depth_duration_stimuli/000709_2014-06-08_13-51-55_260595134347_rgbf000068-resize_3/000709_2014-06-08_13-51-55_260595134347_rgbf000068-resize_3-target.png,125,1.8030000000000002,3,2402,116,feet,jsons/VE125_randls_16.json,746674,1156402,48,Woman
57,958879,DepthScenes,duration_manipulation_targetAtFixation,jsons/VE125_randls_16.json,http://54.235.29.9/FacialAge/BNav_EC2/DepthDuration/v2_depth_duration_MTurk/v2_DepthDuration_HTML.html#153,153,1707,781,1366,768,8-21-2022,10-52-51,58,depth_duration_stimuli/000917_2014-06-09_22-45-29_260595134347_rgbf000149-resize_3/000917_2014-06-09_22-45-29_260595134347_rgbf000149-resize_3-target.png,125,4.1865,3,1848,125,feet,jsons/VE125_randls_16.json,746674,1156402,48,Woman
58,958879,DepthScenes,duration_manipulation_targetAtFixation,jsons/VE125_randls_16.json,http://54.235.29.9/FacialAge/BNav_EC2/DepthDuration/v2_depth_duration_MTurk/v2_DepthDuration_HTML.html#153,153,1707,781,1366,768,8-21-2022,10-52-51,59,depth_duration_stimuli/002323_2014-06-28_20-01-54_260595134347_rgbf000051-resize_4/002323_2014-06-28_20-01-54_260595134347_rgbf000051-resize_4-target.png,125,3.7310000000000003,4,2524,123,feet,jsons/VE125_randls_16.json,746674,1156402,48,Woman
59,958879,DepthScenes,duration_manipulation_targetAtFixation,jsons/VE125_randls_16.json,http://54.235.29.9/FacialAge/BNav_EC2/DepthDuration/v2_depth_duration_MTurk/v2_DepthDuration_HTML.html#153,153,1707,781,1366,768,8-21-2022,10-52-51,60,depth_duration_stimuli/001175_2014-06-17_15-45-55_260595134347_rgbf000129-resize_4/001175_2014-06-17_15-45-55_260595134347_rgbf000129-resize_4-target.png,125,4.255,4,2819,115,feet,jsons/VE125_randls_16.json,746674,1156402,48,Woman
60,958879,DepthScenes,duration_manipulation_targetAtFixation,jsons/VE125_randls_16.json,http://54.235.29.9/FacialAge/BNav_EC2/DepthDuration/v2_depth_duration_MTurk/v2_DepthDuration_HTML.html#153,153,1707,781,1366,768,8-21-2022,10-52-51,61,depth_duration_stimuli/003490_2014-05-21_15-50-11_094959634447_rgbf000101-resize_3/003490_2014-05-21_15-50-11_094959634447_rgbf000101-resize_3-target.png,125,3.6445,4,3050,136,feet,jsons/VE125_randls_16.json,746674,1156402,48,Woman
61,958879,DepthScenes,duration_manipulation_targetAtFixation,jsons/VE125_randls_16.json,http://54.235.29.9/FacialAge/BNav_EC2/DepthDuration/v2_depth_duration_MTurk/v2_DepthDuration_HTML.html#153,153,1707,781,1366,768,8-21-2022,10-52-51,62,depth_duration_stimuli/000436_2014-06-09_22-25-11_260595134347_rgbf000137-resize_1/000436_2014-06-09_22-25-11_260595134347_rgbf000137-resize_1-target.png,125,4.0705,5,3780,124,feet,jsons/VE125_randls_16.json,746674,1156402,48,Woman
62,958879,DepthScenes,duration_manipulation_targetAtFixation,jsons/VE125_randls_16.json,http://54.235.29.9/FacialAge/BNav_EC2/DepthDuration/v2_depth_duration_MTurk/v2_DepthDuration_HTML.html#153,153,1707,781,1366,768,8-21-2022,10-52-51,63,depth_duration_stimuli/002444_2014-06-28_20-32-08_260595134347_rgbf000027-resize_0/002444_2014-06-28_20-32-08_260595134347_rgbf000027-resize_0-target.png,125,4.388999999999999,5,2375,120,feet,jsons/VE125_randls_16.json,746674,1156402,48,Woman
63,958879,DepthScenes,duration_manipulation_targetAtFixation,jsons/VE125_randls_16.json,http://54.235.29.9/FacialAge/BNav_EC2/DepthDuration/v2_depth_duration_MTurk/v2_DepthDuration_HTML.html#153,153,1707,781,1366,768,8-21-2022,10-52-51,64,depth_duration_stimuli/003070_2014-06-15_14-58-27_094959634447_rgbf000150-resize_3/003070_2014-06-15_14-58-27_094959634447_rgbf000150-resize_3-target.png,125,2.9415,4,1878,259,feet,jsons/VE125_randls_16.json,746674,1156402,48,Woman
64,958879,DepthScenes,duration_manipulation_targetAtFixation,jsons/VE125_randls_16.json,http://54.235.29.9/FacialAge/BNav_EC2/DepthDuration/v2_depth_duration_MTurk/v2_DepthDuration_HTML.html#153,153,1707,781,1366,768,8-21-2022,10-52-51,65,depth_duration_stimuli/000943_2014-06-09_19-31-07_260595134347_rgbf000128-resize_1/000943_2014-06-09_19-31-07_260595134347_rgbf000128-resize_1-target.png,125,1.9765,3,7599,122,feet,jsons/VE125_randls_16.json,746674,1156402,48,Woman
65,958879,DepthScenes,duration_manipulation_targetAtFixation,jsons/VE125_randls_16.json,http://54.235.29.9/FacialAge/BNav_EC2/DepthDuration/v2_depth_duration_MTurk/v2_DepthDuration_HTML.html#153,153,1707,781,1366,768,8-21-2022,10-52-51,66,depth_duration_stimuli/001222_2014-06-17_16-24-06_260595134347_rgbf000073-resize_0/001222_2014-06-17_16-24-06_260595134347_rgbf000073-resize-original.jpg,125,1.4385,3,1776,128,feet,jsons/VE125_randls_16.json,746674,1156402,48,Woman
66,958879,DepthScenes,duration_manipulation_targetAtFixation,jsons/VE125_randls_16.json,http://54.235.29.9/FacialAge/BNav_EC2/DepthDuration/v2_depth_duration_MTurk/v2_DepthDuration_HTML.html#153,153,1707,781,1366,768,8-21-2022,10-52-51,67,depth_duration_stimuli/001164_2014-06-17_15-35-46_260595134347_rgbf000085-resize_3/001164_2014-06-17_15-35-46_260595134347_rgbf000085-resize_3-target.png,125,2.354,4,2365,110,feet,jsons/VE125_randls_16.json,746674,1156402,48,Woman
67,958879,DepthScenes,duration_manipulation_targetAtFixation,jsons/VE125_randls_16.json,http://54.235.29.9/FacialAge/BNav_EC2/DepthDuration/v2_depth_duration_MTurk/v2_DepthDuration_HTML.html#153,153,1707,781,1366,768,8-21-2022,10-52-51,68,depth_duration_stimuli/001136_2014-06-17_15-19-41_260595134347_rgbf000076-resize_3/001136_2014-06-17_15-19-41_260595134347_rgbf000076-resize_3-target.png,125,1.8655,5,3401,120,feet,jsons/VE125_randls_16.json,746674,1156402,48,Woman
68,958879,DepthScenes,duration_manipulation_targetAtFixation,jsons/VE125_randls_16.json,http://54.235.29.9/FacialAge/BNav_EC2/DepthDuration/v2_depth_duration_MTurk/v2_DepthDuration_HTML.html#153,153,1707,781,1366,768,8-21-2022,10-52-51,69,depth_duration_stimuli/000414_2014-06-04_19-49-13_260595134347_rgbf000044-resize_0/000414_2014-06-04_19-49-13_260595134347_rgbf000044-resize_0-target.png,125,4.329,3,2515,122,feet,jsons/VE125_randls_16.json,746674,1156402,48,Woman
69,958879,DepthScenes,duration_manipulation_targetAtFixation,jsons/VE125_randls_16.json,http://54.235.29.9/FacialAge/BNav_EC2/DepthDuration/v2_depth_duration_MTurk/v2_DepthDuration_HTML.html#153,153,1707,781,1366,768,8-21-2022,10-52-51,70,depth_duration_stimuli/003129_2014-05-12_10-48-10_094959634447_rgbf000100-resize_0/003129_2014-05-12_10-48-10_094959634447_rgbf000100-resize_0-target.png,125,4.9305,3,2905,133,feet,jsons/VE125_randls_16.json,746674,1156402,48,Woman
70,958879,DepthScenes,duration_manipulation_targetAtFixation,jsons/VE125_randls_16.json,http://54.235.29.9/FacialAge/BNav_EC2/DepthDuration/v2_depth_duration_MTurk/v2_DepthDuration_HTML.html#153,153,1707,781,1366,768,8-21-2022,10-52-51,71,depth_duration_stimuli/001158_2014-06-17_15-32-16_260595134347_rgbf000138-resize_2/001158_2014-06-17_15-32-16_260595134347_rgbf000138-resize_2-target.png,125,4.5315,4,1806,185,feet,jsons/VE125_randls_16.json,746674,1156402,48,Woman
71,958879,DepthScenes,duration_manipulation_targetAtFixation,jsons/VE125_randls_16.json,http://54.235.29.9/FacialAge/BNav_EC2/DepthDuration/v2_depth_duration_MTurk/v2_DepthDuration_HTML.html#153,153,1707,781,1366,768,8-21-2022,10-52-51,72,depth_duration_stimuli/000556_2014-06-09_22-42-56_260595134347_rgbf000214-resize_1/000556_2014-06-09_22-42-56_260595134347_rgbf000214-resize_1-target.png,125,4.8415,4,5393,124,feet,jsons/VE125_randls_16.json,746674,1156402,48,Woman
72,958879,DepthScenes,duration_manipulation_targetAtFixation,jsons/VE125_randls_16.json,http://54.235.29.9/FacialAge/BNav_EC2/DepthDuration/v2_depth_duration_MTurk/v2_DepthDuration_HTML.html#153,153,1707,781,1366,768,8-21-2022,10-52-51,73,depth_duration_stimuli/001167_2014-06-17_15-38-07_260595134347_rgbf000108-resize_0/001167_2014-06-17_15-38-07_260595134347_rgbf000108-resize_0-target.png,125,1.8505,2,4284,124,feet,jsons/VE125_randls_16.json,746674,1156402,48,Woman
73,958879,DepthScenes,duration_manipulation_targetAtFixation,jsons/VE125_randls_16.json,http://54.235.29.9/FacialAge/BNav_EC2/DepthDuration/v2_depth_duration_MTurk/v2_DepthDuration_HTML.html#153,153,1707,781,1366,768,8-21-2022,10-52-51,74,depth_duration_stimuli/003587_2014-05-23_16-48-02_094959634447_rgbf002384-resize_2/003587_2014-05-23_16-48-02_094959634447_rgbf002384-resize_2-target.png,125,1.357,2,3331,123,feet,jsons/VE125_randls_16.json,746674,1156402,48,Woman
74,958879,DepthScenes,duration_manipulation_targetAtFixation,jsons/VE125_randls_16.json,http://54.235.29.9/FacialAge/BNav_EC2/DepthDuration/v2_depth_duration_MTurk/v2_DepthDuration_HTML.html#153,153,1707,781,1366,768,8-21-2022,10-52-51,75,depth_duration_stimuli/000522_2014-06-08_13-35-06_260595134347_rgbf000244-resize_1/000522_2014-06-08_13-35-06_260595134347_rgbf000244-resize_1-target.png,125,2.3715,2,2808,124,feet,jsons/VE125_randls_16.json,746674,1156402,48,Woman
75,958879,DepthScenes,duration_manipulation_targetAtFixation,jsons/VE125_randls_16.json,http://54.235.29.9/FacialAge/BNav_EC2/DepthDuration/v2_depth_duration_MTurk/v2_DepthDuration_HTML.html#153,153,1707,781,1366,768,8-21-2022,10-52-51,76,depth_duration_stimuli/002949_2014-06-26_15-57-42_094959634447_rgbf000079-resize_1/002949_2014-06-26_15-57-42_094959634447_rgbf000079-resize_1-target.png,125,1.8915,3,1917,114,feet,jsons/VE125_randls_16.json,746674,1156402,48,Woman
76,958879,DepthScenes,duration_manipulation_targetAtFixation,jsons/VE125_randls_16.json,http://54.235.29.9/FacialAge/BNav_EC2/DepthDuration/v2_depth_duration_MTurk/v2_DepthDuration_HTML.html#153,153,1707,781,1366,768,8-21-2022,10-52-51,77,depth_duration_stimuli/000493_2014-06-09_21-01-18_260595134347_rgbf000196-resize_3/000493_2014-06-09_21-01-18_260595134347_rgbf000196-resize_3-target.png,125,3.44,3,1912,126,feet,jsons/VE125_randls_16.json,746674,1156402,48,Woman
77,958879,DepthScenes,duration_manipulation_targetAtFixation,jsons/VE125_randls_16.json,http://54.235.29.9/FacialAge/BNav_EC2/DepthDuration/v2_depth_duration_MTurk/v2_DepthDuration_HTML.html#153,153,1707,781,1366,768,8-21-2022,10-52-51,78,depth_duration_stimuli/000191_2014-05-12_17-07-38_260595134347_rgbf000199-resize_0/000191_2014-05-12_17-07-38_260595134347_rgbf000199-resize_0-target.png,125,3.7995,4,1792,134,feet,jsons/VE125_randls_16.json,746674,1156402,48,Woman
78,958879,DepthScenes,duration_manipulation_targetAtFixation,jsons/VE125_randls_16.json,http://54.235.29.9/FacialAge/BNav_EC2/DepthDuration/v2_depth_duration_MTurk/v2_DepthDuration_HTML.html#153,153,1707,781,1366,768,8-21-2022,10-52-51,79,depth_duration_stimuli/000878_2014-06-08_22-52-45_260595134347_rgbf000045-resize_2/000878_2014-06-08_22-52-45_260595134347_rgbf000045-resize_2-target.png,125,2.092,5,2447,143,feet,jsons/VE125_randls_16.json,746674,1156402,48,Woman
79,958879,DepthScenes,duration_manipulation_targetAtFixation,jsons/VE125_randls_16.json,http://54.235.29.9/FacialAge/BNav_EC2/DepthDuration/v2_depth_duration_MTurk/v2_DepthDuration_HTML.html#153,153,1707,781,1366,768,8-21-2022,10-52-51,80,depth_duration_stimuli/002953_2014-06-08_17-32-18_094959634447_rgbf000059-resize_5/002953_2014-06-08_17-32-18_094959634447_rgbf000059-resize_5-target.png,125,1.551,0,4588,124,feet,jsons/VE125_randls_16.json,746674,1156402,48,Woman
80,958879,DepthScenes,duration_manipulation_targetAtFixation,jsons/VE125_randls_16.json,http://54.235.29.9/FacialAge/BNav_EC2/DepthDuration/v2_depth_duration_MTurk/v2_DepthDuration_HTML.html#153,153,1707,781,1366,768,8-21-2022,10-52-51,81,depth_duration_stimuli/003492_2014-05-21_15-50-55_094959634447_rgbf000828-resize_1/003492_2014-05-21_15-50-55_094959634447_rgbf000828-resize_1-target.png,125,4.06875,1,3072,130,feet,jsons/VE125_randls_16.json,746674,1156402,48,Woman
81,958879,DepthScenes,duration_manipulation_targetAtFixation,jsons/VE125_randls_16.json,http://54.235.29.9/FacialAge/BNav_EC2/DepthDuration/v2_depth_duration_MTurk/v2_DepthDuration_HTML.html#153,153,1707,781,1366,768,8-21-2022,10-52-51,82,depth_duration_stimuli/002568_2014-06-24_13-59-21_094959634447_rgbf000062-resize_4/002568_2014-06-24_13-59-21_094959634447_rgbf000062-resize_4-target.png,125,3.015,1,2781,126,feet,jsons/VE125_randls_16.json,746674,1156402,48,Woman
82,958879,DepthScenes,duration_manipulation_targetAtFixation,jsons/VE125_randls_16.json,http://54.235.29.9/FacialAge/BNav_EC2/DepthDuration/v2_depth_duration_MTurk/v2_DepthDuration_HTML.html#153,153,1707,781,1366,768,8-21-2022,10-52-51,83,depth_duration_stimuli/000682_2014-06-08_23-14-58_260595134347_rgbf000041-resize_5/000682_2014-06-08_23-14-58_260595134347_rgbf000041-resize_5-target.png,125,2.7239999999999998,2,2238,125,feet,jsons/VE125_randls_16.json,746674,1156402,48,Woman
83,958879,DepthScenes,duration_manipulation_targetAtFixation,jsons/VE125_randls_16.json,http://54.235.29.9/FacialAge/BNav_EC2/DepthDuration/v2_depth_duration_MTurk/v2_DepthDuration_HTML.html#153,153,1707,781,1366,768,8-21-2022,10-52-51,84,depth_duration_stimuli/001650_2014-06-20_12-09-00_260595134347_rgbf000087-resize_3/001650_2014-06-20_12-09-00_260595134347_rgbf000087-resize_3-target.png,125,1.9505,2,1790,129,feet,jsons/VE125_randls_16.json,746674,1156402,48,Woman
84,958879,DepthScenes,duration_manipulation_targetAtFixation,jsons/VE125_randls_16.json,http://54.235.29.9/FacialAge/BNav_EC2/DepthDuration/v2_depth_duration_MTurk/v2_DepthDuration_HTML.html#153,153,1707,781,1366,768,8-21-2022,10-52-51,85,depth_duration_stimuli/001570_2014-06-20_17-21-09_260595134347_rgbf000135-resize_4/001570_2014-06-20_17-21-09_260595134347_rgbf000135-resize_4-target.png,125,4.467,2,2445,124,feet,jsons/VE125_randls_16.json,746674,1156402,48,Woman
85,958879,DepthScenes,duration_manipulation_targetAtFixation,jsons/VE125_randls_16.json,http://54.235.29.9/FacialAge/BNav_EC2/DepthDuration/v2_depth_duration_MTurk/v2_DepthDuration_HTML.html#153,153,1707,781,1366,768,8-21-2022,10-52-51,86,depth_duration_stimuli/001392_2014-06-19_16-07-59_260595134347_rgbf000046-resize_1/001392_2014-06-19_16-07-59_260595134347_rgbf000046-resize_1-target.png,125,4.135,2,2255,118,feet,jsons/VE125_randls_16.json,746674,1156402,48,Woman
86,958879,DepthScenes,duration_manipulation_targetAtFixation,jsons/VE125_randls_16.json,http://54.235.29.9/FacialAge/BNav_EC2/DepthDuration/v2_depth_duration_MTurk/v2_DepthDuration_HTML.html#153,153,1707,781,1366,768,8-21-2022,10-52-51,87,depth_duration_stimuli/000447_2014-06-08_16-15-46_260595134347_rgbf000130-resize_1/000447_2014-06-08_16-15-46_260595134347_rgbf000130-resize_1-target.png,125,4.479,2,2115,123,feet,jsons/VE125_randls_16.json,746674,1156402,48,Woman
87,958879,DepthScenes,duration_manipulation_targetAtFixation,jsons/VE125_randls_16.json,http://54.235.29.9/FacialAge/BNav_EC2/DepthDuration/v2_depth_duration_MTurk/v2_DepthDuration_HTML.html#153,153,1707,781,1366,768,8-21-2022,10-52-51,88,depth_duration_stimuli/001447_2014-06-19_17-00-32_260595134347_rgbf000082-resize_5/001447_2014-06-19_17-00-32_260595134347_rgbf000082-resize_5-target.png,125,4.13775,5,2581,125,feet,jsons/VE125_randls_16.json,746674,1156402,48,Woman
88,958879,DepthScenes,duration_manipulation_targetAtFixation,jsons/VE125_randls_16.json,http://54.235.29.9/FacialAge/BNav_EC2/DepthDuration/v2_depth_duration_MTurk/v2_DepthDuration_HTML.html#153,153,1707,781,1366,768,8-21-2022,10-52-51,89,depth_duration_stimuli/001199_2014-06-17_16-03-48_260595134347_rgbf000077-resize_0/001199_2014-06-17_16-03-48_260595134347_rgbf000077-resize_0-target.png,125,3.4375,5,2014,120,feet,jsons/VE125_randls_16.json,746674,1156402,48,Woman
89,958879,DepthScenes,duration_manipulation_targetAtFixation,jsons/VE125_randls_16.json,http://54.235.29.9/FacialAge/BNav_EC2/DepthDuration/v2_depth_duration_MTurk/v2_DepthDuration_HTML.html#153,153,1707,781,1366,768,8-21-2022,10-52-51,90,depth_duration_stimuli/000502_2014-06-08_23-02-32_260595134347_rgbf000063-resize_4/000502_2014-06-08_23-02-32_260595134347_rgbf000063-resize_4-target.png,125,2.431,4,2086,118,feet,jsons/VE125_randls_16.json,746674,1156402,48,Woman
90,958879,DepthScenes,duration_manipulation_targetAtFixation,jsons/VE125_randls_16.json,http://54.235.29.9/FacialAge/BNav_EC2/DepthDuration/v2_depth_duration_MTurk/v2_DepthDuration_HTML.html#153,153,1707,781,1366,768,8-21-2022,10-52-51,91,depth_duration_stimuli/000368_2014-06-09_15-53-01_260595134347_rgbf000155-resize_2/000368_2014-06-09_15-53-01_260595134347_rgbf000155-resize_2-target.png,125,2.4859999999999998,4,2779,125,feet,jsons/VE125_randls_16.json,746674,1156402,48,Woman
91,958879,DepthScenes,duration_manipulation_targetAtFixation,jsons/VE125_randls_16.json,http://54.235.29.9/FacialAge/BNav_EC2/DepthDuration/v2_depth_duration_MTurk/v2_DepthDuration_HTML.html#153,153,1707,781,1366,768,8-21-2022,10-52-51,92,depth_duration_stimuli/002678_2014-06-13_16-15-32_094959634447_rgbf000151-resize_6/002678_2014-06-13_16-15-32_094959634447_rgbf000151-resize_6-target.png,125,2.1830000000000003,1,3051,140,feet,jsons/VE125_randls_16.json,746674,1156402,48,Woman
92,958879,DepthScenes,duration_manipulation_targetAtFixation,jsons/VE125_randls_16.json,http://54.235.29.9/FacialAge/BNav_EC2/DepthDuration/v2_depth_duration_MTurk/v2_DepthDuration_HTML.html#153,153,1707,781,1366,768,8-21-2022,10-52-51,93,depth_duration_stimuli/001244_2014-06-17_16-47-45_260595134347_rgbf000030-resize_4/001244_2014-06-17_16-47-45_260595134347_rgbf000030-resize_4-target.png,125,2.0425,2,3077,120,feet,jsons/VE125_randls_16.json,746674,1156402,48,Woman
93,958879,DepthScenes,duration_manipulation_targetAtFixation,jsons/VE125_randls_16.json,http://54.235.29.9/FacialAge/BNav_EC2/DepthDuration/v2_depth_duration_MTurk/v2_DepthDuration_HTML.html#153,153,1707,781,1366,768,8-21-2022,10-52-51,94,depth_duration_stimuli/003495_2014-05-21_16-01-51_094959634447_rgbf000100-resize_3/003495_2014-05-21_16-01-51_094959634447_rgbf000100-resize_3-target.png,125,1.6255,2,1772,123,feet,jsons/VE125_randls_16.json,746674,1156402,48,Woman
94,958879,DepthScenes,duration_manipulation_targetAtFixation,jsons/VE125_randls_16.json,http://54.235.29.9/FacialAge/BNav_EC2/DepthDuration/v2_depth_duration_MTurk/v2_DepthDuration_HTML.html#153,153,1707,781,1366,768,8-21-2022,10-52-51,95,depth_duration_stimuli/002039_2014-06-24_20-22-38_260595134347_rgbf000084-resize_1/002039_2014-06-24_20-22-38_260595134347_rgbf000084-resize_1-target.png,125,4.408,2,1892,119,feet,jsons/VE125_randls_16.json,746674,1156402,48,Woman
95,958879,DepthScenes,duration_manipulation_targetAtFixation,jsons/VE125_randls_16.json,http://54.235.29.9/FacialAge/BNav_EC2/DepthDuration/v2_depth_duration_MTurk/v2_DepthDuration_HTML.html#153,153,1707,781,1366,768,8-21-2022,10-52-51,96,depth_duration_stimuli/002103_2014-06-25_20-00-40_260595134347_rgbf000049-resize_0/002103_2014-06-25_20-00-40_260595134347_rgbf000049-resize_0-target.png,125,4.105,2,1788,127,feet,jsons/VE125_randls_16.json,746674,1156402,48,Woman
96,958879,DepthScenes,duration_manipulation_targetAtFixation,jsons/VE125_randls_16.json,http://54.235.29.9/FacialAge/BNav_EC2/DepthDuration/v2_depth_duration_MTurk/v2_DepthDuration_HTML.html#153,153,1707,781,1366,768,8-21-2022,10-52-51,97,depth_duration_stimuli/002988_2014-06-15_12-24-20_094959634447_rgbf000150-resize_1/002988_2014-06-15_12-24-20_094959634447_rgbf000150-resize_1-target.png,125,4.7669999999999995,3,2450,123,feet,jsons/VE125_randls_16.json,746674,1156402,48,Woman
97,958879,DepthScenes,duration_manipulation_targetAtFixation,jsons/VE125_randls_16.json,http://54.235.29.9/FacialAge/BNav_EC2/DepthDuration/v2_depth_duration_MTurk/v2_DepthDuration_HTML.html#153,153,1707,781,1366,768,8-21-2022,10-52-51,98,depth_duration_stimuli/001052_2014-06-08_18-24-54_260595134347_rgbf000130-resize_1/001052_2014-06-08_18-24-54_260595134347_rgbf000130-resize_1-target.png,125,4.1045,3,3978,122,feet,jsons/VE125_randls_16.json,746674,1156402,48,Woman
98,958879,DepthScenes,duration_manipulation_targetAtFixation,jsons/VE125_randls_16.json,http://54.235.29.9/FacialAge/BNav_EC2/DepthDuration/v2_depth_duration_MTurk/v2_DepthDuration_HTML.html#153,153,1707,781,1366,768,8-21-2022,10-52-51,99,depth_duration_stimuli/001540_2014-06-20_17-01-05_260595134347_rgbf000086-resize_2/001540_2014-06-20_17-01-05_260595134347_rgbf000086-resize-original.jpg,125,1.459,5,2641,122,feet,jsons/VE125_randls_16.json,746674,1156402,48,Woman
99,958879,DepthScenes,duration_manipulation_targetAtFixation,jsons/VE125_randls_16.json,http://54.235.29.9/FacialAge/BNav_EC2/DepthDuration/v2_depth_duration_MTurk/v2_DepthDuration_HTML.html#153,153,1707,781,1366,768,8-21-2022,10-52-51,100,depth_duration_stimuli/000470_2014-06-09_19-42-40_260595134347_rgbf000094-resize_1/000470_2014-06-09_19-42-40_260595134347_rgbf000094-resize_1-target.png,125,1.831,4,2765,124,feet,jsons/VE125_randls_16.json,746674,1156402,48,Woman
100,958879,DepthScenes,duration_manipulation_targetAtFixation,jsons/VE125_randls_16.json,http://54.235.29.9/FacialAge/BNav_EC2/DepthDuration/v2_depth_duration_MTurk/v2_DepthDuration_HTML.html#153,153,1707,781,1366,768,8-21-2022,10-52-51,101,depth_duration_stimuli/000109_2014-05-14_23-41-52_260595134347_rgbf000035-resize_9/000109_2014-05-14_23-41-52_260595134347_rgbf000035-resize_9-target.png,125,1.3545,4,1982,108,feet,jsons/VE125_randls_16.json,746674,1156402,48,Woman
101,958879,DepthScenes,duration_manipulation_targetAtFixation,jsons/VE125_randls_16.json,http://54.235.29.9/FacialAge/BNav_EC2/DepthDuration/v2_depth_duration_MTurk/v2_DepthDuration_HTML.html#153,153,1707,781,1366,768,8-21-2022,10-52-51,102,depth_duration_stimuli/001806_2014-06-26_20-50-20_260595134347_rgbf000091-resize_1/001806_2014-06-26_20-50-20_260595134347_rgbf000091-resize_1-target.png,125,2.7305,4,2018,127,feet,jsons/VE125_randls_16.json,746674,1156402,48,Woman
102,958879,DepthScenes,duration_manipulation_targetAtFixation,jsons/VE125_randls_16.json,http://54.235.29.9/FacialAge/BNav_EC2/DepthDuration/v2_depth_duration_MTurk/v2_DepthDuration_HTML.html#153,153,1707,781,1366,768,8-21-2022,10-52-51,103,depth_duration_stimuli/001617_2014-06-20_11-35-32_260595134347_rgbf000066-resize_1/001617_2014-06-20_11-35-32_260595134347_rgbf000066-resize_1-target.png,125,3.7910000000000004,4,1832,123,feet,jsons/VE125_randls_16.json,746674,1156402,48,Woman
103,958879,DepthScenes,duration_manipulation_targetAtFixation,jsons/VE125_randls_16.json,http://54.235.29.9/FacialAge/BNav_EC2/DepthDuration/v2_depth_duration_MTurk/v2_DepthDuration_HTML.html#153,153,1707,781,1366,768,8-21-2022,10-52-51,104,depth_duration_stimuli/000929_2014-06-09_16-33-19_260595134347_rgbf000139-resize_0/000929_2014-06-09_16-33-19_260595134347_rgbf000139-resize_0-target.png,125,2.8680000000000003,4,1929,124,feet,jsons/VE125_randls_16.json,746674,1156402,48,Woman
104,958879,DepthScenes,duration_manipulation_targetAtFixation,jsons/VE125_randls_16.json,http://54.235.29.9/FacialAge/BNav_EC2/DepthDuration/v2_depth_duration_MTurk/v2_DepthDuration_HTML.html#153,153,1707,781,1366,768,8-21-2022,10-52-51,105,depth_duration_stimuli/000457_2014-06-08_16-52-43_260595134347_rgbf000199-resize_1/000457_2014-06-08_16-52-43_260595134347_rgbf000199-resize_1-target.png,125,3.6489999999999996,2,1930,84,feet,jsons/VE125_randls_16.json,746674,1156402,48,Woman
105,958879,DepthScenes,duration_manipulation_targetAtFixation,jsons/VE125_randls_16.json,http://54.235.29.9/FacialAge/BNav_EC2/DepthDuration/v2_depth_duration_MTurk/v2_DepthDuration_HTML.html#153,153,1707,781,1366,768,8-21-2022,10-52-51,106,depth_duration_stimuli/002989_2014-06-15_12-25-03_094959634447_rgbf000150-resize_3/002989_2014-06-15_12-25-03_094959634447_rgbf000150-resize_3-target.png,125,4.1975,2,2068,125,feet,jsons/VE125_randls_16.json,746674,1156402,48,Woman
106,958879,DepthScenes,duration_manipulation_targetAtFixation,jsons/VE125_randls_16.json,http://54.235.29.9/FacialAge/BNav_EC2/DepthDuration/v2_depth_duration_MTurk/v2_DepthDuration_HTML.html#153,153,1707,781,1366,768,8-21-2022,10-52-51,107,depth_duration_stimuli/000866_2014-06-09_20-45-42_260595134347_rgbf000139-resize_1/000866_2014-06-09_20-45-42_260595134347_rgbf000139-resize_1-target.png,125,3.2155,2,1980,123,feet,jsons/VE125_randls_16.json,746674,1156402,48,Woman
107,958879,DepthScenes,duration_manipulation_targetAtFixation,jsons/VE125_randls_16.json,http://54.235.29.9/FacialAge/BNav_EC2/DepthDuration/v2_depth_duration_MTurk/v2_DepthDuration_HTML.html#153,153,1707,781,1366,768,8-21-2022,10-52-51,108,depth_duration_stimuli/002279_2014-06-28_18-55-32_260595134347_rgbf000040-resize_5/002279_2014-06-28_18-55-32_260595134347_rgbf000040-resize_5-target.png,125,1.5043333333333,2,2274,130,feet,jsons/VE125_randls_16.json,746674,1156402,48,Woman
108,958879,DepthScenes,duration_manipulation_targetAtFixation,jsons/VE125_randls_16.json,http://54.235.29.9/FacialAge/BNav_EC2/DepthDuration/v2_depth_duration_MTurk/v2_DepthDuration_HTML.html#153,153,1707,781,1366,768,8-21-2022,10-52-51,109,depth_duration_stimuli/000635_2014-06-08_16-38-42_260595134347_rgbf000106-resize_1/000635_2014-06-08_16-38-42_260595134347_rgbf000106-resize_1-target.png,125,2.074,2,3000,124,feet,jsons/VE125_randls_16.json,746674,1156402,48,Woman
109,958879,DepthScenes,duration_manipulation_targetAtFixation,jsons/VE125_randls_16.json,http://54.235.29.9/FacialAge/BNav_EC2/DepthDuration/v2_depth_duration_MTurk/v2_DepthDuration_HTML.html#153,153,1707,781,1366,768,8-21-2022,10-52-51,110,depth_duration_stimuli/000739_2014-06-08_18-45-58_260595134347_rgbf000068-resize_1/000739_2014-06-08_18-45-58_260595134347_rgbf000068-resize_1-target.png,125,3.534,2,2011,171,feet,jsons/VE125_randls_16.json,746674,1156402,48,Woman
110,958879,DepthScenes,duration_manipulation_targetAtFixation,jsons/VE125_randls_16.json,http://54.235.29.9/FacialAge/BNav_EC2/DepthDuration/v2_depth_duration_MTurk/v2_DepthDuration_HTML.html#153,153,1707,781,1366,768,8-21-2022,10-52-51,111,depth_duration_stimuli/000734_2014-06-08_17-39-11_260595134347_rgbf000128-resize_2/000734_2014-06-08_17-39-11_260595134347_rgbf000128-resize_2-target.png,125,4.098,2,2347,127,feet,jsons/VE125_randls_16.json,746674,1156402,48,Woman
111,958879,DepthScenes,duration_manipulation_targetAtFixation,jsons/VE125_randls_16.json,http://54.235.29.9/FacialAge/BNav_EC2/DepthDuration/v2_depth_duration_MTurk/v2_DepthDuration_HTML.html#153,153,1707,781,1366,768,8-21-2022,10-52-51,112,depth_duration_stimuli/002043_2014-06-24_20-29-38_260595134347_rgbf000039-resize_4/002043_2014-06-24_20-29-38_260595134347_rgbf000039-resize_4-target.png,125,2.8435,2,1904,110,feet,jsons/VE125_randls_16.json,746674,1156402,48,Woman
112,958879,DepthScenes,duration_manipulation_targetAtFixation,jsons/VE125_randls_16.json,http://54.235.29.9/FacialAge/BNav_EC2/DepthDuration/v2_depth_duration_MTurk/v2_DepthDuration_HTML.html#153,153,1707,781,1366,768,8-21-2022,10-52-51,113,depth_duration_stimuli/003048_2014-06-15_13-49-43_094959634447_rgbf000150-resize_1/003048_2014-06-15_13-49-43_094959634447_rgbf000150-resize_1-target.png,125,4.0035,2,2335,100,feet,jsons/VE125_randls_16.json,746674,1156402,48,Woman
113,958879,DepthScenes,duration_manipulation_targetAtFixation,jsons/VE125_randls_16.json,http://54.235.29.9/FacialAge/BNav_EC2/DepthDuration/v2_depth_duration_MTurk/v2_DepthDuration_HTML.html#153,153,1707,781,1366,768,8-21-2022,10-52-51,114,depth_duration_stimuli/003534_2014-05-22_15-06-10_094959634447_rgbf000102-resize_4/003534_2014-05-22_15-06-10_094959634447_rgbf000102-resize_4-target.png,125,1.426,3,3282,126,feet,jsons/VE125_randls_16.json,746674,1156402,48,Woman
114,958879,DepthScenes,duration_manipulation_targetAtFixation,jsons/VE125_randls_16.json,http://54.235.29.9/FacialAge/BNav_EC2/DepthDuration/v2_depth_duration_MTurk/v2_DepthDuration_HTML.html#153,153,1707,781,1366,768,8-21-2022,10-52-51,115,depth_duration_stimuli/002637_2014-06-24_14-51-13_094959634447_rgbf000066-resize_4/002637_2014-06-24_14-51-13_094959634447_rgbf000066-resize_4-target.png,125,1.9955,3,2935,123,feet,jsons/VE125_randls_16.json,746674,1156402,48,Woman
115,958879,DepthScenes,duration_manipulation_targetAtFixation,jsons/VE125_randls_16.json,http://54.235.29.9/FacialAge/BNav_EC2/DepthDuration/v2_depth_duration_MTurk/v2_DepthDuration_HTML.html#153,153,1707,781,1366,768,8-21-2022,10-52-51,116,depth_duration_stimuli/001170_2014-06-17_15-43-44_260595134347_rgbf000096-resize_6/001170_2014-06-17_15-43-44_260595134347_rgbf000096-resize-original.jpg,125,1.1909999999999998,3,1840,116,feet,jsons/VE125_randls_16.json,746674,1156402,48,Woman
116,958879,DepthScenes,duration_manipulation_targetAtFixation,jsons/VE125_randls_16.json,http://54.235.29.9/FacialAge/BNav_EC2/DepthDuration/v2_depth_duration_MTurk/v2_DepthDuration_HTML.html#153,153,1707,781,1366,768,8-21-2022,10-52-51,117,depth_duration_stimuli/002153_2014-06-25_21-27-18_260595134347_rgbf000038-resize_5/002153_2014-06-25_21-27-18_260595134347_rgbf000038-resize_5-target.png,125,2.505,3,2681,136,feet,jsons/VE125_randls_16.json,746674,1156402,48,Woman
117,958879,DepthScenes,duration_manipulation_targetAtFixation,jsons/VE125_randls_16.json,http://54.235.29.9/FacialAge/BNav_EC2/DepthDuration/v2_depth_duration_MTurk/v2_DepthDuration_HTML.html#153,153,1707,781,1366,768,8-21-2022,10-52-51,118,depth_duration_stimuli/002660_2014-06-13_15-44-18_094959634447_rgbf001878-resize_2/002660_2014-06-13_15-44-18_094959634447_rgbf001878-resize_2-target.png,125,3.576,3,1969,125,feet,jsons/VE125_randls_16.json,746674,1156402,48,Woman
118,958879,DepthScenes,duration_manipulation_targetAtFixation,jsons/VE125_randls_16.json,http://54.235.29.9/FacialAge/BNav_EC2/DepthDuration/v2_depth_duration_MTurk/v2_DepthDuration_HTML.html#153,153,1707,781,1366,768,8-21-2022,10-52-51,119,depth_duration_stimuli/001066_2014-06-08_22-03-20_260595134347_rgbf000066-resize_4/001066_2014-06-08_22-03-20_260595134347_rgbf000066-resize_4-target.png,125,4.2330000000000005,3,1967,104,feet,jsons/VE125_randls_16.json,746674,1156402,48,Woman
119,958879,DepthScenes,duration_manipulation_targetAtFixation,jsons/VE125_randls_16.json,http://54.235.29.9/FacialAge/BNav_EC2/DepthDuration/v2_depth_duration_MTurk/v2_DepthDuration_HTML.html#153,153,1707,781,1366,768,8-21-2022,10-52-51,120,depth_duration_stimuli/000742_2014-06-08_18-48-09_260595134347_rgbf000164-resize_4/000742_2014-06-08_18-48-09_260595134347_rgbf000164-resize_4-target.png,125,4.632,3,1882,129,feet,jsons/VE125_randls_16.json,746674,1156402,48,Woman
120,958879,DepthScenes,duration_manipulation_targetAtFixation,jsons/VE125_randls_16.json,http://54.235.29.9/FacialAge/BNav_EC2/DepthDuration/v2_depth_duration_MTurk/v2_DepthDuration_HTML.html#153,153,1707,781,1366,768,8-21-2022,10-52-51,121,depth_duration_stimuli/001092_2014-06-15_17-34-58_260595134347_rgbf000171-resize_3/001092_2014-06-15_17-34-58_260595134347_rgbf000171-resize_3-target.png,125,2.6935,1,2017,123,feet,jsons/VE125_randls_16.json,746674,1156402,48,Woman
121,958879,DepthScenes,duration_manipulation_targetAtFixation,jsons/VE125_randls_16.json,http://54.235.29.9/FacialAge/BNav_EC2/DepthDuration/v2_depth_duration_MTurk/v2_DepthDuration_HTML.html#153,153,1707,781,1366,768,8-21-2022,10-52-51,122,depth_duration_stimuli/002545_2014-06-24_13-38-53_094959634447_rgbf000080-resize_4/002545_2014-06-24_13-38-53_094959634447_rgbf000080-resize_4-target.png,125,1.9205,5,1744,131,feet,jsons/VE125_randls_16.json,746674,1156402,48,Woman
122,958879,DepthScenes,duration_manipulation_targetAtFixation,jsons/VE125_randls_16.json,http://54.235.29.9/FacialAge/BNav_EC2/DepthDuration/v2_depth_duration_MTurk/v2_DepthDuration_HTML.html#153,153,1707,781,1366,768,8-21-2022,10-52-51,123,depth_duration_stimuli/002964_2014-06-08_17-46-11_094959634447_rgbf000091-resize_4/002964_2014-06-08_17-46-11_094959634447_rgbf000091-resize_4-target.png,125,1.6909999999999998,5,1527,97,feet,jsons/VE125_randls_16.json,746674,1156402,48,Woman
123,958879,DepthScenes,duration_manipulation_targetAtFixation,jsons/VE125_randls_16.json,http://54.235.29.9/FacialAge/BNav_EC2/DepthDuration/v2_depth_duration_MTurk/v2_DepthDuration_HTML.html#153,153,1707,781,1366,768,8-21-2022,10-52-51,124,depth_duration_stimuli/002136_2014-06-25_21-18-03_260595134347_rgbf000109-resize_3/002136_2014-06-25_21-18-03_260595134347_rgbf000109-resize_3-target.png,125,1.9569999999999999,5,1866,220,feet,jsons/VE125_randls_16.json,746674,1156402,48,Woman
124,958879,DepthScenes,duration_manipulation_targetAtFixation,jsons/VE125_randls_16.json,http://54.235.29.9/FacialAge/BNav_EC2/DepthDuration/v2_depth_duration_MTurk/v2_DepthDuration_HTML.html#153,153,1707,781,1366,768,8-21-2022,10-52-51,125,depth_duration_stimuli/001055_2014-06-08_18-45-35_260595134347_rgbf000111-resize_4/001055_2014-06-08_18-45-35_260595134347_rgbf000111-resize_4-target.png,125,2.4290000000000003,5,3069,122,feet,jsons/VE125_randls_16.json,746674,1156402,48,Woman
125,958879,DepthScenes,duration_manipulation_targetAtFixation,jsons/VE125_randls_16.json,http://54.235.29.9/FacialAge/BNav_EC2/DepthDuration/v2_depth_duration_MTurk/v2_DepthDuration_HTML.html#153,153,1707,781,1366,768,8-21-2022,10-52-51,126,depth_duration_stimuli/000549_2014-06-08_22-10-24_260595134347_rgbf000247-resize_3/000549_2014-06-08_22-10-24_260595134347_rgbf000247-resize_3-target.png,125,1.841,3,1811,125,feet,jsons/VE125_randls_16.json,746674,1156402,48,Woman
126,958879,DepthScenes,duration_manipulation_targetAtFixation,jsons/VE125_randls_16.json,http://54.235.29.9/FacialAge/BNav_EC2/DepthDuration/v2_depth_duration_MTurk/v2_DepthDuration_HTML.html#153,153,1707,781,1366,768,8-21-2022,10-52-51,127,depth_duration_stimuli/001011_2014-06-08_23-18-54_260595134347_rgbf000044-resize_4/001011_2014-06-08_23-18-54_260595134347_rgbf000044-resize_4-target.png,125,2.4730000000000003,3,1858,127,feet,jsons/VE125_randls_16.json,746674,1156402,48,Woman
127,958879,DepthScenes,duration_manipulation_targetAtFixation,jsons/VE125_randls_16.json,http://54.235.29.9/FacialAge/BNav_EC2/DepthDuration/v2_depth_duration_MTurk/v2_DepthDuration_HTML.html#153,153,1707,781,1366,768,8-21-2022,10-52-51,128,depth_duration_stimuli/002875_2014-06-01_15-19-00_094959634447_rgbf000151-resize_1/002875_2014-06-01_15-19-00_094959634447_rgbf000151-resize_1-target.png,125,1.9675,11,3207,123,feet,jsons/VE125_randls_16.json,746674,1156402,48,Woman
128,958879,DepthScenes,duration_manipulation_targetAtFixation,jsons/VE125_randls_16.json,http://54.235.29.9/FacialAge/BNav_EC2/DepthDuration/v2_depth_duration_MTurk/v2_DepthDuration_HTML.html#153,153,1707,781,1366,768,8-21-2022,10-52-51,129,depth_duration_stimuli/002784_2014-06-22_19-26-30_094959634447_rgbf000083-resize_3/002784_2014-06-22_19-26-30_094959634447_rgbf000083-resize_3-target.png,125,1.8046666666667,2,1590,124,feet,jsons/VE125_randls_16.json,746674,1156402,48,Woman
129,958879,DepthScenes,duration_manipulation_targetAtFixation,jsons/VE125_randls_16.json,http://54.235.29.9/FacialAge/BNav_EC2/DepthDuration/v2_depth_duration_MTurk/v2_DepthDuration_HTML.html#153,153,1707,781,1366,768,8-21-2022,10-52-51,130,depth_duration_stimuli/001100_2014-06-15_17-46-26_260595134347_rgbf000225-resize_2/001100_2014-06-15_17-46-26_260595134347_rgbf000225-resize_2-target.png,125,2.24,2,2230,117,feet,jsons/VE125_randls_16.json,746674,1156402,48,Woman
130,958879,DepthScenes,duration_manipulation_targetAtFixation,jsons/VE125_randls_16.json,http://54.235.29.9/FacialAge/BNav_EC2/DepthDuration/v2_depth_duration_MTurk/v2_DepthDuration_HTML.html#153,153,1707,781,1366,768,8-21-2022,10-52-51,131,depth_duration_stimuli/001056_2014-06-08_18-46-44_260595134347_rgbf000068-resize_0/001056_2014-06-08_18-46-44_260595134347_rgbf000068-resize_0-target.png,125,2.6625,5,25204,125,feet,jsons/VE125_randls_16.json,746674,1156402,48,Woman
131,958879,DepthScenes,duration_manipulation_targetAtFixation,jsons/VE125_randls_16.json,http://54.235.29.9/FacialAge/BNav_EC2/DepthDuration/v2_depth_duration_MTurk/v2_DepthDuration_HTML.html#153,153,1707,781,1366,768,8-21-2022,10-52-51,132,depth_duration_stimuli/002199_2014-06-28_18-33-56_260595134347_rgbf000074-resize_0/002199_2014-06-28_18-33-56_260595134347_rgbf000074-resize_0-target.png,125,1.996,5,2844,124,feet,jsons/VE125_randls_16.json,746674,1156402,48,Woman
132,958879,DepthScenes,duration_manipulation_targetAtFixation,jsons/VE125_randls_16.json,http://54.235.29.9/FacialAge/BNav_EC2/DepthDuration/v2_depth_duration_MTurk/v2_DepthDuration_HTML.html#153,153,1707,781,1366,768,8-21-2022,10-52-51,133,depth_duration_stimuli/002509_2014-06-24_13-19-22_094959634447_rgbf000077-resize_0/002509_2014-06-24_13-19-22_094959634447_rgbf000077-resize_0-target.png,125,1.3065,8,1748,124,feet,jsons/VE125_randls_16.json,746674,1156402,48,Woman
133,958879,DepthScenes,duration_manipulation_targetAtFixation,jsons/VE125_randls_16.json,http://54.235.29.9/FacialAge/BNav_EC2/DepthDuration/v2_depth_duration_MTurk/v2_DepthDuration_HTML.html#153,153,1707,781,1366,768,8-21-2022,10-52-51,134,depth_duration_stimuli/003338_2014-05-20_11-01-23_094959634447_rgbf000051-resize_6/003338_2014-05-20_11-01-23_094959634447_rgbf000051-resize_6-target.png,125,1.693,8,3895,123,feet,jsons/VE125_randls_16.json,746674,1156402,48,Woman
134,958879,DepthScenes,duration_manipulation_targetAtFixation,jsons/VE125_randls_16.json,http://54.235.29.9/FacialAge/BNav_EC2/DepthDuration/v2_depth_duration_MTurk/v2_DepthDuration_HTML.html#153,153,1707,781,1366,768,8-21-2022,10-52-51,135,depth_duration_stimuli/002072_2014-06-24_21-48-06_260595134347_rgbf000115-resize_0/002072_2014-06-24_21-48-06_260595134347_rgbf000115-resize-original.jpg,125,4.702,6,2818,124,feet,jsons/VE125_randls_16.json,746674,1156402,48,Woman
135,958879,DepthScenes,duration_manipulation_targetAtFixation,jsons/VE125_randls_16.json,http://54.235.29.9/FacialAge/BNav_EC2/DepthDuration/v2_depth_duration_MTurk/v2_DepthDuration_HTML.html#153,153,1707,781,1366,768,8-21-2022,10-52-51,136,depth_duration_stimuli/002630_2014-06-24_14-47-50_094959634447_rgbf000055-resize_1/002630_2014-06-24_14-47-50_094959634447_rgbf000055-resize_1-target.png,125,3.0095,7,3859,123,feet,jsons/VE125_randls_16.json,746674,1156402,48,Woman
136,958879,DepthScenes,duration_manipulation_targetAtFixation,jsons/VE125_randls_16.json,http://54.235.29.9/FacialAge/BNav_EC2/DepthDuration/v2_depth_duration_MTurk/v2_DepthDuration_HTML.html#153,153,1707,781,1366,768,8-21-2022,10-52-51,137,depth_duration_stimuli/002758_2014-06-22_19-11-20_094959634447_rgbf000128-resize_1/002758_2014-06-22_19-11-20_094959634447_rgbf000128-resize_1-target.png,125,2.555,7,2141,125,feet,jsons/VE125_randls_16.json,746674,1156402,48,Woman
137,958879,DepthScenes,duration_manipulation_targetAtFixation,jsons/VE125_randls_16.json,http://54.235.29.9/FacialAge/BNav_EC2/DepthDuration/v2_depth_duration_MTurk/v2_DepthDuration_HTML.html#153,153,1707,781,1366,768,8-21-2022,10-52-51,138,depth_duration_stimuli/000906_2014-06-08_13-35-43_260595134347_rgbf000155-resize_1/000906_2014-06-08_13-35-43_260595134347_rgbf000155-resize_1-target.png,125,2.8489999999999998,7,3728,122,feet,jsons/VE125_randls_16.json,746674,1156402,48,Woman
138,958879,DepthScenes,duration_manipulation_targetAtFixation,jsons/VE125_randls_16.json,http://54.235.29.9/FacialAge/BNav_EC2/DepthDuration/v2_depth_duration_MTurk/v2_DepthDuration_HTML.html#153,153,1707,781,1366,768,8-21-2022,10-52-51,139,depth_duration_stimuli/002805_2014-06-22_19-54-03_094959634447_rgbf000079-resize_1/002805_2014-06-22_19-54-03_094959634447_rgbf000079-resize_1-target.png,125,3.1439999999999997,4,2076,111,feet,jsons/VE125_randls_16.json,746674,1156402,48,Woman
139,958879,DepthScenes,duration_manipulation_targetAtFixation,jsons/VE125_randls_16.json,http://54.235.29.9/FacialAge/BNav_EC2/DepthDuration/v2_depth_duration_MTurk/v2_DepthDuration_HTML.html#153,153,1707,781,1366,768,8-21-2022,10-52-51,140,depth_duration_stimuli/002118_2014-06-25_20-32-08_260595134347_rgbf000078-resize_1/002118_2014-06-25_20-32-08_260595134347_rgbf000078-resize_1-target.png,125,2.6460000000000004,4,3336,122,feet,jsons/VE125_randls_16.json,746674,1156402,48,Woman
140,958879,DepthScenes,duration_manipulation_targetAtFixation,jsons/VE125_randls_16.json,http://54.235.29.9/FacialAge/BNav_EC2/DepthDuration/v2_depth_duration_MTurk/v2_DepthDuration_HTML.html#153,153,1707,781,1366,768,8-21-2022,10-52-51,141,depth_duration_stimuli/001516_2014-06-20_16-25-09_260595134347_rgbf000076-resize_2/001516_2014-06-20_16-25-09_260595134347_rgbf000076-resize_2-target.png,125,1.7445,3,3111,123,feet,jsons/VE125_randls_16.json,746674,1156402,48,Woman
141,958879,DepthScenes,duration_manipulation_targetAtFixation,jsons/VE125_randls_16.json,http://54.235.29.9/FacialAge/BNav_EC2/DepthDuration/v2_depth_duration_MTurk/v2_DepthDuration_HTML.html#153,153,1707,781,1366,768,8-21-2022,10-52-51,142,depth_duration_stimuli/002600_2014-06-24_14-27-04_094959634447_rgbf000074-resize_2/002600_2014-06-24_14-27-04_094959634447_rgbf000074-resize_2-target.png,125,2.7575,8,2477,122,feet,jsons/VE125_randls_16.json,746674,1156402,48,Woman
142,958879,DepthScenes,duration_manipulation_targetAtFixation,jsons/VE125_randls_16.json,http://54.235.29.9/FacialAge/BNav_EC2/DepthDuration/v2_depth_duration_MTurk/v2_DepthDuration_HTML.html#153,153,1707,781,1366,768,8-21-2022,10-52-51,143,depth_duration_stimuli/003228_2014-05-14_13-42-35_094959634447_rgbf000101-resize_1/003228_2014-05-14_13-42-35_094959634447_rgbf000101-resize_1-target.png,125,1.9680000000000002,8,2674,125,feet,jsons/VE125_randls_16.json,746674,1156402,48,Woman
143,958879,DepthScenes,duration_manipulation_targetAtFixation,jsons/VE125_randls_16.json,http://54.235.29.9/FacialAge/BNav_EC2/DepthDuration/v2_depth_duration_MTurk/v2_DepthDuration_HTML.html#153,153,1707,781,1366,768,8-21-2022,10-52-51,144,depth_duration_stimuli/000788_2014-06-08_22-34-36_260595134347_rgbf000131-resize_1/000788_2014-06-08_22-34-36_260595134347_rgbf000131-resize_1-target.png,125,3.359,7,2305,124,feet,jsons/VE125_randls_16.json,746674,1156402,48,Woman
144,958879,DepthScenes,duration_manipulation_targetAtFixation,jsons/VE125_randls_16.json,http://54.235.29.9/FacialAge/BNav_EC2/DepthDuration/v2_depth_duration_MTurk/v2_DepthDuration_HTML.html#153,153,1707,781,1366,768,8-21-2022,10-52-51,145,depth_duration_stimuli/001235_2014-06-17_16-37-36_260595134347_rgbf000084-resize_4/001235_2014-06-17_16-37-36_260595134347_rgbf000084-resize_4-target.png,125,3.6605,7,2251,121,feet,jsons/VE125_randls_16.json,746674,1156402,48,Woman
145,958879,DepthScenes,duration_manipulation_targetAtFixation,jsons/VE125_randls_16.json,http://54.235.29.9/FacialAge/BNav_EC2/DepthDuration/v2_depth_duration_MTurk/v2_DepthDuration_HTML.html#153,153,1707,781,1366,768,8-21-2022,10-52-51,146,depth_duration_stimuli/001498_2014-06-19_17-45-14_260595134347_rgbf000129-resize_4/001498_2014-06-19_17-45-14_260595134347_rgbf000129-resize-original.jpg,125,1.4075,4,1914,124,feet,jsons/VE125_randls_16.json,746674,1156402,48,Woman
146,958879,DepthScenes,duration_manipulation_targetAtFixation,jsons/VE125_randls_16.json,http://54.235.29.9/FacialAge/BNav_EC2/DepthDuration/v2_depth_duration_MTurk/v2_DepthDuration_HTML.html#153,153,1707,781,1366,768,8-21-2022,10-52-51,147,depth_duration_stimuli/001417_2014-06-19_16-25-36_260595134347_rgbf000115-resize_5/001417_2014-06-19_16-25-36_260595134347_rgbf000115-resize_5-target.png,125,4.6255,4,2209,124,feet,jsons/VE125_randls_16.json,746674,1156402,48,Woman
147,958879,DepthScenes,duration_manipulation_targetAtFixation,jsons/VE125_randls_16.json,http://54.235.29.9/FacialAge/BNav_EC2/DepthDuration/v2_depth_duration_MTurk/v2_DepthDuration_HTML.html#153,153,1707,781,1366,768,8-21-2022,10-52-51,148,depth_duration_stimuli/003081_2014-06-15_15-19-16_094959634447_rgbf000150-resize_1/003081_2014-06-15_15-19-16_094959634447_rgbf000150-resize_1-target.png,125,3.9125,4,2705,109,feet,jsons/VE125_randls_16.json,746674,1156402,48,Woman
148,958879,DepthScenes,duration_manipulation_targetAtFixation,jsons/VE125_randls_16.json,http://54.235.29.9/FacialAge/BNav_EC2/DepthDuration/v2_depth_duration_MTurk/v2_DepthDuration_HTML.html#153,153,1707,781,1366,768,8-21-2022,10-52-51,149,depth_duration_stimuli/002905_2014-06-03_18-04-43_094959634447_rgbf000151-resize_2/002905_2014-06-03_18-04-43_094959634447_rgbf000151-resize_2-target.png,125,2.0295,3,3628,124,feet,jsons/VE125_randls_16.json,746674,1156402,48,Woman
149,958879,DepthScenes,duration_manipulation_targetAtFixation,jsons/VE125_randls_16.json,http://54.235.29.9/FacialAge/BNav_EC2/DepthDuration/v2_depth_duration_MTurk/v2_DepthDuration_HTML.html#153,153,1707,781,1366,768,8-21-2022,10-52-51,150,depth_duration_stimuli/003423_2014-05-21_10-23-26_094959634447_rgbf002665-resize_2/003423_2014-05-21_10-23-26_094959634447_rgbf002665-resize_2-target.png,125,3.2575,3,3317,131,feet,jsons/VE125_randls_16.json,746674,1156402,48,Woman
150,958879,DepthScenes,duration_manipulation_targetAtFixation,jsons/VE125_randls_16.json,http://54.235.29.9/FacialAge/BNav_EC2/DepthDuration/v2_depth_duration_MTurk/v2_DepthDuration_HTML.html#153,153,1707,781,1366,768,8-21-2022,10-52-51,151,depth_duration_stimuli/000692_2014-06-08_13-09-42_260595134347_rgbf000199-resize_2/000692_2014-06-08_13-09-42_260595134347_rgbf000199-resize_2-target.png,125,3.661,6,2133,127,feet,jsons/VE125_randls_16.json,746674,1156402,48,Woman
151,958879,DepthScenes,duration_manipulation_targetAtFixation,jsons/VE125_randls_16.json,http://54.235.29.9/FacialAge/BNav_EC2/DepthDuration/v2_depth_duration_MTurk/v2_DepthDuration_HTML.html#153,153,1707,781,1366,768,8-21-2022,10-52-51,152,depth_duration_stimuli/001094_2014-06-15_17-36-00_260595134347_rgbf000205-resize_0/001094_2014-06-15_17-36-00_260595134347_rgbf000205-resize_0-target.png,125,4.2175,7,1927,127,feet,jsons/VE125_randls_16.json,746674,1156402,48,Woman
152,958879,DepthScenes,duration_manipulation_targetAtFixation,jsons/VE125_randls_16.json,http://54.235.29.9/FacialAge/BNav_EC2/DepthDuration/v2_depth_duration_MTurk/v2_DepthDuration_HTML.html#153,153,1707,781,1366,768,8-21-2022,10-52-51,153,depth_duration_stimuli/002445_2014-06-28_20-32-16_260595134347_rgbf000029-resize_4/002445_2014-06-28_20-32-16_260595134347_rgbf000029-resize_4-target.png,125,2.5315,7,2291,122,feet,jsons/VE125_randls_16.json,746674,1156402,48,Woman
153,958879,DepthScenes,duration_manipulation_targetAtFixation,jsons/VE125_randls_16.json,http://54.235.29.9/FacialAge/BNav_EC2/DepthDuration/v2_depth_duration_MTurk/v2_DepthDuration_HTML.html#153,153,1707,781,1366,768,8-21-2022,10-52-51,154,depth_duration_stimuli/000780_2014-06-08_22-28-29_260595134347_rgbf000126-resize_1/000780_2014-06-08_22-28-29_260595134347_rgbf000126-resize_1-target.png,125,3.3825,5,2151,120,feet,jsons/VE125_randls_16.json,746674,1156402,48,Woman
154,958879,DepthScenes,duration_manipulation_targetAtFixation,jsons/VE125_randls_16.json,http://54.235.29.9/FacialAge/BNav_EC2/DepthDuration/v2_depth_duration_MTurk/v2_DepthDuration_HTML.html#153,153,1707,781,1366,768,8-21-2022,10-52-51,155,depth_duration_stimuli/000773_2014-06-08_22-24-54_260595134347_rgbf000093-resize_1/000773_2014-06-08_22-24-54_260595134347_rgbf000093-resize_1-target.png,125,4.973,4,3072,132,feet,jsons/VE125_randls_16.json,746674,1156402,48,Woman
155,958879,DepthScenes,duration_manipulation_targetAtFixation,jsons/VE125_randls_16.json,http://54.235.29.9/FacialAge/BNav_EC2/DepthDuration/v2_depth_duration_MTurk/v2_DepthDuration_HTML.html#153,153,1707,781,1366,768,8-21-2022,10-52-51,156,depth_duration_stimuli/002414_2014-06-28_20-24-58_260595134347_rgbf000067-resize_4/002414_2014-06-28_20-24-58_260595134347_rgbf000067-resize_4-target.png,125,4.363,3,3619,125,feet,jsons/VE125_randls_16.json,746674,1156402,48,Woman
156,958879,DepthScenes,duration_manipulation_targetAtFixation,jsons/VE125_randls_16.json,http://54.235.29.9/FacialAge/BNav_EC2/DepthDuration/v2_depth_duration_MTurk/v2_DepthDuration_HTML.html#153,153,1707,781,1366,768,8-21-2022,10-52-51,157,depth_duration_stimuli/000486_2014-06-09_20-47-20_260595134347_rgbf000143-resize_2/000486_2014-06-09_20-47-20_260595134347_rgbf000143-resize_2-target.png,125,4.8325,4,2542,110,feet,jsons/VE125_randls_16.json,746674,1156402,48,Woman
157,958879,DepthScenes,duration_manipulation_targetAtFixation,jsons/VE125_randls_16.json,http://54.235.29.9/FacialAge/BNav_EC2/DepthDuration/v2_depth_duration_MTurk/v2_DepthDuration_HTML.html#153,153,1707,781,1366,768,8-21-2022,10-52-51,158,depth_duration_stimuli/003083_2014-06-15_15-21-03_094959634447_rgbf000063-resize_1/003083_2014-06-15_15-21-03_094959634447_rgbf000063-resize_1-target.png,125,4.1405,4,1658,123,feet,jsons/VE125_randls_16.json,746674,1156402,48,Woman
158,958879,DepthScenes,duration_manipulation_targetAtFixation,jsons/VE125_randls_16.json,http://54.235.29.9/FacialAge/BNav_EC2/DepthDuration/v2_depth_duration_MTurk/v2_DepthDuration_HTML.html#153,153,1707,781,1366,768,8-21-2022,10-52-51,159,depth_duration_stimuli/002549_2014-06-24_13-41-39_094959634447_rgbf000022-resize_3/002549_2014-06-24_13-41-39_094959634447_rgbf000022-resize_3-target.png,125,1.476,5,1802,133,feet,jsons/VE125_randls_16.json,746674,1156402,48,Woman
159,958879,DepthScenes,duration_manipulation_targetAtFixation,jsons/VE125_randls_16.json,http://54.235.29.9/FacialAge/BNav_EC2/DepthDuration/v2_depth_duration_MTurk/v2_DepthDuration_HTML.html#153,153,1707,781,1366,768,8-21-2022,10-52-51,160,depth_duration_stimuli/002750_2014-06-22_19-08-03_094959634447_rgbf000094-resize_4/002750_2014-06-22_19-08-03_094959634447_rgbf000094-resize_4-target.png,125,2.354,5,2265,122,feet,jsons/VE125_randls_16.json,746674,1156402,48,Woman
160,958879,DepthScenes,duration_manipulation_targetAtFixation,jsons/VE125_randls_16.json,http://54.235.29.9/FacialAge/BNav_EC2/DepthDuration/v2_depth_duration_MTurk/v2_DepthDuration_HTML.html#153,153,1707,781,1366,768,8-21-2022,10-52-51,161,depth_duration_stimuli/003621_2014-05-23_18-06-08_094959634447_rgbf000101-resize_1/003621_2014-05-23_18-06-08_094959634447_rgbf000101-resize_1-target.png,125,3.9835,5,2624,133,feet,jsons/VE125_randls_16.json,746674,1156402,48,Woman
161,958879,DepthScenes,duration_manipulation_targetAtFixation,jsons/VE125_randls_16.json,http://54.235.29.9/FacialAge/BNav_EC2/DepthDuration/v2_depth_duration_MTurk/v2_DepthDuration_HTML.html#153,153,1707,781,1366,768,8-21-2022,10-52-51,162,depth_duration_stimuli/001584_2014-06-20_11-07-43_260595134347_rgbf000002-resize_1/001584_2014-06-20_11-07-43_260595134347_rgbf000002-resize_1-target.png,125,3.53,6,2336,122,feet,jsons/VE125_randls_16.json,746674,1156402,48,Woman
162,958879,DepthScenes,duration_manipulation_targetAtFixation,jsons/VE125_randls_16.json,http://54.235.29.9/FacialAge/BNav_EC2/DepthDuration/v2_depth_duration_MTurk/v2_DepthDuration_HTML.html#153,153,1707,781,1366,768,8-21-2022,10-52-51,163,depth_duration_stimuli/002725_2014-06-22_11-47-51_094959634447_rgbf000070-resize_1/002725_2014-06-22_11-47-51_094959634447_rgbf000070-resize_1-target.png,125,2.195,6,1883,130,feet,jsons/VE125_randls_16.json,746674,1156402,48,Woman
163,958879,DepthScenes,duration_manipulation_targetAtFixation,jsons/VE125_randls_16.json,http://54.235.29.9/FacialAge/BNav_EC2/DepthDuration/v2_depth_duration_MTurk/v2_DepthDuration_HTML.html#153,153,1707,781,1366,768,8-21-2022,10-52-51,164,depth_duration_stimuli/002344_2014-06-28_20-06-29_260595134347_rgbf000030-resize_1/002344_2014-06-28_20-06-29_260595134347_rgbf000030-resize_1-target.png,125,1.5795,2,2102,126,feet,jsons/VE125_randls_16.json,746674,1156402,48,Woman
