,subjID,experimentName,versionName,sequenceName,url,selected_row,windowWidth,windowHeight,screenWidth,screenHeight,startDate,startTime,trial,stimulus,duration,actual_depth,depth_estimate,trial_RT,log_sceneDuration,unitSelection,seq_filepath,experimentTime,totalTime,age,gender
0,960695,DepthScenes,duration_manipulation_targetAtFixation,jsons/v1_VE1000_randls_35.json,http://54.235.29.9/FacialAge/BNav_EC2/DepthDuration/v2_depth_duration_MTurk/v2_DepthDuration_HTML.html#406,406,1366,768,1366,768,8-29-2022,11-24-46,1,depth_duration_stimuli/003534_2014-05-22_15-06-10_094959634447_rgbf000102-resize_4/003534_2014-05-22_15-06-10_094959634447_rgbf000102-resize_4-target.png,1000,1.426,2,9195,1000,feet,jsons/v1_VE1000_randls_35.json,1230209,1451176,1992,Woman
1,960695,DepthScenes,duration_manipulation_targetAtFixation,jsons/v1_VE1000_randls_35.json,http://54.235.29.9/FacialAge/BNav_EC2/DepthDuration/v2_depth_duration_MTurk/v2_DepthDuration_HTML.html#406,406,1366,768,1366,768,8-29-2022,11-24-46,2,depth_duration_stimuli/002637_2014-06-24_14-51-13_094959634447_rgbf000066-resize_4/002637_2014-06-24_14-51-13_094959634447_rgbf000066-resize_4-target.png,1000,1.9955,6,4419,999,feet,jsons/v1_VE1000_randls_35.json,1230209,1451176,1992,Woman
2,960695,DepthScenes,duration_manipulation_targetAtFixation,jsons/v1_VE1000_randls_35.json,http://54.235.29.9/FacialAge/BNav_EC2/DepthDuration/v2_depth_duration_MTurk/v2_DepthDuration_HTML.html#406,406,1366,768,1366,768,8-29-2022,11-24-46,3,depth_duration_stimuli/002118_2014-06-25_20-32-08_260595134347_rgbf000078-resize_1/002118_2014-06-25_20-32-08_260595134347_rgbf000078-resize_1-target.png,1000,2.6460000000000004,6,7771,998,feet,jsons/v1_VE1000_randls_35.json,1230209,1451176,1992,Woman
3,960695,DepthScenes,duration_manipulation_targetAtFixation,jsons/v1_VE1000_randls_35.json,http://54.235.29.9/FacialAge/BNav_EC2/DepthDuration/v2_depth_duration_MTurk/v2_DepthDuration_HTML.html#406,406,1366,768,1366,768,8-29-2022,11-24-46,4,depth_duration_stimuli/001516_2014-06-20_16-25-09_260595134347_rgbf000076-resize_2/001516_2014-06-20_16-25-09_260595134347_rgbf000076-resize_2-target.png,1000,1.7445,8,4628,999,feet,jsons/v1_VE1000_randls_35.json,1230209,1451176,1992,Woman
4,960695,DepthScenes,duration_manipulation_targetAtFixation,jsons/v1_VE1000_randls_35.json,http://54.235.29.9/FacialAge/BNav_EC2/DepthDuration/v2_depth_duration_MTurk/v2_DepthDuration_HTML.html#406,406,1366,768,1366,768,8-29-2022,11-24-46,5,depth_duration_stimuli/000368_2014-06-09_15-53-01_260595134347_rgbf000155-resize_2/000368_2014-06-09_15-53-01_260595134347_rgbf000155-resize_2-target.png,1000,2.4859999999999998,6,7611,1001,feet,jsons/v1_VE1000_randls_35.json,1230209,1451176,1992,Woman
5,960695,DepthScenes,duration_manipulation_targetAtFixation,jsons/v1_VE1000_randls_35.json,http://54.235.29.9/FacialAge/BNav_EC2/DepthDuration/v2_depth_duration_MTurk/v2_DepthDuration_HTML.html#406,406,1366,768,1366,768,8-29-2022,11-24-46,6,depth_duration_stimuli/002678_2014-06-13_16-15-32_094959634447_rgbf000151-resize_6/002678_2014-06-13_16-15-32_094959634447_rgbf000151-resize_6-target.png,1000,2.1830000000000003,9,10608,1000,feet,jsons/v1_VE1000_randls_35.json,1230209,1451176,1992,Woman
6,960695,DepthScenes,duration_manipulation_targetAtFixation,jsons/v1_VE1000_randls_35.json,http://54.235.29.9/FacialAge/BNav_EC2/DepthDuration/v2_depth_duration_MTurk/v2_DepthDuration_HTML.html#406,406,1366,768,1366,768,8-29-2022,11-24-46,7,depth_duration_stimuli/001056_2014-06-08_18-46-44_260595134347_rgbf000068-resize_0/001056_2014-06-08_18-46-44_260595134347_rgbf000068-resize_0-target.png,1000,2.6625,6,6435,999,feet,jsons/v1_VE1000_randls_35.json,1230209,1451176,1992,Woman
7,960695,DepthScenes,duration_manipulation_targetAtFixation,jsons/v1_VE1000_randls_35.json,http://54.235.29.9/FacialAge/BNav_EC2/DepthDuration/v2_depth_duration_MTurk/v2_DepthDuration_HTML.html#406,406,1366,768,1366,768,8-29-2022,11-24-46,8,depth_duration_stimuli/002199_2014-06-28_18-33-56_260595134347_rgbf000074-resize_0/002199_2014-06-28_18-33-56_260595134347_rgbf000074-resize_0-target.png,1000,1.996,2,4154,1000,feet,jsons/v1_VE1000_randls_35.json,1230209,1451176,1992,Woman
8,960695,DepthScenes,duration_manipulation_targetAtFixation,jsons/v1_VE1000_randls_35.json,http://54.235.29.9/FacialAge/BNav_EC2/DepthDuration/v2_depth_duration_MTurk/v2_DepthDuration_HTML.html#406,406,1366,768,1366,768,8-29-2022,11-24-46,9,depth_duration_stimuli/002784_2014-06-22_19-26-30_094959634447_rgbf000083-resize_3/002784_2014-06-22_19-26-30_094959634447_rgbf000083-resize_3-target.png,1000,1.8046666666667,3,6187,1000,feet,jsons/v1_VE1000_randls_35.json,1230209,1451176,1992,Woman
9,960695,DepthScenes,duration_manipulation_targetAtFixation,jsons/v1_VE1000_randls_35.json,http://54.235.29.9/FacialAge/BNav_EC2/DepthDuration/v2_depth_duration_MTurk/v2_DepthDuration_HTML.html#406,406,1366,768,1366,768,8-29-2022,11-24-46,10,depth_duration_stimuli/001100_2014-06-15_17-46-26_260595134347_rgbf000225-resize_2/001100_2014-06-15_17-46-26_260595134347_rgbf000225-resize_2-target.png,1000,2.24,3,3809,1001,feet,jsons/v1_VE1000_randls_35.json,1230209,1451176,1992,Woman
10,960695,DepthScenes,duration_manipulation_targetAtFixation,jsons/v1_VE1000_randls_35.json,http://54.235.29.9/FacialAge/BNav_EC2/DepthDuration/v2_depth_duration_MTurk/v2_DepthDuration_HTML.html#406,406,1366,768,1366,768,8-29-2022,11-24-46,11,depth_duration_stimuli/001133_2014-06-17_14-49-16_260595134347_rgbf000100-resize_0/001133_2014-06-17_14-49-16_260595134347_rgbf000100-resize_0-target.png,1000,4.2115,9,5497,1002,feet,jsons/v1_VE1000_randls_35.json,1230209,1451176,1992,Woman
11,960695,DepthScenes,duration_manipulation_targetAtFixation,jsons/v1_VE1000_randls_35.json,http://54.235.29.9/FacialAge/BNav_EC2/DepthDuration/v2_depth_duration_MTurk/v2_DepthDuration_HTML.html#406,406,1366,768,1366,768,8-29-2022,11-24-46,12,depth_duration_stimuli/001132_2014-06-17_14-48-54_260595134347_rgbf000100-resize_2/001132_2014-06-17_14-48-54_260595134347_rgbf000100-resize_2-target.png,1000,3.753,9,3611,998,feet,jsons/v1_VE1000_randls_35.json,1230209,1451176,1992,Woman
12,960695,DepthScenes,duration_manipulation_targetAtFixation,jsons/v1_VE1000_randls_35.json,http://54.235.29.9/FacialAge/BNav_EC2/DepthDuration/v2_depth_duration_MTurk/v2_DepthDuration_HTML.html#406,406,1366,768,1366,768,8-29-2022,11-24-46,13,depth_duration_stimuli/000569_2014-06-09_22-51-47_260595134347_rgbf000141-resize_3/000569_2014-06-09_22-51-47_260595134347_rgbf000141-resize-original.jpg,1000,4.512,0,5971,999,feet,jsons/v1_VE1000_randls_35.json,1230209,1451176,1992,Woman
13,960695,DepthScenes,duration_manipulation_targetAtFixation,jsons/v1_VE1000_randls_35.json,http://54.235.29.9/FacialAge/BNav_EC2/DepthDuration/v2_depth_duration_MTurk/v2_DepthDuration_HTML.html#406,406,1366,768,1366,768,8-29-2022,11-24-46,14,depth_duration_stimuli/002039_2014-06-24_20-22-38_260595134347_rgbf000084-resize_1/002039_2014-06-24_20-22-38_260595134347_rgbf000084-resize_1-target.png,1000,4.408,9,8059,1000,feet,jsons/v1_VE1000_randls_35.json,1230209,1451176,1992,Woman
14,960695,DepthScenes,duration_manipulation_targetAtFixation,jsons/v1_VE1000_randls_35.json,http://54.235.29.9/FacialAge/BNav_EC2/DepthDuration/v2_depth_duration_MTurk/v2_DepthDuration_HTML.html#406,406,1366,768,1366,768,8-29-2022,11-24-46,15,depth_duration_stimuli/002103_2014-06-25_20-00-40_260595134347_rgbf000049-resize_0/002103_2014-06-25_20-00-40_260595134347_rgbf000049-resize_0-target.png,1000,4.105,9,3715,1001,feet,jsons/v1_VE1000_randls_35.json,1230209,1451176,1992,Woman
15,960695,DepthScenes,duration_manipulation_targetAtFixation,jsons/v1_VE1000_randls_35.json,http://54.235.29.9/FacialAge/BNav_EC2/DepthDuration/v2_depth_duration_MTurk/v2_DepthDuration_HTML.html#406,406,1366,768,1366,768,8-29-2022,11-24-46,16,depth_duration_stimuli/001016_2014-06-09_16-16-10_260595134347_rgbf000112-resize_5/001016_2014-06-09_16-16-10_260595134347_rgbf000112-resize_5-target.png,1000,1.6565,7,6253,996,feet,jsons/v1_VE1000_randls_35.json,1230209,1451176,1992,Woman
16,960695,DepthScenes,duration_manipulation_targetAtFixation,jsons/v1_VE1000_randls_35.json,http://54.235.29.9/FacialAge/BNav_EC2/DepthDuration/v2_depth_duration_MTurk/v2_DepthDuration_HTML.html#406,406,1366,768,1366,768,8-29-2022,11-24-46,17,depth_duration_stimuli/002340_2014-06-28_20-05-46_260595134347_rgbf000113-resize_0/002340_2014-06-28_20-05-46_260595134347_rgbf000113-resize_0-target.png,1000,2.4735,7,3462,999,feet,jsons/v1_VE1000_randls_35.json,1230209,1451176,1992,Woman
17,960695,DepthScenes,duration_manipulation_targetAtFixation,jsons/v1_VE1000_randls_35.json,http://54.235.29.9/FacialAge/BNav_EC2/DepthDuration/v2_depth_duration_MTurk/v2_DepthDuration_HTML.html#406,406,1366,768,1366,768,8-29-2022,11-24-46,18,depth_duration_stimuli/002043_2014-06-24_20-29-38_260595134347_rgbf000039-resize_4/002043_2014-06-24_20-29-38_260595134347_rgbf000039-resize_4-target.png,1000,2.8435,8,6252,1076,feet,jsons/v1_VE1000_randls_35.json,1230209,1451176,1992,Woman
18,960695,DepthScenes,duration_manipulation_targetAtFixation,jsons/v1_VE1000_randls_35.json,http://54.235.29.9/FacialAge/BNav_EC2/DepthDuration/v2_depth_duration_MTurk/v2_DepthDuration_HTML.html#406,406,1366,768,1366,768,8-29-2022,11-24-46,19,depth_duration_stimuli/003048_2014-06-15_13-49-43_094959634447_rgbf000150-resize_1/003048_2014-06-15_13-49-43_094959634447_rgbf000150-resize_1-target.png,1000,4.0035,9,3394,1000,feet,jsons/v1_VE1000_randls_35.json,1230209,1451176,1992,Woman
19,960695,DepthScenes,duration_manipulation_targetAtFixation,jsons/v1_VE1000_randls_35.json,http://54.235.29.9/FacialAge/BNav_EC2/DepthDuration/v2_depth_duration_MTurk/v2_DepthDuration_HTML.html#406,406,1366,768,1366,768,8-29-2022,11-24-46,20,depth_duration_stimuli/001029_2014-06-08_13-17-57_260595134347_rgbf000065-resize_1/001029_2014-06-08_13-17-57_260595134347_rgbf000065-resize_1-target.png,1000,3.0835,9,7053,1001,feet,jsons/v1_VE1000_randls_35.json,1230209,1451176,1992,Woman
20,960695,DepthScenes,duration_manipulation_targetAtFixation,jsons/v1_VE1000_randls_35.json,http://54.235.29.9/FacialAge/BNav_EC2/DepthDuration/v2_depth_duration_MTurk/v2_DepthDuration_HTML.html#406,406,1366,768,1366,768,8-29-2022,11-24-46,21,depth_duration_stimuli/000677_2014-06-08_23-10-32_260595134347_rgbf000158-resize_6/000677_2014-06-08_23-10-32_260595134347_rgbf000158-resize_6-target.png,1000,3.556,6,4516,1000,feet,jsons/v1_VE1000_randls_35.json,1230209,1451176,1992,Woman
21,960695,DepthScenes,duration_manipulation_targetAtFixation,jsons/v1_VE1000_randls_35.json,http://54.235.29.9/FacialAge/BNav_EC2/DepthDuration/v2_depth_duration_MTurk/v2_DepthDuration_HTML.html#406,406,1366,768,1366,768,8-29-2022,11-24-46,22,depth_duration_stimuli/002989_2014-06-15_12-25-03_094959634447_rgbf000150-resize_3/002989_2014-06-15_12-25-03_094959634447_rgbf000150-resize_3-target.png,1000,4.1975,6,6707,1000,feet,jsons/v1_VE1000_randls_35.json,1230209,1451176,1992,Woman
22,960695,DepthScenes,duration_manipulation_targetAtFixation,jsons/v1_VE1000_randls_35.json,http://54.235.29.9/FacialAge/BNav_EC2/DepthDuration/v2_depth_duration_MTurk/v2_DepthDuration_HTML.html#406,406,1366,768,1366,768,8-29-2022,11-24-46,23,depth_duration_stimuli/000866_2014-06-09_20-45-42_260595134347_rgbf000139-resize_1/000866_2014-06-09_20-45-42_260595134347_rgbf000139-resize_1-target.png,1000,3.2155,6,5000,1000,feet,jsons/v1_VE1000_randls_35.json,1230209,1451176,1992,Woman
23,960695,DepthScenes,duration_manipulation_targetAtFixation,jsons/v1_VE1000_randls_35.json,http://54.235.29.9/FacialAge/BNav_EC2/DepthDuration/v2_depth_duration_MTurk/v2_DepthDuration_HTML.html#406,406,1366,768,1366,768,8-29-2022,11-24-46,24,depth_duration_stimuli/000414_2014-06-04_19-49-13_260595134347_rgbf000044-resize_0/000414_2014-06-04_19-49-13_260595134347_rgbf000044-resize_0-target.png,1000,4.329,9,6763,1001,feet,jsons/v1_VE1000_randls_35.json,1230209,1451176,1992,Woman
24,960695,DepthScenes,duration_manipulation_targetAtFixation,jsons/v1_VE1000_randls_35.json,http://54.235.29.9/FacialAge/BNav_EC2/DepthDuration/v2_depth_duration_MTurk/v2_DepthDuration_HTML.html#406,406,1366,768,1366,768,8-29-2022,11-24-46,25,depth_duration_stimuli/003129_2014-05-12_10-48-10_094959634447_rgbf000100-resize_0/003129_2014-05-12_10-48-10_094959634447_rgbf000100-resize_0-target.png,1000,4.9305,9,3156,999,feet,jsons/v1_VE1000_randls_35.json,1230209,1451176,1992,Woman
25,960695,DepthScenes,duration_manipulation_targetAtFixation,jsons/v1_VE1000_randls_35.json,http://54.235.29.9/FacialAge/BNav_EC2/DepthDuration/v2_depth_duration_MTurk/v2_DepthDuration_HTML.html#406,406,1366,768,1366,768,8-29-2022,11-24-46,26,depth_duration_stimuli/000009_2014-05-26_14-32-05_260595134347_rgbf000034-resize_3/000009_2014-05-26_14-32-05_260595134347_rgbf000034-resize_3-target.png,1000,3.8715,9,5146,1001,feet,jsons/v1_VE1000_randls_35.json,1230209,1451176,1992,Woman
26,960695,DepthScenes,duration_manipulation_targetAtFixation,jsons/v1_VE1000_randls_35.json,http://54.235.29.9/FacialAge/BNav_EC2/DepthDuration/v2_depth_duration_MTurk/v2_DepthDuration_HTML.html#406,406,1366,768,1366,768,8-29-2022,11-24-46,27,depth_duration_stimuli/001828_2014-06-26_21-40-03_260595134347_rgbf000024-resize_0/001828_2014-06-26_21-40-03_260595134347_rgbf000024-resize_0-target.png,1000,4.8260000000000005,9,3305,965,feet,jsons/v1_VE1000_randls_35.json,1230209,1451176,1992,Woman
27,960695,DepthScenes,duration_manipulation_targetAtFixation,jsons/v1_VE1000_randls_35.json,http://54.235.29.9/FacialAge/BNav_EC2/DepthDuration/v2_depth_duration_MTurk/v2_DepthDuration_HTML.html#406,406,1366,768,1366,768,8-29-2022,11-24-46,28,depth_duration_stimuli/002570_2014-06-24_13-59-54_094959634447_rgbf000059-resize_0/002570_2014-06-24_13-59-54_094959634447_rgbf000059-resize_0-target.png,1000,4.037,7,5314,1001,feet,jsons/v1_VE1000_randls_35.json,1230209,1451176,1992,Woman
28,960695,DepthScenes,duration_manipulation_targetAtFixation,jsons/v1_VE1000_randls_35.json,http://54.235.29.9/FacialAge/BNav_EC2/DepthDuration/v2_depth_duration_MTurk/v2_DepthDuration_HTML.html#406,406,1366,768,1366,768,8-29-2022,11-24-46,29,depth_duration_stimuli/002467_2014-06-28_20-38-07_260595134347_rgbf000026-resize_2/002467_2014-06-28_20-38-07_260595134347_rgbf000026-resize_2-target.png,1000,4.742,9,3682,999,feet,jsons/v1_VE1000_randls_35.json,1230209,1451176,1992,Woman
29,960695,DepthScenes,duration_manipulation_targetAtFixation,jsons/v1_VE1000_randls_35.json,http://54.235.29.9/FacialAge/BNav_EC2/DepthDuration/v2_depth_duration_MTurk/v2_DepthDuration_HTML.html#406,406,1366,768,1366,768,8-29-2022,11-24-46,30,depth_duration_stimuli/000375_2014-06-08_11-17-29_260595134347_rgbf000133-resize_2/000375_2014-06-08_11-17-29_260595134347_rgbf000133-resize-original.jpg,1000,4.718,0,5203,1001,feet,jsons/v1_VE1000_randls_35.json,1230209,1451176,1992,Woman
30,960695,DepthScenes,duration_manipulation_targetAtFixation,jsons/v1_VE1000_randls_35.json,http://54.235.29.9/FacialAge/BNav_EC2/DepthDuration/v2_depth_duration_MTurk/v2_DepthDuration_HTML.html#406,406,1366,768,1366,768,8-29-2022,11-24-46,31,depth_duration_stimuli/002663_2014-06-13_15-50-26_094959634447_rgbf000075-resize_1/002663_2014-06-13_15-50-26_094959634447_rgbf000075-resize_1-target.png,1000,4.7495,9,5845,1000,feet,jsons/v1_VE1000_randls_35.json,1230209,1451176,1992,Woman
31,960695,DepthScenes,duration_manipulation_targetAtFixation,jsons/v1_VE1000_randls_35.json,http://54.235.29.9/FacialAge/BNav_EC2/DepthDuration/v2_depth_duration_MTurk/v2_DepthDuration_HTML.html#406,406,1366,768,1366,768,8-29-2022,11-24-46,32,depth_duration_stimuli/000409_2014-06-04_19-23-33_260595134347_rgbf000067-resize_0/000409_2014-06-04_19-23-33_260595134347_rgbf000067-resize_0-target.png,1000,3.7335,9,6371,1000,feet,jsons/v1_VE1000_randls_35.json,1230209,1451176,1992,Woman
32,960695,DepthScenes,duration_manipulation_targetAtFixation,jsons/v1_VE1000_randls_35.json,http://54.235.29.9/FacialAge/BNav_EC2/DepthDuration/v2_depth_duration_MTurk/v2_DepthDuration_HTML.html#406,406,1366,768,1366,768,8-29-2022,11-24-46,33,depth_duration_stimuli/001150_2014-06-17_15-27-34_260595134347_rgbf000108-resize_2/001150_2014-06-17_15-27-34_260595134347_rgbf000108-resize_2-target.png,1000,4.0325,5,27444,999,feet,jsons/v1_VE1000_randls_35.json,1230209,1451176,1992,Woman
33,960695,DepthScenes,duration_manipulation_targetAtFixation,jsons/v1_VE1000_randls_35.json,http://54.235.29.9/FacialAge/BNav_EC2/DepthDuration/v2_depth_duration_MTurk/v2_DepthDuration_HTML.html#406,406,1366,625,1366,768,8-29-2022,11-24-46,34,depth_duration_stimuli/000665_2014-06-09_20-42-35_260595134347_rgbf000110-resize_1/000665_2014-06-09_20-42-35_260595134347_rgbf000110-resize_1-target.png,1000,3.057,5,69743,1001,feet,jsons/v1_VE1000_randls_35.json,1230209,1451176,1992,Woman
34,960695,DepthScenes,duration_manipulation_targetAtFixation,jsons/v1_VE1000_randls_35.json,http://54.235.29.9/FacialAge/BNav_EC2/DepthDuration/v2_depth_duration_MTurk/v2_DepthDuration_HTML.html#406,406,1366,625,1366,768,8-29-2022,11-24-46,35,depth_duration_stimuli/003292_2014-05-14_21-53-49_094959634447_rgbf000100-resize_2/003292_2014-05-14_21-53-49_094959634447_rgbf000100-resize_2-target.png,1000,3.4815,6,4998,447,feet,jsons/v1_VE1000_randls_35.json,1230209,1451176,1992,Woman
35,960695,DepthScenes,duration_manipulation_targetAtFixation,jsons/v1_VE1000_randls_35.json,http://54.235.29.9/FacialAge/BNav_EC2/DepthDuration/v2_depth_duration_MTurk/v2_DepthDuration_HTML.html#406,406,1366,625,1366,768,8-29-2022,11-24-46,36,depth_duration_stimuli/002639_2014-06-24_14-51-37_094959634447_rgbf000074-resize_4/002639_2014-06-24_14-51-37_094959634447_rgbf000074-resize_4-target.png,1000,4.0375,6,3803,1000,feet,jsons/v1_VE1000_randls_35.json,1230209,1451176,1992,Woman
36,960695,DepthScenes,duration_manipulation_targetAtFixation,jsons/v1_VE1000_randls_35.json,http://54.235.29.9/FacialAge/BNav_EC2/DepthDuration/v2_depth_duration_MTurk/v2_DepthDuration_HTML.html#406,406,1366,625,1366,768,8-29-2022,11-24-46,37,depth_duration_stimuli/003621_2014-05-23_18-06-08_094959634447_rgbf000101-resize_1/003621_2014-05-23_18-06-08_094959634447_rgbf000101-resize_1-target.png,1000,3.9835,8,4713,999,feet,jsons/v1_VE1000_randls_35.json,1230209,1451176,1992,Woman
37,960695,DepthScenes,duration_manipulation_targetAtFixation,jsons/v1_VE1000_randls_35.json,http://54.235.29.9/FacialAge/BNav_EC2/DepthDuration/v2_depth_duration_MTurk/v2_DepthDuration_HTML.html#406,406,1366,625,1366,768,8-29-2022,11-24-46,38,depth_duration_stimuli/001584_2014-06-20_11-07-43_260595134347_rgbf000002-resize_1/001584_2014-06-20_11-07-43_260595134347_rgbf000002-resize_1-target.png,1000,3.53,7,3138,1000,feet,jsons/v1_VE1000_randls_35.json,1230209,1451176,1992,Woman
38,960695,DepthScenes,duration_manipulation_targetAtFixation,jsons/v1_VE1000_randls_35.json,http://54.235.29.9/FacialAge/BNav_EC2/DepthDuration/v2_depth_duration_MTurk/v2_DepthDuration_HTML.html#406,406,1366,625,1366,768,8-29-2022,11-24-46,39,depth_duration_stimuli/001570_2014-06-20_17-21-09_260595134347_rgbf000135-resize_4/001570_2014-06-20_17-21-09_260595134347_rgbf000135-resize_4-target.png,1000,4.467,5,61556,1000,feet,jsons/v1_VE1000_randls_35.json,1230209,1451176,1992,Woman
39,960695,DepthScenes,duration_manipulation_targetAtFixation,jsons/v1_VE1000_randls_35.json,http://54.235.29.9/FacialAge/BNav_EC2/DepthDuration/v2_depth_duration_MTurk/v2_DepthDuration_HTML.html#406,406,1366,625,1366,768,8-29-2022,11-24-46,40,depth_duration_stimuli/001392_2014-06-19_16-07-59_260595134347_rgbf000046-resize_1/001392_2014-06-19_16-07-59_260595134347_rgbf000046-resize_1-target.png,1000,4.135,9,15094,1000,feet,jsons/v1_VE1000_randls_35.json,1230209,1451176,1992,Woman
40,960695,DepthScenes,duration_manipulation_targetAtFixation,jsons/v1_VE1000_randls_35.json,http://54.235.29.9/FacialAge/BNav_EC2/DepthDuration/v2_depth_duration_MTurk/v2_DepthDuration_HTML.html#406,406,1366,625,1366,768,8-29-2022,11-24-46,41,depth_duration_stimuli/000929_2014-06-09_16-33-19_260595134347_rgbf000139-resize_0/000929_2014-06-09_16-33-19_260595134347_rgbf000139-resize_0-target.png,1000,2.8680000000000003,2,15402,1000,feet,jsons/v1_VE1000_randls_35.json,1230209,1451176,1992,Woman
41,960695,DepthScenes,duration_manipulation_targetAtFixation,jsons/v1_VE1000_randls_35.json,http://54.235.29.9/FacialAge/BNav_EC2/DepthDuration/v2_depth_duration_MTurk/v2_DepthDuration_HTML.html#406,406,1366,625,1366,768,8-29-2022,11-24-46,42,depth_duration_stimuli/000457_2014-06-08_16-52-43_260595134347_rgbf000199-resize_1/000457_2014-06-08_16-52-43_260595134347_rgbf000199-resize_1-target.png,1000,3.6489999999999996,8,3619,999,feet,jsons/v1_VE1000_randls_35.json,1230209,1451176,1992,Woman
42,960695,DepthScenes,duration_manipulation_targetAtFixation,jsons/v1_VE1000_randls_35.json,http://54.235.29.9/FacialAge/BNav_EC2/DepthDuration/v2_depth_duration_MTurk/v2_DepthDuration_HTML.html#406,406,1366,625,1366,768,8-29-2022,11-24-46,43,depth_duration_stimuli/001199_2014-06-17_16-03-48_260595134347_rgbf000077-resize_0/001199_2014-06-17_16-03-48_260595134347_rgbf000077-resize_0-target.png,1000,3.4375,8,5352,1001,feet,jsons/v1_VE1000_randls_35.json,1230209,1451176,1992,Woman
43,960695,DepthScenes,duration_manipulation_targetAtFixation,jsons/v1_VE1000_randls_35.json,http://54.235.29.9/FacialAge/BNav_EC2/DepthDuration/v2_depth_duration_MTurk/v2_DepthDuration_HTML.html#406,406,1366,625,1366,768,8-29-2022,11-24-46,44,depth_duration_stimuli/000502_2014-06-08_23-02-32_260595134347_rgbf000063-resize_4/000502_2014-06-08_23-02-32_260595134347_rgbf000063-resize_4-target.png,1000,2.431,6,4459,992,feet,jsons/v1_VE1000_randls_35.json,1230209,1451176,1992,Woman
44,960695,DepthScenes,duration_manipulation_targetAtFixation,jsons/v1_VE1000_randls_35.json,http://54.235.29.9/FacialAge/BNav_EC2/DepthDuration/v2_depth_duration_MTurk/v2_DepthDuration_HTML.html#406,406,1366,625,1366,768,8-29-2022,11-24-46,45,depth_duration_stimuli/000787_2014-06-08_22-33-53_260595134347_rgbf000175-resize_1/000787_2014-06-08_22-33-53_260595134347_rgbf000175-resize-original.jpg,1000,4.784,0,5252,1000,feet,jsons/v1_VE1000_randls_35.json,1230209,1451176,1992,Woman
45,960695,DepthScenes,duration_manipulation_targetAtFixation,jsons/v1_VE1000_randls_35.json,http://54.235.29.9/FacialAge/BNav_EC2/DepthDuration/v2_depth_duration_MTurk/v2_DepthDuration_HTML.html#406,406,1366,625,1366,768,8-29-2022,11-24-46,46,depth_duration_stimuli/000522_2014-06-08_13-35-06_260595134347_rgbf000244-resize_1/000522_2014-06-08_13-35-06_260595134347_rgbf000244-resize_1-target.png,1000,2.3715,2,5324,1000,feet,jsons/v1_VE1000_randls_35.json,1230209,1451176,1992,Woman
46,960695,DepthScenes,duration_manipulation_targetAtFixation,jsons/v1_VE1000_randls_35.json,http://54.235.29.9/FacialAge/BNav_EC2/DepthDuration/v2_depth_duration_MTurk/v2_DepthDuration_HTML.html#406,406,1366,625,1366,768,8-29-2022,11-24-46,47,depth_duration_stimuli/002949_2014-06-26_15-57-42_094959634447_rgbf000079-resize_1/002949_2014-06-26_15-57-42_094959634447_rgbf000079-resize_1-target.png,1000,1.8915,3,3701,1001,feet,jsons/v1_VE1000_randls_35.json,1230209,1451176,1992,Woman
47,960695,DepthScenes,duration_manipulation_targetAtFixation,jsons/v1_VE1000_randls_35.json,http://54.235.29.9/FacialAge/BNav_EC2/DepthDuration/v2_depth_duration_MTurk/v2_DepthDuration_HTML.html#406,406,1366,625,1366,768,8-29-2022,11-24-46,48,depth_duration_stimuli/001011_2014-06-08_23-18-54_260595134347_rgbf000044-resize_4/001011_2014-06-08_23-18-54_260595134347_rgbf000044-resize_4-target.png,1000,2.4730000000000003,7,5385,1000,feet,jsons/v1_VE1000_randls_35.json,1230209,1451176,1992,Woman
48,960695,DepthScenes,duration_manipulation_targetAtFixation,jsons/v1_VE1000_randls_35.json,http://54.235.29.9/FacialAge/BNav_EC2/DepthDuration/v2_depth_duration_MTurk/v2_DepthDuration_HTML.html#406,406,1366,625,1366,768,8-29-2022,11-24-46,49,depth_duration_stimuli/002875_2014-06-01_15-19-00_094959634447_rgbf000151-resize_1/002875_2014-06-01_15-19-00_094959634447_rgbf000151-resize_1-target.png,1000,1.9675,4,3899,1000,feet,jsons/v1_VE1000_randls_35.json,1230209,1451176,1992,Woman
49,960695,DepthScenes,duration_manipulation_targetAtFixation,jsons/v1_VE1000_randls_35.json,http://54.235.29.9/FacialAge/BNav_EC2/DepthDuration/v2_depth_duration_MTurk/v2_DepthDuration_HTML.html#406,406,1366,625,1366,768,8-29-2022,11-24-46,50,depth_duration_stimuli/001808_2014-06-26_20-50-58_260595134347_rgbf000029-resize_1/001808_2014-06-26_20-50-58_260595134347_rgbf000029-resize_1-target.png,1000,4.249,9,5266,1000,feet,jsons/v1_VE1000_randls_35.json,1230209,1451176,1992,Woman
50,960695,DepthScenes,duration_manipulation_targetAtFixation,jsons/v1_VE1000_randls_35.json,http://54.235.29.9/FacialAge/BNav_EC2/DepthDuration/v2_depth_duration_MTurk/v2_DepthDuration_HTML.html#406,406,1366,625,1366,768,8-29-2022,11-24-46,51,depth_duration_stimuli/001815_2014-06-26_20-52-55_260595134347_rgbf000020-resize_0/001815_2014-06-26_20-52-55_260595134347_rgbf000020-resize_0-target.png,1000,3.3865,9,3906,999,feet,jsons/v1_VE1000_randls_35.json,1230209,1451176,1992,Woman
51,960695,DepthScenes,duration_manipulation_targetAtFixation,jsons/v1_VE1000_randls_35.json,http://54.235.29.9/FacialAge/BNav_EC2/DepthDuration/v2_depth_duration_MTurk/v2_DepthDuration_HTML.html#406,406,1366,625,1366,768,8-29-2022,11-24-46,52,depth_duration_stimuli/001244_2014-06-17_16-47-45_260595134347_rgbf000030-resize_4/001244_2014-06-17_16-47-45_260595134347_rgbf000030-resize_4-target.png,1000,2.0425,4,4915,1000,feet,jsons/v1_VE1000_randls_35.json,1230209,1451176,1992,Woman
52,960695,DepthScenes,duration_manipulation_targetAtFixation,jsons/v1_VE1000_randls_35.json,http://54.235.29.9/FacialAge/BNav_EC2/DepthDuration/v2_depth_duration_MTurk/v2_DepthDuration_HTML.html#406,406,1366,625,1366,768,8-29-2022,11-24-46,53,depth_duration_stimuli/003495_2014-05-21_16-01-51_094959634447_rgbf000100-resize_3/003495_2014-05-21_16-01-51_094959634447_rgbf000100-resize_3-target.png,1000,1.6255,3,4163,1000,feet,jsons/v1_VE1000_randls_35.json,1230209,1451176,1992,Woman
53,960695,DepthScenes,duration_manipulation_targetAtFixation,jsons/v1_VE1000_randls_35.json,http://54.235.29.9/FacialAge/BNav_EC2/DepthDuration/v2_depth_duration_MTurk/v2_DepthDuration_HTML.html#406,406,1366,625,1366,768,8-29-2022,11-24-46,54,depth_duration_stimuli/000470_2014-06-09_19-42-40_260595134347_rgbf000094-resize_1/000470_2014-06-09_19-42-40_260595134347_rgbf000094-resize_1-target.png,1000,1.831,3,5138,999,feet,jsons/v1_VE1000_randls_35.json,1230209,1451176,1992,Woman
54,960695,DepthScenes,duration_manipulation_targetAtFixation,jsons/v1_VE1000_randls_35.json,http://54.235.29.9/FacialAge/BNav_EC2/DepthDuration/v2_depth_duration_MTurk/v2_DepthDuration_HTML.html#406,406,1366,625,1366,768,8-29-2022,11-24-46,55,depth_duration_stimuli/000109_2014-05-14_23-41-52_260595134347_rgbf000035-resize_9/000109_2014-05-14_23-41-52_260595134347_rgbf000035-resize_9-target.png,1000,1.3545,3,4141,1000,feet,jsons/v1_VE1000_randls_35.json,1230209,1451176,1992,Woman
55,960695,DepthScenes,duration_manipulation_targetAtFixation,jsons/v1_VE1000_randls_35.json,http://54.235.29.9/FacialAge/BNav_EC2/DepthDuration/v2_depth_duration_MTurk/v2_DepthDuration_HTML.html#406,406,1366,625,1366,768,8-29-2022,11-24-46,56,depth_duration_stimuli/002763_2014-06-22_19-13-10_094959634447_rgbf000075-resize_4/002763_2014-06-22_19-13-10_094959634447_rgbf000075-resize_4-target.png,1000,1.68375,4,4802,1000,feet,jsons/v1_VE1000_randls_35.json,1230209,1451176,1992,Woman
56,960695,DepthScenes,duration_manipulation_targetAtFixation,jsons/v1_VE1000_randls_35.json,http://54.235.29.9/FacialAge/BNav_EC2/DepthDuration/v2_depth_duration_MTurk/v2_DepthDuration_HTML.html#406,406,1366,625,1366,768,8-29-2022,11-24-46,57,depth_duration_stimuli/002209_2014-06-28_18-36-10_260595134347_rgbf000051-resize_1/002209_2014-06-28_18-36-10_260595134347_rgbf000051-resize_1-target.png,1000,2.057,3,5967,1000,feet,jsons/v1_VE1000_randls_35.json,1230209,1451176,1992,Woman
57,960695,DepthScenes,duration_manipulation_targetAtFixation,jsons/v1_VE1000_randls_35.json,http://54.235.29.9/FacialAge/BNav_EC2/DepthDuration/v2_depth_duration_MTurk/v2_DepthDuration_HTML.html#406,406,1366,625,1366,768,8-29-2022,11-24-46,58,depth_duration_stimuli/001555_2014-06-20_17-12-10_260595134347_rgbf000065-resize_4/001555_2014-06-20_17-12-10_260595134347_rgbf000065-resize_4-target.png,1000,1.633,2,4742,1001,feet,jsons/v1_VE1000_randls_35.json,1230209,1451176,1992,Woman
58,960695,DepthScenes,duration_manipulation_targetAtFixation,jsons/v1_VE1000_randls_35.json,http://54.235.29.9/FacialAge/BNav_EC2/DepthDuration/v2_depth_duration_MTurk/v2_DepthDuration_HTML.html#406,406,1366,625,1366,768,8-29-2022,11-24-46,59,depth_duration_stimuli/000103_2014-05-14_22-01-17_260595134347_rgbf000152-resize_5/000103_2014-05-14_22-01-17_260595134347_rgbf000152-resize_5-target.png,1000,1.993,8,4172,1001,feet,jsons/v1_VE1000_randls_35.json,1230209,1451176,1992,Woman
59,960695,DepthScenes,duration_manipulation_targetAtFixation,jsons/v1_VE1000_randls_35.json,http://54.235.29.9/FacialAge/BNav_EC2/DepthDuration/v2_depth_duration_MTurk/v2_DepthDuration_HTML.html#406,406,1366,625,1366,768,8-29-2022,11-24-46,60,depth_duration_stimuli/001164_2014-06-17_15-35-46_260595134347_rgbf000085-resize_3/001164_2014-06-17_15-35-46_260595134347_rgbf000085-resize_3-target.png,1000,2.354,7,5100,1001,feet,jsons/v1_VE1000_randls_35.json,1230209,1451176,1992,Woman
60,960695,DepthScenes,duration_manipulation_targetAtFixation,jsons/v1_VE1000_randls_35.json,http://54.235.29.9/FacialAge/BNav_EC2/DepthDuration/v2_depth_duration_MTurk/v2_DepthDuration_HTML.html#406,406,1366,625,1366,768,8-29-2022,11-24-46,61,depth_duration_stimuli/001136_2014-06-17_15-19-41_260595134347_rgbf000076-resize_3/001136_2014-06-17_15-19-41_260595134347_rgbf000076-resize_3-target.png,1000,1.8655,7,4387,999,feet,jsons/v1_VE1000_randls_35.json,1230209,1451176,1992,Woman
61,960695,DepthScenes,duration_manipulation_targetAtFixation,jsons/v1_VE1000_randls_35.json,http://54.235.29.9/FacialAge/BNav_EC2/DepthDuration/v2_depth_duration_MTurk/v2_DepthDuration_HTML.html#406,406,1366,625,1366,768,8-29-2022,11-24-46,62,depth_duration_stimuli/002509_2014-06-24_13-19-22_094959634447_rgbf000077-resize_0/002509_2014-06-24_13-19-22_094959634447_rgbf000077-resize_0-target.png,1000,1.3065,4,4611,1000,feet,jsons/v1_VE1000_randls_35.json,1230209,1451176,1992,Woman
62,960695,DepthScenes,duration_manipulation_targetAtFixation,jsons/v1_VE1000_randls_35.json,http://54.235.29.9/FacialAge/BNav_EC2/DepthDuration/v2_depth_duration_MTurk/v2_DepthDuration_HTML.html#406,406,1366,625,1366,768,8-29-2022,11-24-46,63,depth_duration_stimuli/003338_2014-05-20_11-01-23_094959634447_rgbf000051-resize_6/003338_2014-05-20_11-01-23_094959634447_rgbf000051-resize_6-target.png,1000,1.693,4,5010,999,feet,jsons/v1_VE1000_randls_35.json,1230209,1451176,1992,Woman
63,960695,DepthScenes,duration_manipulation_targetAtFixation,jsons/v1_VE1000_randls_35.json,http://54.235.29.9/FacialAge/BNav_EC2/DepthDuration/v2_depth_duration_MTurk/v2_DepthDuration_HTML.html#406,406,1366,625,1366,768,8-29-2022,11-24-46,64,depth_duration_stimuli/001810_2014-06-26_20-51-35_260595134347_rgbf000040-resize_3/001810_2014-06-26_20-51-35_260595134347_rgbf000040-resize_3-target.png,1000,2.2525,4,4036,999,feet,jsons/v1_VE1000_randls_35.json,1230209,1451176,1992,Woman
64,960695,DepthScenes,duration_manipulation_targetAtFixation,jsons/v1_VE1000_randls_35.json,http://54.235.29.9/FacialAge/BNav_EC2/DepthDuration/v2_depth_duration_MTurk/v2_DepthDuration_HTML.html#406,406,1366,625,1366,768,8-29-2022,11-24-46,65,depth_duration_stimuli/003010_2014-06-15_12-54-35_094959634447_rgbf000112-resize_0/003010_2014-06-15_12-54-35_094959634447_rgbf000112-resize_0-target.png,1000,3.1185,9,3211,1053,feet,jsons/v1_VE1000_randls_35.json,1230209,1451176,1992,Woman
65,960695,DepthScenes,duration_manipulation_targetAtFixation,jsons/v1_VE1000_randls_35.json,http://54.235.29.9/FacialAge/BNav_EC2/DepthDuration/v2_depth_duration_MTurk/v2_DepthDuration_HTML.html#406,406,1366,625,1366,768,8-29-2022,11-24-46,66,depth_duration_stimuli/001222_2014-06-17_16-24-06_260595134347_rgbf000073-resize_0/001222_2014-06-17_16-24-06_260595134347_rgbf000073-resize-original.jpg,1000,1.4385,0,4667,1002,feet,jsons/v1_VE1000_randls_35.json,1230209,1451176,1992,Woman
66,960695,DepthScenes,duration_manipulation_targetAtFixation,jsons/v1_VE1000_randls_35.json,http://54.235.29.9/FacialAge/BNav_EC2/DepthDuration/v2_depth_duration_MTurk/v2_DepthDuration_HTML.html#406,406,1366,625,1366,768,8-29-2022,11-24-46,67,depth_duration_stimuli/001059_2014-06-08_21-53-27_260595134347_rgbf000061-resize_4/001059_2014-06-08_21-53-27_260595134347_rgbf000061-resize_4-target.png,1000,2.4185,8,3963,1000,feet,jsons/v1_VE1000_randls_35.json,1230209,1451176,1992,Woman
67,960695,DepthScenes,duration_manipulation_targetAtFixation,jsons/v1_VE1000_randls_35.json,http://54.235.29.9/FacialAge/BNav_EC2/DepthDuration/v2_depth_duration_MTurk/v2_DepthDuration_HTML.html#406,406,1366,625,1366,768,8-29-2022,11-24-46,68,depth_duration_stimuli/001032_2014-06-08_13-23-17_260595134347_rgbf000021-resize_3/001032_2014-06-08_13-23-17_260595134347_rgbf000021-resize_3-target.png,1000,3.2725,6,4084,1000,feet,jsons/v1_VE1000_randls_35.json,1230209,1451176,1992,Woman
68,960695,DepthScenes,duration_manipulation_targetAtFixation,jsons/v1_VE1000_randls_35.json,http://54.235.29.9/FacialAge/BNav_EC2/DepthDuration/v2_depth_duration_MTurk/v2_DepthDuration_HTML.html#406,406,1366,625,1366,768,8-29-2022,11-24-46,69,depth_duration_stimuli/002272_2014-06-28_18-53-56_260595134347_rgbf000067-resize_2/002272_2014-06-28_18-53-56_260595134347_rgbf000067-resize_2-target.png,1000,1.138,2,5419,1000,feet,jsons/v1_VE1000_randls_35.json,1230209,1451176,1992,Woman
69,960695,DepthScenes,duration_manipulation_targetAtFixation,jsons/v1_VE1000_randls_35.json,http://54.235.29.9/FacialAge/BNav_EC2/DepthDuration/v2_depth_duration_MTurk/v2_DepthDuration_HTML.html#406,406,1366,625,1366,768,8-29-2022,11-24-46,70,depth_duration_stimuli/001571_2014-06-20_17-21-32_260595134347_rgbf000089-resize_1/001571_2014-06-20_17-21-32_260595134347_rgbf000089-resize_1-target.png,1000,1.86,3,74073,1000,feet,jsons/v1_VE1000_randls_35.json,1230209,1451176,1992,Woman
70,960695,DepthScenes,duration_manipulation_targetAtFixation,jsons/v1_VE1000_randls_35.json,http://54.235.29.9/FacialAge/BNav_EC2/DepthDuration/v2_depth_duration_MTurk/v2_DepthDuration_HTML.html#406,406,1366,625,1366,768,8-29-2022,11-24-46,71,depth_duration_stimuli/000682_2014-06-08_23-14-58_260595134347_rgbf000041-resize_5/000682_2014-06-08_23-14-58_260595134347_rgbf000041-resize_5-target.png,1000,2.7239999999999998,5,4483,1001,feet,jsons/v1_VE1000_randls_35.json,1230209,1451176,1992,Woman
71,960695,DepthScenes,duration_manipulation_targetAtFixation,jsons/v1_VE1000_randls_35.json,http://54.235.29.9/FacialAge/BNav_EC2/DepthDuration/v2_depth_duration_MTurk/v2_DepthDuration_HTML.html#406,406,1366,625,1366,768,8-29-2022,11-24-46,72,depth_duration_stimuli/001650_2014-06-20_12-09-00_260595134347_rgbf000087-resize_3/001650_2014-06-20_12-09-00_260595134347_rgbf000087-resize_3-target.png,1000,1.9505,5,149339,1001,feet,jsons/v1_VE1000_randls_35.json,1230209,1451176,1992,Woman
72,960695,DepthScenes,duration_manipulation_targetAtFixation,jsons/v1_VE1000_randls_35.json,http://54.235.29.9/FacialAge/BNav_EC2/DepthDuration/v2_depth_duration_MTurk/v2_DepthDuration_HTML.html#406,406,1366,625,1366,768,8-29-2022,11-24-46,73,depth_duration_stimuli/002445_2014-06-28_20-32-16_260595134347_rgbf000029-resize_4/002445_2014-06-28_20-32-16_260595134347_rgbf000029-resize_4-target.png,1000,2.5315,4,5027,1000,feet,jsons/v1_VE1000_randls_35.json,1230209,1451176,1992,Woman
73,960695,DepthScenes,duration_manipulation_targetAtFixation,jsons/v1_VE1000_randls_35.json,http://54.235.29.9/FacialAge/BNav_EC2/DepthDuration/v2_depth_duration_MTurk/v2_DepthDuration_HTML.html#406,406,1366,625,1366,768,8-29-2022,11-24-46,74,depth_duration_stimuli/000780_2014-06-08_22-28-29_260595134347_rgbf000126-resize_1/000780_2014-06-08_22-28-29_260595134347_rgbf000126-resize_1-target.png,1000,3.3825,8,3594,1002,feet,jsons/v1_VE1000_randls_35.json,1230209,1451176,1992,Woman
74,960695,DepthScenes,duration_manipulation_targetAtFixation,jsons/v1_VE1000_randls_35.json,http://54.235.29.9/FacialAge/BNav_EC2/DepthDuration/v2_depth_duration_MTurk/v2_DepthDuration_HTML.html#406,406,1366,625,1366,768,8-29-2022,11-24-46,75,depth_duration_stimuli/002213_2014-06-28_18-37-58_260595134347_rgbf000055-resize_1/002213_2014-06-28_18-37-58_260595134347_rgbf000055-resize_1-target.png,1000,3.62,5,12619,1000,feet,jsons/v1_VE1000_randls_35.json,1230209,1451176,1992,Woman
75,960695,DepthScenes,duration_manipulation_targetAtFixation,jsons/v1_VE1000_randls_35.json,http://54.235.29.9/FacialAge/BNav_EC2/DepthDuration/v2_depth_duration_MTurk/v2_DepthDuration_HTML.html#406,406,1366,625,1366,768,8-29-2022,11-24-46,76,depth_duration_stimuli/000691_2014-06-08_13-08-50_260595134347_rgbf000132-resize_3/000691_2014-06-08_13-08-50_260595134347_rgbf000132-resize_3-target.png,1000,4.1530000000000005,3,5999,977,feet,jsons/v1_VE1000_randls_35.json,1230209,1451176,1992,Woman
76,960695,DepthScenes,duration_manipulation_targetAtFixation,jsons/v1_VE1000_randls_35.json,http://54.235.29.9/FacialAge/BNav_EC2/DepthDuration/v2_depth_duration_MTurk/v2_DepthDuration_HTML.html#406,406,1366,625,1366,768,8-29-2022,11-24-46,77,depth_duration_stimuli/002988_2014-06-15_12-24-20_094959634447_rgbf000150-resize_1/002988_2014-06-15_12-24-20_094959634447_rgbf000150-resize_1-target.png,1000,4.7669999999999995,6,14082,1000,feet,jsons/v1_VE1000_randls_35.json,1230209,1451176,1992,Woman
77,960695,DepthScenes,duration_manipulation_targetAtFixation,jsons/v1_VE1000_randls_35.json,http://54.235.29.9/FacialAge/BNav_EC2/DepthDuration/v2_depth_duration_MTurk/v2_DepthDuration_HTML.html#406,406,1366,625,1366,768,8-29-2022,11-24-46,78,depth_duration_stimuli/001052_2014-06-08_18-24-54_260595134347_rgbf000130-resize_1/001052_2014-06-08_18-24-54_260595134347_rgbf000130-resize_1-target.png,1000,4.1045,8,3827,1052,feet,jsons/v1_VE1000_randls_35.json,1230209,1451176,1992,Woman
78,960695,DepthScenes,duration_manipulation_targetAtFixation,jsons/v1_VE1000_randls_35.json,http://54.235.29.9/FacialAge/BNav_EC2/DepthDuration/v2_depth_duration_MTurk/v2_DepthDuration_HTML.html#406,406,1366,625,1366,768,8-29-2022,11-24-46,79,depth_duration_stimuli/002279_2014-06-28_18-55-32_260595134347_rgbf000040-resize_5/002279_2014-06-28_18-55-32_260595134347_rgbf000040-resize_5-target.png,1000,1.5043333333333,3,3571,1000,feet,jsons/v1_VE1000_randls_35.json,1230209,1451176,1992,Woman
79,960695,DepthScenes,duration_manipulation_targetAtFixation,jsons/v1_VE1000_randls_35.json,http://54.235.29.9/FacialAge/BNav_EC2/DepthDuration/v2_depth_duration_MTurk/v2_DepthDuration_HTML.html#406,406,1366,625,1366,768,8-29-2022,11-24-46,80,depth_duration_stimuli/000635_2014-06-08_16-38-42_260595134347_rgbf000106-resize_1/000635_2014-06-08_16-38-42_260595134347_rgbf000106-resize_1-target.png,1000,2.074,8,3290,1003,feet,jsons/v1_VE1000_randls_35.json,1230209,1451176,1992,Woman
80,960695,DepthScenes,duration_manipulation_targetAtFixation,jsons/v1_VE1000_randls_35.json,http://54.235.29.9/FacialAge/BNav_EC2/DepthDuration/v2_depth_duration_MTurk/v2_DepthDuration_HTML.html#406,406,1366,625,1366,768,8-29-2022,11-24-46,81,depth_duration_stimuli/000810_2014-06-08_17-20-01_260595134347_rgbf000105-resize_0/000810_2014-06-08_17-20-01_260595134347_rgbf000105-resize_0-target.png,1000,1.4865,7,4924,999,feet,jsons/v1_VE1000_randls_35.json,1230209,1451176,1992,Woman
81,960695,DepthScenes,duration_manipulation_targetAtFixation,jsons/v1_VE1000_randls_35.json,http://54.235.29.9/FacialAge/BNav_EC2/DepthDuration/v2_depth_duration_MTurk/v2_DepthDuration_HTML.html#406,406,1366,625,1366,768,8-29-2022,11-24-46,82,depth_duration_stimuli/001214_2014-06-17_16-13-55_260595134347_rgbf000111-resize_0/001214_2014-06-17_16-13-55_260595134347_rgbf000111-resize_0-target.png,1000,2.6505,5,5279,984,feet,jsons/v1_VE1000_randls_35.json,1230209,1451176,1992,Woman
82,960695,DepthScenes,duration_manipulation_targetAtFixation,jsons/v1_VE1000_randls_35.json,http://54.235.29.9/FacialAge/BNav_EC2/DepthDuration/v2_depth_duration_MTurk/v2_DepthDuration_HTML.html#406,406,1366,625,1366,768,8-29-2022,11-24-46,83,depth_duration_stimuli/000447_2014-06-08_16-15-46_260595134347_rgbf000130-resize_1/000447_2014-06-08_16-15-46_260595134347_rgbf000130-resize_1-target.png,1000,4.479,7,5316,1001,feet,jsons/v1_VE1000_randls_35.json,1230209,1451176,1992,Woman
83,960695,DepthScenes,duration_manipulation_targetAtFixation,jsons/v1_VE1000_randls_35.json,http://54.235.29.9/FacialAge/BNav_EC2/DepthDuration/v2_depth_duration_MTurk/v2_DepthDuration_HTML.html#406,406,1366,625,1366,768,8-29-2022,11-24-46,84,depth_duration_stimuli/001447_2014-06-19_17-00-32_260595134347_rgbf000082-resize_5/001447_2014-06-19_17-00-32_260595134347_rgbf000082-resize_5-target.png,1000,4.13775,6,5020,1001,feet,jsons/v1_VE1000_randls_35.json,1230209,1451176,1992,Woman
84,960695,DepthScenes,duration_manipulation_targetAtFixation,jsons/v1_VE1000_randls_35.json,http://54.235.29.9/FacialAge/BNav_EC2/DepthDuration/v2_depth_duration_MTurk/v2_DepthDuration_HTML.html#406,406,1366,625,1366,768,8-29-2022,11-24-46,85,depth_duration_stimuli/001110_2014-06-15_17-25-28_260595134347_rgbf000150-resize_1/001110_2014-06-15_17-25-28_260595134347_rgbf000150-resize_1-target.png,1000,1.7115,3,4204,1109,feet,jsons/v1_VE1000_randls_35.json,1230209,1451176,1992,Woman
85,960695,DepthScenes,duration_manipulation_targetAtFixation,jsons/v1_VE1000_randls_35.json,http://54.235.29.9/FacialAge/BNav_EC2/DepthDuration/v2_depth_duration_MTurk/v2_DepthDuration_HTML.html#406,406,1366,625,1366,768,8-29-2022,11-24-46,86,depth_duration_stimuli/000927_2014-06-09_16-32-30_260595134347_rgbf000123-resize_3/000927_2014-06-09_16-32-30_260595134347_rgbf000123-resize_3-target.png,1000,2.6785,8,3162,1000,feet,jsons/v1_VE1000_randls_35.json,1230209,1451176,1992,Woman
86,960695,DepthScenes,duration_manipulation_targetAtFixation,jsons/v1_VE1000_randls_35.json,http://54.235.29.9/FacialAge/BNav_EC2/DepthDuration/v2_depth_duration_MTurk/v2_DepthDuration_HTML.html#406,406,1366,625,1366,768,8-29-2022,11-24-46,87,depth_duration_stimuli/001066_2014-06-08_22-03-20_260595134347_rgbf000066-resize_4/001066_2014-06-08_22-03-20_260595134347_rgbf000066-resize_4-target.png,1000,4.2330000000000005,9,4098,1000,feet,jsons/v1_VE1000_randls_35.json,1230209,1451176,1992,Woman
87,960695,DepthScenes,duration_manipulation_targetAtFixation,jsons/v1_VE1000_randls_35.json,http://54.235.29.9/FacialAge/BNav_EC2/DepthDuration/v2_depth_duration_MTurk/v2_DepthDuration_HTML.html#406,406,1366,625,1366,768,8-29-2022,11-24-46,88,depth_duration_stimuli/000742_2014-06-08_18-48-09_260595134347_rgbf000164-resize_4/000742_2014-06-08_18-48-09_260595134347_rgbf000164-resize_4-target.png,1000,4.632,9,3714,999,feet,jsons/v1_VE1000_randls_35.json,1230209,1451176,1992,Woman
88,960695,DepthScenes,duration_manipulation_targetAtFixation,jsons/v1_VE1000_randls_35.json,http://54.235.29.9/FacialAge/BNav_EC2/DepthDuration/v2_depth_duration_MTurk/v2_DepthDuration_HTML.html#406,406,1366,625,1366,768,8-29-2022,11-24-46,89,depth_duration_stimuli/002600_2014-06-24_14-27-04_094959634447_rgbf000074-resize_2/002600_2014-06-24_14-27-04_094959634447_rgbf000074-resize_2-target.png,1000,2.7575,8,4768,970,feet,jsons/v1_VE1000_randls_35.json,1230209,1451176,1992,Woman
89,960695,DepthScenes,duration_manipulation_targetAtFixation,jsons/v1_VE1000_randls_35.json,http://54.235.29.9/FacialAge/BNav_EC2/DepthDuration/v2_depth_duration_MTurk/v2_DepthDuration_HTML.html#406,406,1366,625,1366,768,8-29-2022,11-24-46,90,depth_duration_stimuli/003228_2014-05-14_13-42-35_094959634447_rgbf000101-resize_1/003228_2014-05-14_13-42-35_094959634447_rgbf000101-resize_1-target.png,1000,1.9680000000000002,4,4622,999,feet,jsons/v1_VE1000_randls_35.json,1230209,1451176,1992,Woman
90,960695,DepthScenes,duration_manipulation_targetAtFixation,jsons/v1_VE1000_randls_35.json,http://54.235.29.9/FacialAge/BNav_EC2/DepthDuration/v2_depth_duration_MTurk/v2_DepthDuration_HTML.html#406,406,1366,625,1366,768,8-29-2022,11-24-46,91,depth_duration_stimuli/002375_2014-06-28_20-13-44_260595134347_rgbf000032-resize_1/002375_2014-06-28_20-13-44_260595134347_rgbf000032-resize_1-target.png,1000,4.0175,7,5111,999,feet,jsons/v1_VE1000_randls_35.json,1230209,1451176,1992,Woman
91,960695,DepthScenes,duration_manipulation_targetAtFixation,jsons/v1_VE1000_randls_35.json,http://54.235.29.9/FacialAge/BNav_EC2/DepthDuration/v2_depth_duration_MTurk/v2_DepthDuration_HTML.html#406,406,1366,625,1366,768,8-29-2022,11-24-46,92,depth_duration_stimuli/002657_2014-06-13_15-29-54_094959634447_rgbf000150-resize_1/002657_2014-06-13_15-29-54_094959634447_rgbf000150-resize_1-target.png,1000,4.919,8,3184,999,feet,jsons/v1_VE1000_randls_35.json,1230209,1451176,1992,Woman
92,960695,DepthScenes,duration_manipulation_targetAtFixation,jsons/v1_VE1000_randls_35.json,http://54.235.29.9/FacialAge/BNav_EC2/DepthDuration/v2_depth_duration_MTurk/v2_DepthDuration_HTML.html#406,406,1366,625,1366,768,8-29-2022,11-24-46,93,depth_duration_stimuli/002057_2014-06-24_21-00-13_260595134347_rgbf000120-resize_1/002057_2014-06-24_21-00-13_260595134347_rgbf000120-resize_1-target.png,1000,2.967,8,4125,1001,feet,jsons/v1_VE1000_randls_35.json,1230209,1451176,1992,Woman
93,960695,DepthScenes,duration_manipulation_targetAtFixation,jsons/v1_VE1000_randls_35.json,http://54.235.29.9/FacialAge/BNav_EC2/DepthDuration/v2_depth_duration_MTurk/v2_DepthDuration_HTML.html#406,406,1366,625,1366,768,8-29-2022,11-24-46,94,depth_duration_stimuli/000709_2014-06-08_13-51-55_260595134347_rgbf000068-resize_3/000709_2014-06-08_13-51-55_260595134347_rgbf000068-resize_3-target.png,1000,1.8030000000000002,6,3504,997,feet,jsons/v1_VE1000_randls_35.json,1230209,1451176,1992,Woman
94,960695,DepthScenes,duration_manipulation_targetAtFixation,jsons/v1_VE1000_randls_35.json,http://54.235.29.9/FacialAge/BNav_EC2/DepthDuration/v2_depth_duration_MTurk/v2_DepthDuration_HTML.html#406,406,1366,625,1366,768,8-29-2022,11-24-46,95,depth_duration_stimuli/003492_2014-05-21_15-50-55_094959634447_rgbf000828-resize_1/003492_2014-05-21_15-50-55_094959634447_rgbf000828-resize_1-target.png,1000,4.06875,7,6709,1001,feet,jsons/v1_VE1000_randls_35.json,1230209,1451176,1992,Woman
95,960695,DepthScenes,duration_manipulation_targetAtFixation,jsons/v1_VE1000_randls_35.json,http://54.235.29.9/FacialAge/BNav_EC2/DepthDuration/v2_depth_duration_MTurk/v2_DepthDuration_HTML.html#406,406,1366,625,1366,768,8-29-2022,11-24-46,96,depth_duration_stimuli/002568_2014-06-24_13-59-21_094959634447_rgbf000062-resize_4/002568_2014-06-24_13-59-21_094959634447_rgbf000062-resize_4-target.png,1000,3.015,7,3859,1002,feet,jsons/v1_VE1000_randls_35.json,1230209,1451176,1992,Woman
96,960695,DepthScenes,duration_manipulation_targetAtFixation,jsons/v1_VE1000_randls_35.json,http://54.235.29.9/FacialAge/BNav_EC2/DepthDuration/v2_depth_duration_MTurk/v2_DepthDuration_HTML.html#406,406,1366,625,1366,768,8-29-2022,11-24-46,97,depth_duration_stimuli/000506_2014-06-08_23-21-00_260595134347_rgbf000070-resize_7/000506_2014-06-08_23-21-00_260595134347_rgbf000070-resize_7-target.png,1000,4.0585,7,4487,999,feet,jsons/v1_VE1000_randls_35.json,1230209,1451176,1992,Woman
97,960695,DepthScenes,duration_manipulation_targetAtFixation,jsons/v1_VE1000_randls_35.json,http://54.235.29.9/FacialAge/BNav_EC2/DepthDuration/v2_depth_duration_MTurk/v2_DepthDuration_HTML.html#406,406,1366,625,1366,768,8-29-2022,11-24-46,98,depth_duration_stimuli/003079_2014-06-15_15-18-20_094959634447_rgbf000152-resize_8/003079_2014-06-15_15-18-20_094959634447_rgbf000152-resize_8-target.png,1000,2.8775,7,3883,998,feet,jsons/v1_VE1000_randls_35.json,1230209,1451176,1992,Woman
98,960695,DepthScenes,duration_manipulation_targetAtFixation,jsons/v1_VE1000_randls_35.json,http://54.235.29.9/FacialAge/BNav_EC2/DepthDuration/v2_depth_duration_MTurk/v2_DepthDuration_HTML.html#406,406,1366,625,1366,768,8-29-2022,11-24-46,99,depth_duration_stimuli/001540_2014-06-20_17-01-05_260595134347_rgbf000086-resize_2/001540_2014-06-20_17-01-05_260595134347_rgbf000086-resize-original.jpg,1000,1.459,0,4075,1000,feet,jsons/v1_VE1000_randls_35.json,1230209,1451176,1992,Woman
99,960695,DepthScenes,duration_manipulation_targetAtFixation,jsons/v1_VE1000_randls_35.json,http://54.235.29.9/FacialAge/BNav_EC2/DepthDuration/v2_depth_duration_MTurk/v2_DepthDuration_HTML.html#406,406,1366,625,1366,768,8-29-2022,11-24-46,100,depth_duration_stimuli/001092_2014-06-15_17-34-58_260595134347_rgbf000171-resize_3/001092_2014-06-15_17-34-58_260595134347_rgbf000171-resize_3-target.png,1000,2.6935,4,4676,1000,feet,jsons/v1_VE1000_randls_35.json,1230209,1451176,1992,Woman
100,960695,DepthScenes,duration_manipulation_targetAtFixation,jsons/v1_VE1000_randls_35.json,http://54.235.29.9/FacialAge/BNav_EC2/DepthDuration/v2_depth_duration_MTurk/v2_DepthDuration_HTML.html#406,406,1366,625,1366,768,8-29-2022,11-24-46,101,depth_duration_stimuli/002545_2014-06-24_13-38-53_094959634447_rgbf000080-resize_4/002545_2014-06-24_13-38-53_094959634447_rgbf000080-resize_4-target.png,1000,1.9205,5,4218,1024,feet,jsons/v1_VE1000_randls_35.json,1230209,1451176,1992,Woman
101,960695,DepthScenes,duration_manipulation_targetAtFixation,jsons/v1_VE1000_randls_35.json,http://54.235.29.9/FacialAge/BNav_EC2/DepthDuration/v2_depth_duration_MTurk/v2_DepthDuration_HTML.html#406,406,1366,625,1366,768,8-29-2022,11-24-46,102,depth_duration_stimuli/003070_2014-06-15_14-58-27_094959634447_rgbf000150-resize_3/003070_2014-06-15_14-58-27_094959634447_rgbf000150-resize_3-target.png,1000,2.9415,7,4379,945,feet,jsons/v1_VE1000_randls_35.json,1230209,1451176,1992,Woman
102,960695,DepthScenes,duration_manipulation_targetAtFixation,jsons/v1_VE1000_randls_35.json,http://54.235.29.9/FacialAge/BNav_EC2/DepthDuration/v2_depth_duration_MTurk/v2_DepthDuration_HTML.html#406,406,1366,625,1366,768,8-29-2022,11-24-46,103,depth_duration_stimuli/000943_2014-06-09_19-31-07_260595134347_rgbf000128-resize_1/000943_2014-06-09_19-31-07_260595134347_rgbf000128-resize_1-target.png,1000,1.9765,3,3972,999,feet,jsons/v1_VE1000_randls_35.json,1230209,1451176,1992,Woman
103,960695,DepthScenes,duration_manipulation_targetAtFixation,jsons/v1_VE1000_randls_35.json,http://54.235.29.9/FacialAge/BNav_EC2/DepthDuration/v2_depth_duration_MTurk/v2_DepthDuration_HTML.html#406,406,1366,625,1366,768,8-29-2022,11-24-46,104,depth_duration_stimuli/001167_2014-06-17_15-38-07_260595134347_rgbf000108-resize_0/001167_2014-06-17_15-38-07_260595134347_rgbf000108-resize_0-target.png,1000,1.8505,2,3730,1015,feet,jsons/v1_VE1000_randls_35.json,1230209,1451176,1992,Woman
104,960695,DepthScenes,duration_manipulation_targetAtFixation,jsons/v1_VE1000_randls_35.json,http://54.235.29.9/FacialAge/BNav_EC2/DepthDuration/v2_depth_duration_MTurk/v2_DepthDuration_HTML.html#406,406,1366,625,1366,768,8-29-2022,11-24-46,105,depth_duration_stimuli/003587_2014-05-23_16-48-02_094959634447_rgbf002384-resize_2/003587_2014-05-23_16-48-02_094959634447_rgbf002384-resize_2-target.png,1000,1.357,2,3131,1000,feet,jsons/v1_VE1000_randls_35.json,1230209,1451176,1992,Woman
105,960695,DepthScenes,duration_manipulation_targetAtFixation,jsons/v1_VE1000_randls_35.json,http://54.235.29.9/FacialAge/BNav_EC2/DepthDuration/v2_depth_duration_MTurk/v2_DepthDuration_HTML.html#406,406,1366,625,1366,768,8-29-2022,11-24-46,106,depth_duration_stimuli/001158_2014-06-17_15-32-16_260595134347_rgbf000138-resize_2/001158_2014-06-17_15-32-16_260595134347_rgbf000138-resize_2-target.png,1000,4.5315,8,5947,1065,feet,jsons/v1_VE1000_randls_35.json,1230209,1451176,1992,Woman
106,960695,DepthScenes,duration_manipulation_targetAtFixation,jsons/v1_VE1000_randls_35.json,http://54.235.29.9/FacialAge/BNav_EC2/DepthDuration/v2_depth_duration_MTurk/v2_DepthDuration_HTML.html#406,406,1366,625,1366,768,8-29-2022,11-24-46,107,depth_duration_stimuli/000556_2014-06-09_22-42-56_260595134347_rgbf000214-resize_1/000556_2014-06-09_22-42-56_260595134347_rgbf000214-resize_1-target.png,1000,4.8415,8,4270,1000,feet,jsons/v1_VE1000_randls_35.json,1230209,1451176,1992,Woman
107,960695,DepthScenes,duration_manipulation_targetAtFixation,jsons/v1_VE1000_randls_35.json,http://54.235.29.9/FacialAge/BNav_EC2/DepthDuration/v2_depth_duration_MTurk/v2_DepthDuration_HTML.html#406,406,1366,625,1366,768,8-29-2022,11-24-46,108,depth_duration_stimuli/000486_2014-06-09_20-47-20_260595134347_rgbf000143-resize_2/000486_2014-06-09_20-47-20_260595134347_rgbf000143-resize_2-target.png,1000,4.8325,4,4395,1000,feet,jsons/v1_VE1000_randls_35.json,1230209,1451176,1992,Woman
108,960695,DepthScenes,duration_manipulation_targetAtFixation,jsons/v1_VE1000_randls_35.json,http://54.235.29.9/FacialAge/BNav_EC2/DepthDuration/v2_depth_duration_MTurk/v2_DepthDuration_HTML.html#406,406,1366,625,1366,768,8-29-2022,11-24-46,109,depth_duration_stimuli/003083_2014-06-15_15-21-03_094959634447_rgbf000063-resize_1/003083_2014-06-15_15-21-03_094959634447_rgbf000063-resize_1-target.png,1000,4.1405,9,3253,994,feet,jsons/v1_VE1000_randls_35.json,1230209,1451176,1992,Woman
109,960695,DepthScenes,duration_manipulation_targetAtFixation,jsons/v1_VE1000_randls_35.json,http://54.235.29.9/FacialAge/BNav_EC2/DepthDuration/v2_depth_duration_MTurk/v2_DepthDuration_HTML.html#406,406,1366,625,1366,768,8-29-2022,11-24-46,110,depth_duration_stimuli/002153_2014-06-25_21-27-18_260595134347_rgbf000038-resize_5/002153_2014-06-25_21-27-18_260595134347_rgbf000038-resize_5-target.png,1000,2.505,4,4322,1022,feet,jsons/v1_VE1000_randls_35.json,1230209,1451176,1992,Woman
110,960695,DepthScenes,duration_manipulation_targetAtFixation,jsons/v1_VE1000_randls_35.json,http://54.235.29.9/FacialAge/BNav_EC2/DepthDuration/v2_depth_duration_MTurk/v2_DepthDuration_HTML.html#406,406,1366,625,1366,768,8-29-2022,11-24-46,111,depth_duration_stimuli/002660_2014-06-13_15-44-18_094959634447_rgbf001878-resize_2/002660_2014-06-13_15-44-18_094959634447_rgbf001878-resize_2-target.png,1000,3.576,7,3588,1005,feet,jsons/v1_VE1000_randls_35.json,1230209,1451176,1992,Woman
111,960695,DepthScenes,duration_manipulation_targetAtFixation,jsons/v1_VE1000_randls_35.json,http://54.235.29.9/FacialAge/BNav_EC2/DepthDuration/v2_depth_duration_MTurk/v2_DepthDuration_HTML.html#406,406,1366,625,1366,768,8-29-2022,11-24-46,112,depth_duration_stimuli/001449_2014-06-19_17-01-27_260595134347_rgbf000116-resize_2/001449_2014-06-19_17-01-27_260595134347_rgbf000116-resize_2-target.png,1000,3.452,6,4820,984,feet,jsons/v1_VE1000_randls_35.json,1230209,1451176,1992,Woman
112,960695,DepthScenes,duration_manipulation_targetAtFixation,jsons/v1_VE1000_randls_35.json,http://54.235.29.9/FacialAge/BNav_EC2/DepthDuration/v2_depth_duration_MTurk/v2_DepthDuration_HTML.html#406,406,1366,625,1366,768,8-29-2022,11-24-46,113,depth_duration_stimuli/001450_2014-06-19_17-02-03_260595134347_rgbf000203-resize_4/001450_2014-06-19_17-02-03_260595134347_rgbf000203-resize_4-target.png,1000,4.0106666666667,9,4434,999,feet,jsons/v1_VE1000_randls_35.json,1230209,1451176,1992,Woman
113,960695,DepthScenes,duration_manipulation_targetAtFixation,jsons/v1_VE1000_randls_35.json,http://54.235.29.9/FacialAge/BNav_EC2/DepthDuration/v2_depth_duration_MTurk/v2_DepthDuration_HTML.html#406,406,1366,625,1366,768,8-29-2022,11-24-46,114,depth_duration_stimuli/000773_2014-06-08_22-24-54_260595134347_rgbf000093-resize_1/000773_2014-06-08_22-24-54_260595134347_rgbf000093-resize_1-target.png,1000,4.973,5,8628,1064,feet,jsons/v1_VE1000_randls_35.json,1230209,1451176,1992,Woman
114,960695,DepthScenes,duration_manipulation_targetAtFixation,jsons/v1_VE1000_randls_35.json,http://54.235.29.9/FacialAge/BNav_EC2/DepthDuration/v2_depth_duration_MTurk/v2_DepthDuration_HTML.html#406,406,1366,625,1366,768,8-29-2022,11-24-46,115,depth_duration_stimuli/002414_2014-06-28_20-24-58_260595134347_rgbf000067-resize_4/002414_2014-06-28_20-24-58_260595134347_rgbf000067-resize_4-target.png,1000,4.363,5,4089,999,feet,jsons/v1_VE1000_randls_35.json,1230209,1451176,1992,Woman
115,960695,DepthScenes,duration_manipulation_targetAtFixation,jsons/v1_VE1000_randls_35.json,http://54.235.29.9/FacialAge/BNav_EC2/DepthDuration/v2_depth_duration_MTurk/v2_DepthDuration_HTML.html#406,406,1366,625,1366,768,8-29-2022,11-24-46,116,depth_duration_stimuli/001170_2014-06-17_15-43-44_260595134347_rgbf000096-resize_6/001170_2014-06-17_15-43-44_260595134347_rgbf000096-resize-original.jpg,1000,1.1909999999999998,0,4427,1087,feet,jsons/v1_VE1000_randls_35.json,1230209,1451176,1992,Woman
116,960695,DepthScenes,duration_manipulation_targetAtFixation,jsons/v1_VE1000_randls_35.json,http://54.235.29.9/FacialAge/BNav_EC2/DepthDuration/v2_depth_duration_MTurk/v2_DepthDuration_HTML.html#406,406,1366,625,1366,768,8-29-2022,11-24-46,117,depth_duration_stimuli/000493_2014-06-09_21-01-18_260595134347_rgbf000196-resize_3/000493_2014-06-09_21-01-18_260595134347_rgbf000196-resize_3-target.png,1000,3.44,6,4362,999,feet,jsons/v1_VE1000_randls_35.json,1230209,1451176,1992,Woman
117,960695,DepthScenes,duration_manipulation_targetAtFixation,jsons/v1_VE1000_randls_35.json,http://54.235.29.9/FacialAge/BNav_EC2/DepthDuration/v2_depth_duration_MTurk/v2_DepthDuration_HTML.html#406,406,1366,625,1366,768,8-29-2022,11-24-46,118,depth_duration_stimuli/000191_2014-05-12_17-07-38_260595134347_rgbf000199-resize_0/000191_2014-05-12_17-07-38_260595134347_rgbf000199-resize_0-target.png,1000,3.7995,9,3100,1000,feet,jsons/v1_VE1000_randls_35.json,1230209,1451176,1992,Woman
118,960695,DepthScenes,duration_manipulation_targetAtFixation,jsons/v1_VE1000_randls_35.json,http://54.235.29.9/FacialAge/BNav_EC2/DepthDuration/v2_depth_duration_MTurk/v2_DepthDuration_HTML.html#406,406,1366,625,1366,768,8-29-2022,11-24-46,119,depth_duration_stimuli/002905_2014-06-03_18-04-43_094959634447_rgbf000151-resize_2/002905_2014-06-03_18-04-43_094959634447_rgbf000151-resize_2-target.png,1000,2.0295,3,4115,999,feet,jsons/v1_VE1000_randls_35.json,1230209,1451176,1992,Woman
119,960695,DepthScenes,duration_manipulation_targetAtFixation,jsons/v1_VE1000_randls_35.json,http://54.235.29.9/FacialAge/BNav_EC2/DepthDuration/v2_depth_duration_MTurk/v2_DepthDuration_HTML.html#406,406,1366,625,1366,768,8-29-2022,11-24-46,120,depth_duration_stimuli/003423_2014-05-21_10-23-26_094959634447_rgbf002665-resize_2/003423_2014-05-21_10-23-26_094959634447_rgbf002665-resize_2-target.png,1000,3.2575,7,3688,998,feet,jsons/v1_VE1000_randls_35.json,1230209,1451176,1992,Woman
120,960695,DepthScenes,duration_manipulation_targetAtFixation,jsons/v1_VE1000_randls_35.json,http://54.235.29.9/FacialAge/BNav_EC2/DepthDuration/v2_depth_duration_MTurk/v2_DepthDuration_HTML.html#406,406,1366,625,1366,768,8-29-2022,11-24-46,121,depth_duration_stimuli/002748_2014-06-22_19-07-22_094959634447_rgbf000078-resize_1/002748_2014-06-22_19-07-22_094959634447_rgbf000078-resize_1-target.png,1000,4.6705,9,4108,1000,feet,jsons/v1_VE1000_randls_35.json,1230209,1451176,1992,Woman
121,960695,DepthScenes,duration_manipulation_targetAtFixation,jsons/v1_VE1000_randls_35.json,http://54.235.29.9/FacialAge/BNav_EC2/DepthDuration/v2_depth_duration_MTurk/v2_DepthDuration_HTML.html#406,406,1366,625,1366,768,8-29-2022,11-24-46,122,depth_duration_stimuli/002995_2014-06-15_12-31-26_094959634447_rgbf000150-resize_1/002995_2014-06-15_12-31-26_094959634447_rgbf000150-resize_1-target.png,1000,3.8360000000000003,9,3227,1000,feet,jsons/v1_VE1000_randls_35.json,1230209,1451176,1992,Woman
122,960695,DepthScenes,duration_manipulation_targetAtFixation,jsons/v1_VE1000_randls_35.json,http://54.235.29.9/FacialAge/BNav_EC2/DepthDuration/v2_depth_duration_MTurk/v2_DepthDuration_HTML.html#406,406,1366,625,1366,768,8-29-2022,11-24-46,123,depth_duration_stimuli/000758_2014-06-08_22-05-08_260595134347_rgbf000085-resize_0/000758_2014-06-08_22-05-08_260595134347_rgbf000085-resize_0-target.png,1000,3.3810000000000002,9,3788,1001,feet,jsons/v1_VE1000_randls_35.json,1230209,1451176,1992,Woman
123,960695,DepthScenes,duration_manipulation_targetAtFixation,jsons/v1_VE1000_randls_35.json,http://54.235.29.9/FacialAge/BNav_EC2/DepthDuration/v2_depth_duration_MTurk/v2_DepthDuration_HTML.html#406,406,1366,625,1366,768,8-29-2022,11-24-46,124,depth_duration_stimuli/000854_2014-06-09_19-43-13_260595134347_rgbf000066-resize_0/000854_2014-06-09_19-43-13_260595134347_rgbf000066-resize_0-target.png,1000,3.068,5,3284,1001,feet,jsons/v1_VE1000_randls_35.json,1230209,1451176,1992,Woman
124,960695,DepthScenes,duration_manipulation_targetAtFixation,jsons/v1_VE1000_randls_35.json,http://54.235.29.9/FacialAge/BNav_EC2/DepthDuration/v2_depth_duration_MTurk/v2_DepthDuration_HTML.html#406,406,1366,625,1366,768,8-29-2022,11-24-46,125,depth_duration_stimuli/002725_2014-06-22_11-47-51_094959634447_rgbf000070-resize_1/002725_2014-06-22_11-47-51_094959634447_rgbf000070-resize_1-target.png,1000,2.195,5,4641,1000,feet,jsons/v1_VE1000_randls_35.json,1230209,1451176,1992,Woman
125,960695,DepthScenes,duration_manipulation_targetAtFixation,jsons/v1_VE1000_randls_35.json,http://54.235.29.9/FacialAge/BNav_EC2/DepthDuration/v2_depth_duration_MTurk/v2_DepthDuration_HTML.html#406,406,1366,625,1366,768,8-29-2022,11-24-46,126,depth_duration_stimuli/002344_2014-06-28_20-06-29_260595134347_rgbf000030-resize_1/002344_2014-06-28_20-06-29_260595134347_rgbf000030-resize_1-target.png,1000,1.5795,2,3352,1001,feet,jsons/v1_VE1000_randls_35.json,1230209,1451176,1992,Woman
126,960695,DepthScenes,duration_manipulation_targetAtFixation,jsons/v1_VE1000_randls_35.json,http://54.235.29.9/FacialAge/BNav_EC2/DepthDuration/v2_depth_duration_MTurk/v2_DepthDuration_HTML.html#406,406,1366,625,1366,768,8-29-2022,11-24-46,127,depth_duration_stimuli/000788_2014-06-08_22-34-36_260595134347_rgbf000131-resize_1/000788_2014-06-08_22-34-36_260595134347_rgbf000131-resize_1-target.png,1000,3.359,6,6007,1001,feet,jsons/v1_VE1000_randls_35.json,1230209,1451176,1992,Woman
127,960695,DepthScenes,duration_manipulation_targetAtFixation,jsons/v1_VE1000_randls_35.json,http://54.235.29.9/FacialAge/BNav_EC2/DepthDuration/v2_depth_duration_MTurk/v2_DepthDuration_HTML.html#406,406,1366,625,1366,768,8-29-2022,11-24-46,128,depth_duration_stimuli/001235_2014-06-17_16-37-36_260595134347_rgbf000084-resize_4/001235_2014-06-17_16-37-36_260595134347_rgbf000084-resize_4-target.png,1000,3.6605,5,3132,1051,feet,jsons/v1_VE1000_randls_35.json,1230209,1451176,1992,Woman
128,960695,DepthScenes,duration_manipulation_targetAtFixation,jsons/v1_VE1000_randls_35.json,http://54.235.29.9/FacialAge/BNav_EC2/DepthDuration/v2_depth_duration_MTurk/v2_DepthDuration_HTML.html#406,406,1366,625,1366,768,8-29-2022,11-24-46,129,depth_duration_stimuli/001417_2014-06-19_16-25-36_260595134347_rgbf000115-resize_5/001417_2014-06-19_16-25-36_260595134347_rgbf000115-resize_5-target.png,1000,4.6255,6,4599,997,feet,jsons/v1_VE1000_randls_35.json,1230209,1451176,1992,Woman
129,960695,DepthScenes,duration_manipulation_targetAtFixation,jsons/v1_VE1000_randls_35.json,http://54.235.29.9/FacialAge/BNav_EC2/DepthDuration/v2_depth_duration_MTurk/v2_DepthDuration_HTML.html#406,406,1366,625,1366,768,8-29-2022,11-24-46,130,depth_duration_stimuli/003081_2014-06-15_15-19-16_094959634447_rgbf000150-resize_1/003081_2014-06-15_15-19-16_094959634447_rgbf000150-resize_1-target.png,1000,3.9125,7,3888,995,feet,jsons/v1_VE1000_randls_35.json,1230209,1451176,1992,Woman
130,960695,DepthScenes,duration_manipulation_targetAtFixation,jsons/v1_VE1000_randls_35.json,http://54.235.29.9/FacialAge/BNav_EC2/DepthDuration/v2_depth_duration_MTurk/v2_DepthDuration_HTML.html#406,406,1366,625,1366,768,8-29-2022,11-24-46,131,depth_duration_stimuli/000736_2014-06-08_18-24-15_260595134347_rgbf000206-resize_3/000736_2014-06-08_18-24-15_260595134347_rgbf000206-resize_3-target.png,1000,3.515,5,4747,1000,feet,jsons/v1_VE1000_randls_35.json,1230209,1451176,1992,Woman
131,960695,DepthScenes,duration_manipulation_targetAtFixation,jsons/v1_VE1000_randls_35.json,http://54.235.29.9/FacialAge/BNav_EC2/DepthDuration/v2_depth_duration_MTurk/v2_DepthDuration_HTML.html#406,406,1366,625,1366,768,8-29-2022,11-24-46,132,depth_duration_stimuli/000137_2014-05-20_17-04-49_260595134347_rgbf000120-resize_1/000137_2014-05-20_17-04-49_260595134347_rgbf000120-resize_1-target.png,1000,3.786,6,4227,1000,feet,jsons/v1_VE1000_randls_35.json,1230209,1451176,1992,Woman
132,960695,DepthScenes,duration_manipulation_targetAtFixation,jsons/v1_VE1000_randls_35.json,http://54.235.29.9/FacialAge/BNav_EC2/DepthDuration/v2_depth_duration_MTurk/v2_DepthDuration_HTML.html#406,406,1366,625,1366,768,8-29-2022,11-24-46,133,depth_duration_stimuli/002964_2014-06-08_17-46-11_094959634447_rgbf000091-resize_4/002964_2014-06-08_17-46-11_094959634447_rgbf000091-resize_4-target.png,1000,1.6909999999999998,3,4522,1003,feet,jsons/v1_VE1000_randls_35.json,1230209,1451176,1992,Woman
133,960695,DepthScenes,duration_manipulation_targetAtFixation,jsons/v1_VE1000_randls_35.json,http://54.235.29.9/FacialAge/BNav_EC2/DepthDuration/v2_depth_duration_MTurk/v2_DepthDuration_HTML.html#406,406,1366,625,1366,768,8-29-2022,11-24-46,134,depth_duration_stimuli/002136_2014-06-25_21-18-03_260595134347_rgbf000109-resize_3/002136_2014-06-25_21-18-03_260595134347_rgbf000109-resize_3-target.png,1000,1.9569999999999999,5,4107,1000,feet,jsons/v1_VE1000_randls_35.json,1230209,1451176,1992,Woman
134,960695,DepthScenes,duration_manipulation_targetAtFixation,jsons/v1_VE1000_randls_35.json,http://54.235.29.9/FacialAge/BNav_EC2/DepthDuration/v2_depth_duration_MTurk/v2_DepthDuration_HTML.html#406,406,1366,625,1366,768,8-29-2022,11-24-46,135,depth_duration_stimuli/002072_2014-06-24_21-48-06_260595134347_rgbf000115-resize_0/002072_2014-06-24_21-48-06_260595134347_rgbf000115-resize-original.jpg,1000,4.702,0,4430,1001,feet,jsons/v1_VE1000_randls_35.json,1230209,1451176,1992,Woman
135,960695,DepthScenes,duration_manipulation_targetAtFixation,jsons/v1_VE1000_randls_35.json,http://54.235.29.9/FacialAge/BNav_EC2/DepthDuration/v2_depth_duration_MTurk/v2_DepthDuration_HTML.html#406,406,1366,625,1366,768,8-29-2022,11-24-46,136,depth_duration_stimuli/000906_2014-06-08_13-35-43_260595134347_rgbf000155-resize_1/000906_2014-06-08_13-35-43_260595134347_rgbf000155-resize_1-target.png,1000,2.8489999999999998,6,3912,1001,feet,jsons/v1_VE1000_randls_35.json,1230209,1451176,1992,Woman
136,960695,DepthScenes,duration_manipulation_targetAtFixation,jsons/v1_VE1000_randls_35.json,http://54.235.29.9/FacialAge/BNav_EC2/DepthDuration/v2_depth_duration_MTurk/v2_DepthDuration_HTML.html#406,406,1366,625,1366,768,8-29-2022,11-24-46,137,depth_duration_stimuli/002805_2014-06-22_19-54-03_094959634447_rgbf000079-resize_1/002805_2014-06-22_19-54-03_094959634447_rgbf000079-resize_1-target.png,1000,3.1439999999999997,8,3146,1001,feet,jsons/v1_VE1000_randls_35.json,1230209,1451176,1992,Woman
137,960695,DepthScenes,duration_manipulation_targetAtFixation,jsons/v1_VE1000_randls_35.json,http://54.235.29.9/FacialAge/BNav_EC2/DepthDuration/v2_depth_duration_MTurk/v2_DepthDuration_HTML.html#406,406,1366,625,1366,768,8-29-2022,11-24-46,138,depth_duration_stimuli/001175_2014-06-17_15-45-55_260595134347_rgbf000129-resize_4/001175_2014-06-17_15-45-55_260595134347_rgbf000129-resize_4-target.png,1000,4.255,9,3792,999,feet,jsons/v1_VE1000_randls_35.json,1230209,1451176,1992,Woman
138,960695,DepthScenes,duration_manipulation_targetAtFixation,jsons/v1_VE1000_randls_35.json,http://54.235.29.9/FacialAge/BNav_EC2/DepthDuration/v2_depth_duration_MTurk/v2_DepthDuration_HTML.html#406,406,1366,625,1366,768,8-29-2022,11-24-46,139,depth_duration_stimuli/003490_2014-05-21_15-50-11_094959634447_rgbf000101-resize_3/003490_2014-05-21_15-50-11_094959634447_rgbf000101-resize_3-target.png,1000,3.6445,8,3981,999,feet,jsons/v1_VE1000_randls_35.json,1230209,1451176,1992,Woman
139,960695,DepthScenes,duration_manipulation_targetAtFixation,jsons/v1_VE1000_randls_35.json,http://54.235.29.9/FacialAge/BNav_EC2/DepthDuration/v2_depth_duration_MTurk/v2_DepthDuration_HTML.html#406,406,1366,625,1366,768,8-29-2022,11-24-46,140,depth_duration_stimuli/000469_2014-06-09_19-42-10_260595134347_rgbf000081-resize_1/000469_2014-06-09_19-42-10_260595134347_rgbf000081-resize_1-target.png,1000,1.652,4,5123,1001,feet,jsons/v1_VE1000_randls_35.json,1230209,1451176,1992,Woman
140,960695,DepthScenes,duration_manipulation_targetAtFixation,jsons/v1_VE1000_randls_35.json,http://54.235.29.9/FacialAge/BNav_EC2/DepthDuration/v2_depth_duration_MTurk/v2_DepthDuration_HTML.html#406,406,1366,625,1366,768,8-29-2022,11-24-46,141,depth_duration_stimuli/000483_2014-06-09_20-41-45_260595134347_rgbf000116-resize_4/000483_2014-06-09_20-41-45_260595134347_rgbf000116-resize_4-target.png,1000,1.337,2,3500,999,feet,jsons/v1_VE1000_randls_35.json,1230209,1451176,1992,Woman
141,960695,DepthScenes,duration_manipulation_targetAtFixation,jsons/v1_VE1000_randls_35.json,http://54.235.29.9/FacialAge/BNav_EC2/DepthDuration/v2_depth_duration_MTurk/v2_DepthDuration_HTML.html#406,406,1366,625,1366,768,8-29-2022,11-24-46,142,depth_duration_stimuli/000642_2014-06-08_16-59-25_260595134347_rgbf000098-resize_2/000642_2014-06-08_16-59-25_260595134347_rgbf000098-resize_2-target.png,1000,2.8815,5,3979,1002,feet,jsons/v1_VE1000_randls_35.json,1230209,1451176,1992,Woman
142,960695,DepthScenes,duration_manipulation_targetAtFixation,jsons/v1_VE1000_randls_35.json,http://54.235.29.9/FacialAge/BNav_EC2/DepthDuration/v2_depth_duration_MTurk/v2_DepthDuration_HTML.html#406,406,1366,625,1366,768,8-29-2022,11-24-46,143,depth_duration_stimuli/002425_2014-06-28_20-27-29_260595134347_rgbf000031-resize_8/002425_2014-06-28_20-27-29_260595134347_rgbf000031-resize_8-target.png,1000,3.8960000000000004,8,4553,1000,feet,jsons/v1_VE1000_randls_35.json,1230209,1451176,1992,Woman
143,960695,DepthScenes,duration_manipulation_targetAtFixation,jsons/v1_VE1000_randls_35.json,http://54.235.29.9/FacialAge/BNav_EC2/DepthDuration/v2_depth_duration_MTurk/v2_DepthDuration_HTML.html#406,406,1366,625,1366,768,8-29-2022,11-24-46,144,depth_duration_stimuli/002788_2014-06-22_19-36-03_094959634447_rgbf000088-resize_2/002788_2014-06-22_19-36-03_094959634447_rgbf000088-resize_2-target.png,1000,1.6465,8,5481,1000,feet,jsons/v1_VE1000_randls_35.json,1230209,1451176,1992,Woman
144,960695,DepthScenes,duration_manipulation_targetAtFixation,jsons/v1_VE1000_randls_35.json,http://54.235.29.9/FacialAge/BNav_EC2/DepthDuration/v2_depth_duration_MTurk/v2_DepthDuration_HTML.html#406,406,1366,625,1366,768,8-29-2022,11-24-46,145,depth_duration_stimuli/000749_2014-06-08_21-55-06_260595134347_rgbf000070-resize_2/000749_2014-06-08_21-55-06_260595134347_rgbf000070-resize_2-target.png,1000,2.331,7,4043,1000,feet,jsons/v1_VE1000_randls_35.json,1230209,1451176,1992,Woman
145,960695,DepthScenes,duration_manipulation_targetAtFixation,jsons/v1_VE1000_randls_35.json,http://54.235.29.9/FacialAge/BNav_EC2/DepthDuration/v2_depth_duration_MTurk/v2_DepthDuration_HTML.html#406,406,1366,625,1366,768,8-29-2022,11-24-46,146,depth_duration_stimuli/001498_2014-06-19_17-45-14_260595134347_rgbf000129-resize_4/001498_2014-06-19_17-45-14_260595134347_rgbf000129-resize-original.jpg,1000,1.4075,0,4924,1000,feet,jsons/v1_VE1000_randls_35.json,1230209,1451176,1992,Woman
146,960695,DepthScenes,duration_manipulation_targetAtFixation,jsons/v1_VE1000_randls_35.json,http://54.235.29.9/FacialAge/BNav_EC2/DepthDuration/v2_depth_duration_MTurk/v2_DepthDuration_HTML.html#406,406,1366,625,1366,768,8-29-2022,11-24-46,147,depth_duration_stimuli/002630_2014-06-24_14-47-50_094959634447_rgbf000055-resize_1/002630_2014-06-24_14-47-50_094959634447_rgbf000055-resize_1-target.png,1000,3.0095,9,3668,1001,feet,jsons/v1_VE1000_randls_35.json,1230209,1451176,1992,Woman
147,960695,DepthScenes,duration_manipulation_targetAtFixation,jsons/v1_VE1000_randls_35.json,http://54.235.29.9/FacialAge/BNav_EC2/DepthDuration/v2_depth_duration_MTurk/v2_DepthDuration_HTML.html#406,406,1366,625,1366,768,8-29-2022,11-24-46,148,depth_duration_stimuli/002758_2014-06-22_19-11-20_094959634447_rgbf000128-resize_1/002758_2014-06-22_19-11-20_094959634447_rgbf000128-resize_1-target.png,1000,2.555,7,3004,1001,feet,jsons/v1_VE1000_randls_35.json,1230209,1451176,1992,Woman
148,960695,DepthScenes,duration_manipulation_targetAtFixation,jsons/v1_VE1000_randls_35.json,http://54.235.29.9/FacialAge/BNav_EC2/DepthDuration/v2_depth_duration_MTurk/v2_DepthDuration_HTML.html#406,406,1366,625,1366,768,8-29-2022,11-24-46,149,depth_duration_stimuli/000878_2014-06-08_22-52-45_260595134347_rgbf000045-resize_2/000878_2014-06-08_22-52-45_260595134347_rgbf000045-resize_2-target.png,1000,2.092,5,3764,1001,feet,jsons/v1_VE1000_randls_35.json,1230209,1451176,1992,Woman
149,960695,DepthScenes,duration_manipulation_targetAtFixation,jsons/v1_VE1000_randls_35.json,http://54.235.29.9/FacialAge/BNav_EC2/DepthDuration/v2_depth_duration_MTurk/v2_DepthDuration_HTML.html#406,406,1366,625,1366,768,8-29-2022,11-24-46,150,depth_duration_stimuli/002953_2014-06-08_17-32-18_094959634447_rgbf000059-resize_5/002953_2014-06-08_17-32-18_094959634447_rgbf000059-resize_5-target.png,1000,1.551,2,3362,908,feet,jsons/v1_VE1000_randls_35.json,1230209,1451176,1992,Woman
150,960695,DepthScenes,duration_manipulation_targetAtFixation,jsons/v1_VE1000_randls_35.json,http://54.235.29.9/FacialAge/BNav_EC2/DepthDuration/v2_depth_duration_MTurk/v2_DepthDuration_HTML.html#406,406,1366,625,1366,768,8-29-2022,11-24-46,151,depth_duration_stimuli/000917_2014-06-09_22-45-29_260595134347_rgbf000149-resize_3/000917_2014-06-09_22-45-29_260595134347_rgbf000149-resize_3-target.png,1000,4.1865,9,4236,1000,feet,jsons/v1_VE1000_randls_35.json,1230209,1451176,1992,Woman
151,960695,DepthScenes,duration_manipulation_targetAtFixation,jsons/v1_VE1000_randls_35.json,http://54.235.29.9/FacialAge/BNav_EC2/DepthDuration/v2_depth_duration_MTurk/v2_DepthDuration_HTML.html#406,406,1366,625,1366,768,8-29-2022,11-24-46,152,depth_duration_stimuli/002323_2014-06-28_20-01-54_260595134347_rgbf000051-resize_4/002323_2014-06-28_20-01-54_260595134347_rgbf000051-resize_4-target.png,1000,3.7310000000000003,6,3944,1001,feet,jsons/v1_VE1000_randls_35.json,1230209,1451176,1992,Woman
152,960695,DepthScenes,duration_manipulation_targetAtFixation,jsons/v1_VE1000_randls_35.json,http://54.235.29.9/FacialAge/BNav_EC2/DepthDuration/v2_depth_duration_MTurk/v2_DepthDuration_HTML.html#406,406,1366,625,1366,768,8-29-2022,11-24-46,153,depth_duration_stimuli/001806_2014-06-26_20-50-20_260595134347_rgbf000091-resize_1/001806_2014-06-26_20-50-20_260595134347_rgbf000091-resize_1-target.png,1000,2.7305,4,3548,1000,feet,jsons/v1_VE1000_randls_35.json,1230209,1451176,1992,Woman
153,960695,DepthScenes,duration_manipulation_targetAtFixation,jsons/v1_VE1000_randls_35.json,http://54.235.29.9/FacialAge/BNav_EC2/DepthDuration/v2_depth_duration_MTurk/v2_DepthDuration_HTML.html#406,406,1366,625,1366,768,8-29-2022,11-24-46,154,depth_duration_stimuli/001617_2014-06-20_11-35-32_260595134347_rgbf000066-resize_1/001617_2014-06-20_11-35-32_260595134347_rgbf000066-resize_1-target.png,1000,3.7910000000000004,7,3316,1000,feet,jsons/v1_VE1000_randls_35.json,1230209,1451176,1992,Woman
154,960695,DepthScenes,duration_manipulation_targetAtFixation,jsons/v1_VE1000_randls_35.json,http://54.235.29.9/FacialAge/BNav_EC2/DepthDuration/v2_depth_duration_MTurk/v2_DepthDuration_HTML.html#406,406,1366,625,1366,768,8-29-2022,11-24-46,155,depth_duration_stimuli/001055_2014-06-08_18-45-35_260595134347_rgbf000111-resize_4/001055_2014-06-08_18-45-35_260595134347_rgbf000111-resize_4-target.png,1000,2.4290000000000003,8,3787,1000,feet,jsons/v1_VE1000_randls_35.json,1230209,1451176,1992,Woman
155,960695,DepthScenes,duration_manipulation_targetAtFixation,jsons/v1_VE1000_randls_35.json,http://54.235.29.9/FacialAge/BNav_EC2/DepthDuration/v2_depth_duration_MTurk/v2_DepthDuration_HTML.html#406,406,1366,625,1366,768,8-29-2022,11-24-46,156,depth_duration_stimuli/000549_2014-06-08_22-10-24_260595134347_rgbf000247-resize_3/000549_2014-06-08_22-10-24_260595134347_rgbf000247-resize_3-target.png,1000,1.841,3,4446,999,feet,jsons/v1_VE1000_randls_35.json,1230209,1451176,1992,Woman
156,960695,DepthScenes,duration_manipulation_targetAtFixation,jsons/v1_VE1000_randls_35.json,http://54.235.29.9/FacialAge/BNav_EC2/DepthDuration/v2_depth_duration_MTurk/v2_DepthDuration_HTML.html#406,406,1366,625,1366,768,8-29-2022,11-24-46,157,depth_duration_stimuli/002549_2014-06-24_13-41-39_094959634447_rgbf000022-resize_3/002549_2014-06-24_13-41-39_094959634447_rgbf000022-resize_3-target.png,1000,1.476,2,3874,1000,feet,jsons/v1_VE1000_randls_35.json,1230209,1451176,1992,Woman
157,960695,DepthScenes,duration_manipulation_targetAtFixation,jsons/v1_VE1000_randls_35.json,http://54.235.29.9/FacialAge/BNav_EC2/DepthDuration/v2_depth_duration_MTurk/v2_DepthDuration_HTML.html#406,406,1366,625,1366,768,8-29-2022,11-24-46,158,depth_duration_stimuli/002750_2014-06-22_19-08-03_094959634447_rgbf000094-resize_4/002750_2014-06-22_19-08-03_094959634447_rgbf000094-resize_4-target.png,1000,2.354,4,3321,1100,feet,jsons/v1_VE1000_randls_35.json,1230209,1451176,1992,Woman
158,960695,DepthScenes,duration_manipulation_targetAtFixation,jsons/v1_VE1000_randls_35.json,http://54.235.29.9/FacialAge/BNav_EC2/DepthDuration/v2_depth_duration_MTurk/v2_DepthDuration_HTML.html#406,406,1366,625,1366,768,8-29-2022,11-24-46,159,depth_duration_stimuli/000739_2014-06-08_18-45-58_260595134347_rgbf000068-resize_1/000739_2014-06-08_18-45-58_260595134347_rgbf000068-resize_1-target.png,1000,3.534,6,4229,1002,feet,jsons/v1_VE1000_randls_35.json,1230209,1451176,1992,Woman
159,960695,DepthScenes,duration_manipulation_targetAtFixation,jsons/v1_VE1000_randls_35.json,http://54.235.29.9/FacialAge/BNav_EC2/DepthDuration/v2_depth_duration_MTurk/v2_DepthDuration_HTML.html#406,406,1366,625,1366,768,8-29-2022,11-24-46,160,depth_duration_stimuli/000734_2014-06-08_17-39-11_260595134347_rgbf000128-resize_2/000734_2014-06-08_17-39-11_260595134347_rgbf000128-resize_2-target.png,1000,4.098,5,3350,1001,feet,jsons/v1_VE1000_randls_35.json,1230209,1451176,1992,Woman
160,960695,DepthScenes,duration_manipulation_targetAtFixation,jsons/v1_VE1000_randls_35.json,http://54.235.29.9/FacialAge/BNav_EC2/DepthDuration/v2_depth_duration_MTurk/v2_DepthDuration_HTML.html#406,406,1366,625,1366,768,8-29-2022,11-24-46,161,depth_duration_stimuli/000692_2014-06-08_13-09-42_260595134347_rgbf000199-resize_2/000692_2014-06-08_13-09-42_260595134347_rgbf000199-resize_2-target.png,1000,3.661,8,3873,999,feet,jsons/v1_VE1000_randls_35.json,1230209,1451176,1992,Woman
161,960695,DepthScenes,duration_manipulation_targetAtFixation,jsons/v1_VE1000_randls_35.json,http://54.235.29.9/FacialAge/BNav_EC2/DepthDuration/v2_depth_duration_MTurk/v2_DepthDuration_HTML.html#406,406,1366,625,1366,768,8-29-2022,11-24-46,162,depth_duration_stimuli/001094_2014-06-15_17-36-00_260595134347_rgbf000205-resize_0/001094_2014-06-15_17-36-00_260595134347_rgbf000205-resize_0-target.png,1000,4.2175,7,4444,999,feet,jsons/v1_VE1000_randls_35.json,1230209,1451176,1992,Woman
162,960695,DepthScenes,duration_manipulation_targetAtFixation,jsons/v1_VE1000_randls_35.json,http://54.235.29.9/FacialAge/BNav_EC2/DepthDuration/v2_depth_duration_MTurk/v2_DepthDuration_HTML.html#406,406,1366,625,1366,768,8-29-2022,11-24-46,163,depth_duration_stimuli/000436_2014-06-09_22-25-11_260595134347_rgbf000137-resize_1/000436_2014-06-09_22-25-11_260595134347_rgbf000137-resize_1-target.png,1000,4.0705,9,4363,1001,feet,jsons/v1_VE1000_randls_35.json,1230209,1451176,1992,Woman
163,960695,DepthScenes,duration_manipulation_targetAtFixation,jsons/v1_VE1000_randls_35.json,http://54.235.29.9/FacialAge/BNav_EC2/DepthDuration/v2_depth_duration_MTurk/v2_DepthDuration_HTML.html#406,406,1366,625,1366,768,8-29-2022,11-24-46,164,depth_duration_stimuli/002444_2014-06-28_20-32-08_260595134347_rgbf000027-resize_0/002444_2014-06-28_20-32-08_260595134347_rgbf000027-resize_0-target.png,1000,4.388999999999999,8,3789,1000,feet,jsons/v1_VE1000_randls_35.json,1230209,1451176,1992,Woman
