,subjID,experimentName,versionName,sequenceName,url,selected_row,windowWidth,windowHeight,screenWidth,screenHeight,startDate,startTime,trial,stimulus,duration,actual_depth,depth_estimate,trial_RT,log_sceneDuration,unitSelection,seq_filepath,experimentTime,totalTime,age,gender
0,961832,DepthScenes,duration_manipulation_targetAtFixation,jsons/v1_VE250_randls_9.json,http://54.235.29.9/FacialAge/BNav_EC2/DepthDuration/v2_depth_duration_MTurk/v2_DepthDuration_HTML.html#48,48,1920,969,1920,1080,8-29-2022,9-41-52,1,depth_duration_stimuli/000470_2014-06-09_19-42-40_260595134347_rgbf000094-resize_1/000470_2014-06-09_19-42-40_260595134347_rgbf000094-resize_1-target.png,250,1.831,5,5357,250,feet,jsons/v1_VE250_randls_9.json,663205,764228,32,Woman
1,961832,DepthScenes,duration_manipulation_targetAtFixation,jsons/v1_VE250_randls_9.json,http://54.235.29.9/FacialAge/BNav_EC2/DepthDuration/v2_depth_duration_MTurk/v2_DepthDuration_HTML.html#48,48,1920,969,1920,1080,8-29-2022,9-41-52,2,depth_duration_stimuli/000109_2014-05-14_23-41-52_260595134347_rgbf000035-resize_9/000109_2014-05-14_23-41-52_260595134347_rgbf000035-resize_9-target.png,250,1.3545,3,3031,261,feet,jsons/v1_VE250_randls_9.json,663205,764228,32,Woman
2,961832,DepthScenes,duration_manipulation_targetAtFixation,jsons/v1_VE250_randls_9.json,http://54.235.29.9/FacialAge/BNav_EC2/DepthDuration/v2_depth_duration_MTurk/v2_DepthDuration_HTML.html#48,48,1920,969,1920,1080,8-29-2022,9-41-52,3,depth_duration_stimuli/000758_2014-06-08_22-05-08_260595134347_rgbf000085-resize_0/000758_2014-06-08_22-05-08_260595134347_rgbf000085-resize_0-target.png,250,3.3810000000000002,9,3524,256,feet,jsons/v1_VE250_randls_9.json,663205,764228,32,Woman
3,961832,DepthScenes,duration_manipulation_targetAtFixation,jsons/v1_VE250_randls_9.json,http://54.235.29.9/FacialAge/BNav_EC2/DepthDuration/v2_depth_duration_MTurk/v2_DepthDuration_HTML.html#48,48,1920,969,1920,1080,8-29-2022,9-41-52,4,depth_duration_stimuli/000854_2014-06-09_19-43-13_260595134347_rgbf000066-resize_0/000854_2014-06-09_19-43-13_260595134347_rgbf000066-resize_0-target.png,250,3.068,12,3654,254,feet,jsons/v1_VE250_randls_9.json,663205,764228,32,Woman
4,961832,DepthScenes,duration_manipulation_targetAtFixation,jsons/v1_VE250_randls_9.json,http://54.235.29.9/FacialAge/BNav_EC2/DepthDuration/v2_depth_duration_MTurk/v2_DepthDuration_HTML.html#48,48,1920,969,1920,1080,8-29-2022,9-41-52,5,depth_duration_stimuli/002905_2014-06-03_18-04-43_094959634447_rgbf000151-resize_2/002905_2014-06-03_18-04-43_094959634447_rgbf000151-resize_2-target.png,250,2.0295,5,3185,257,feet,jsons/v1_VE250_randls_9.json,663205,764228,32,Woman
5,961832,DepthScenes,duration_manipulation_targetAtFixation,jsons/v1_VE250_randls_9.json,http://54.235.29.9/FacialAge/BNav_EC2/DepthDuration/v2_depth_duration_MTurk/v2_DepthDuration_HTML.html#48,48,1920,969,1920,1080,8-29-2022,9-41-52,6,depth_duration_stimuli/003423_2014-05-21_10-23-26_094959634447_rgbf002665-resize_2/003423_2014-05-21_10-23-26_094959634447_rgbf002665-resize_2-target.png,250,3.2575,15,4728,249,feet,jsons/v1_VE250_randls_9.json,663205,764228,32,Woman
6,961832,DepthScenes,duration_manipulation_targetAtFixation,jsons/v1_VE250_randls_9.json,http://54.235.29.9/FacialAge/BNav_EC2/DepthDuration/v2_depth_duration_MTurk/v2_DepthDuration_HTML.html#48,48,1920,969,1920,1080,8-29-2022,9-41-52,7,depth_duration_stimuli/002118_2014-06-25_20-32-08_260595134347_rgbf000078-resize_1/002118_2014-06-25_20-32-08_260595134347_rgbf000078-resize_1-target.png,250,2.6460000000000004,10,3842,236,feet,jsons/v1_VE250_randls_9.json,663205,764228,32,Woman
7,961832,DepthScenes,duration_manipulation_targetAtFixation,jsons/v1_VE250_randls_9.json,http://54.235.29.9/FacialAge/BNav_EC2/DepthDuration/v2_depth_duration_MTurk/v2_DepthDuration_HTML.html#48,48,1920,969,1920,1080,8-29-2022,9-41-52,8,depth_duration_stimuli/001516_2014-06-20_16-25-09_260595134347_rgbf000076-resize_2/001516_2014-06-20_16-25-09_260595134347_rgbf000076-resize_2-target.png,250,1.7445,6,3185,237,feet,jsons/v1_VE250_randls_9.json,663205,764228,32,Woman
8,961832,DepthScenes,duration_manipulation_targetAtFixation,jsons/v1_VE250_randls_9.json,http://54.235.29.9/FacialAge/BNav_EC2/DepthDuration/v2_depth_duration_MTurk/v2_DepthDuration_HTML.html#48,48,1920,969,1920,1080,8-29-2022,9-41-52,9,depth_duration_stimuli/002549_2014-06-24_13-41-39_094959634447_rgbf000022-resize_3/002549_2014-06-24_13-41-39_094959634447_rgbf000022-resize_3-target.png,250,1.476,5,3911,251,feet,jsons/v1_VE250_randls_9.json,663205,764228,32,Woman
9,961832,DepthScenes,duration_manipulation_targetAtFixation,jsons/v1_VE250_randls_9.json,http://54.235.29.9/FacialAge/BNav_EC2/DepthDuration/v2_depth_duration_MTurk/v2_DepthDuration_HTML.html#48,48,1920,969,1920,1080,8-29-2022,9-41-52,10,depth_duration_stimuli/002750_2014-06-22_19-08-03_094959634447_rgbf000094-resize_4/002750_2014-06-22_19-08-03_094959634447_rgbf000094-resize_4-target.png,250,2.354,9,3405,251,feet,jsons/v1_VE250_randls_9.json,663205,764228,32,Woman
10,961832,DepthScenes,duration_manipulation_targetAtFixation,jsons/v1_VE250_randls_9.json,http://54.235.29.9/FacialAge/BNav_EC2/DepthDuration/v2_depth_duration_MTurk/v2_DepthDuration_HTML.html#48,48,1920,969,1920,1080,8-29-2022,9-41-52,11,depth_duration_stimuli/000469_2014-06-09_19-42-10_260595134347_rgbf000081-resize_1/000469_2014-06-09_19-42-10_260595134347_rgbf000081-resize_1-target.png,250,1.652,5,3128,238,feet,jsons/v1_VE250_randls_9.json,663205,764228,32,Woman
11,961832,DepthScenes,duration_manipulation_targetAtFixation,jsons/v1_VE250_randls_9.json,http://54.235.29.9/FacialAge/BNav_EC2/DepthDuration/v2_depth_duration_MTurk/v2_DepthDuration_HTML.html#48,48,1920,969,1920,1080,8-29-2022,9-41-52,12,depth_duration_stimuli/000483_2014-06-09_20-41-45_260595134347_rgbf000116-resize_4/000483_2014-06-09_20-41-45_260595134347_rgbf000116-resize_4-target.png,250,1.337,4,3074,254,feet,jsons/v1_VE250_randls_9.json,663205,764228,32,Woman
12,961832,DepthScenes,duration_manipulation_targetAtFixation,jsons/v1_VE250_randls_9.json,http://54.235.29.9/FacialAge/BNav_EC2/DepthDuration/v2_depth_duration_MTurk/v2_DepthDuration_HTML.html#48,48,1920,969,1920,1080,8-29-2022,9-41-52,13,depth_duration_stimuli/000569_2014-06-09_22-51-47_260595134347_rgbf000141-resize_3/000569_2014-06-09_22-51-47_260595134347_rgbf000141-resize-original.jpg,250,4.512,0,2279,244,feet,jsons/v1_VE250_randls_9.json,663205,764228,32,Woman
13,961832,DepthScenes,duration_manipulation_targetAtFixation,jsons/v1_VE250_randls_9.json,http://54.235.29.9/FacialAge/BNav_EC2/DepthDuration/v2_depth_duration_MTurk/v2_DepthDuration_HTML.html#48,48,1920,969,1920,1080,8-29-2022,9-41-52,14,depth_duration_stimuli/002663_2014-06-13_15-50-26_094959634447_rgbf000075-resize_1/002663_2014-06-13_15-50-26_094959634447_rgbf000075-resize_1-target.png,250,4.7495,15,5208,240,feet,jsons/v1_VE250_randls_9.json,663205,764228,32,Woman
14,961832,DepthScenes,duration_manipulation_targetAtFixation,jsons/v1_VE250_randls_9.json,http://54.235.29.9/FacialAge/BNav_EC2/DepthDuration/v2_depth_duration_MTurk/v2_DepthDuration_HTML.html#48,48,1920,969,1920,1080,8-29-2022,9-41-52,15,depth_duration_stimuli/000409_2014-06-04_19-23-33_260595134347_rgbf000067-resize_0/000409_2014-06-04_19-23-33_260595134347_rgbf000067-resize_0-target.png,250,3.7335,8,3433,252,feet,jsons/v1_VE250_randls_9.json,663205,764228,32,Woman
15,961832,DepthScenes,duration_manipulation_targetAtFixation,jsons/v1_VE250_randls_9.json,http://54.235.29.9/FacialAge/BNav_EC2/DepthDuration/v2_depth_duration_MTurk/v2_DepthDuration_HTML.html#48,48,1920,969,1920,1080,8-29-2022,9-41-52,16,depth_duration_stimuli/002964_2014-06-08_17-46-11_094959634447_rgbf000091-resize_4/002964_2014-06-08_17-46-11_094959634447_rgbf000091-resize_4-target.png,250,1.6909999999999998,4,3290,250,feet,jsons/v1_VE250_randls_9.json,663205,764228,32,Woman
16,961832,DepthScenes,duration_manipulation_targetAtFixation,jsons/v1_VE250_randls_9.json,http://54.235.29.9/FacialAge/BNav_EC2/DepthDuration/v2_depth_duration_MTurk/v2_DepthDuration_HTML.html#48,48,1920,969,1920,1080,8-29-2022,9-41-52,17,depth_duration_stimuli/002136_2014-06-25_21-18-03_260595134347_rgbf000109-resize_3/002136_2014-06-25_21-18-03_260595134347_rgbf000109-resize_3-target.png,250,1.9569999999999999,5,3479,262,feet,jsons/v1_VE250_randls_9.json,663205,764228,32,Woman
17,961832,DepthScenes,duration_manipulation_targetAtFixation,jsons/v1_VE250_randls_9.json,http://54.235.29.9/FacialAge/BNav_EC2/DepthDuration/v2_depth_duration_MTurk/v2_DepthDuration_HTML.html#48,48,1920,969,1920,1080,8-29-2022,9-41-52,18,depth_duration_stimuli/002763_2014-06-22_19-13-10_094959634447_rgbf000075-resize_4/002763_2014-06-22_19-13-10_094959634447_rgbf000075-resize_4-target.png,250,1.68375,4,3245,249,feet,jsons/v1_VE250_randls_9.json,663205,764228,32,Woman
18,961832,DepthScenes,duration_manipulation_targetAtFixation,jsons/v1_VE250_randls_9.json,http://54.235.29.9/FacialAge/BNav_EC2/DepthDuration/v2_depth_duration_MTurk/v2_DepthDuration_HTML.html#48,48,1920,969,1920,1080,8-29-2022,9-41-52,19,depth_duration_stimuli/002209_2014-06-28_18-36-10_260595134347_rgbf000051-resize_1/002209_2014-06-28_18-36-10_260595134347_rgbf000051-resize_1-target.png,250,2.057,4,3875,239,feet,jsons/v1_VE250_randls_9.json,663205,764228,32,Woman
19,961832,DepthScenes,duration_manipulation_targetAtFixation,jsons/v1_VE250_randls_9.json,http://54.235.29.9/FacialAge/BNav_EC2/DepthDuration/v2_depth_duration_MTurk/v2_DepthDuration_HTML.html#48,48,1920,969,1920,1080,8-29-2022,9-41-52,20,depth_duration_stimuli/003534_2014-05-22_15-06-10_094959634447_rgbf000102-resize_4/003534_2014-05-22_15-06-10_094959634447_rgbf000102-resize_4-target.png,250,1.426,2,2598,251,feet,jsons/v1_VE250_randls_9.json,663205,764228,32,Woman
20,961832,DepthScenes,duration_manipulation_targetAtFixation,jsons/v1_VE250_randls_9.json,http://54.235.29.9/FacialAge/BNav_EC2/DepthDuration/v2_depth_duration_MTurk/v2_DepthDuration_HTML.html#48,48,1920,969,1920,1080,8-29-2022,9-41-52,21,depth_duration_stimuli/002637_2014-06-24_14-51-13_094959634447_rgbf000066-resize_4/002637_2014-06-24_14-51-13_094959634447_rgbf000066-resize_4-target.png,250,1.9955,6,3015,255,feet,jsons/v1_VE250_randls_9.json,663205,764228,32,Woman
21,961832,DepthScenes,duration_manipulation_targetAtFixation,jsons/v1_VE250_randls_9.json,http://54.235.29.9/FacialAge/BNav_EC2/DepthDuration/v2_depth_duration_MTurk/v2_DepthDuration_HTML.html#48,48,1920,969,1920,1080,8-29-2022,9-41-52,22,depth_duration_stimuli/001167_2014-06-17_15-38-07_260595134347_rgbf000108-resize_0/001167_2014-06-17_15-38-07_260595134347_rgbf000108-resize_0-target.png,250,1.8505,4,3881,251,feet,jsons/v1_VE250_randls_9.json,663205,764228,32,Woman
22,961832,DepthScenes,duration_manipulation_targetAtFixation,jsons/v1_VE250_randls_9.json,http://54.235.29.9/FacialAge/BNav_EC2/DepthDuration/v2_depth_duration_MTurk/v2_DepthDuration_HTML.html#48,48,1920,969,1920,1080,8-29-2022,9-41-52,23,depth_duration_stimuli/003587_2014-05-23_16-48-02_094959634447_rgbf002384-resize_2/003587_2014-05-23_16-48-02_094959634447_rgbf002384-resize_2-target.png,250,1.357,2,2028,237,feet,jsons/v1_VE250_randls_9.json,663205,764228,32,Woman
23,961832,DepthScenes,duration_manipulation_targetAtFixation,jsons/v1_VE250_randls_9.json,http://54.235.29.9/FacialAge/BNav_EC2/DepthDuration/v2_depth_duration_MTurk/v2_DepthDuration_HTML.html#48,48,1920,969,1920,1080,8-29-2022,9-41-52,24,depth_duration_stimuli/000878_2014-06-08_22-52-45_260595134347_rgbf000045-resize_2/000878_2014-06-08_22-52-45_260595134347_rgbf000045-resize_2-target.png,250,2.092,6,2176,251,feet,jsons/v1_VE250_randls_9.json,663205,764228,32,Woman
24,961832,DepthScenes,duration_manipulation_targetAtFixation,jsons/v1_VE250_randls_9.json,http://54.235.29.9/FacialAge/BNav_EC2/DepthDuration/v2_depth_duration_MTurk/v2_DepthDuration_HTML.html#48,48,1920,969,1920,1080,8-29-2022,9-41-52,25,depth_duration_stimuli/002953_2014-06-08_17-32-18_094959634447_rgbf000059-resize_5/002953_2014-06-08_17-32-18_094959634447_rgbf000059-resize_5-target.png,250,1.551,4,2344,253,feet,jsons/v1_VE250_randls_9.json,663205,764228,32,Woman
25,961832,DepthScenes,duration_manipulation_targetAtFixation,jsons/v1_VE250_randls_9.json,http://54.235.29.9/FacialAge/BNav_EC2/DepthDuration/v2_depth_duration_MTurk/v2_DepthDuration_HTML.html#48,48,1920,969,1920,1080,8-29-2022,9-41-52,26,depth_duration_stimuli/001417_2014-06-19_16-25-36_260595134347_rgbf000115-resize_5/001417_2014-06-19_16-25-36_260595134347_rgbf000115-resize_5-target.png,250,4.6255,12,2915,251,feet,jsons/v1_VE250_randls_9.json,663205,764228,32,Woman
26,961832,DepthScenes,duration_manipulation_targetAtFixation,jsons/v1_VE250_randls_9.json,http://54.235.29.9/FacialAge/BNav_EC2/DepthDuration/v2_depth_duration_MTurk/v2_DepthDuration_HTML.html#48,48,1920,969,1920,1080,8-29-2022,9-41-52,27,depth_duration_stimuli/003081_2014-06-15_15-19-16_094959634447_rgbf000150-resize_1/003081_2014-06-15_15-19-16_094959634447_rgbf000150-resize_1-target.png,250,3.9125,12,3628,254,feet,jsons/v1_VE250_randls_9.json,663205,764228,32,Woman
27,961832,DepthScenes,duration_manipulation_targetAtFixation,jsons/v1_VE250_randls_9.json,http://54.235.29.9/FacialAge/BNav_EC2/DepthDuration/v2_depth_duration_MTurk/v2_DepthDuration_HTML.html#48,48,1920,969,1920,1080,8-29-2022,9-41-52,28,depth_duration_stimuli/001092_2014-06-15_17-34-58_260595134347_rgbf000171-resize_3/001092_2014-06-15_17-34-58_260595134347_rgbf000171-resize_3-target.png,250,2.6935,4,4276,239,feet,jsons/v1_VE250_randls_9.json,663205,764228,32,Woman
28,961832,DepthScenes,duration_manipulation_targetAtFixation,jsons/v1_VE250_randls_9.json,http://54.235.29.9/FacialAge/BNav_EC2/DepthDuration/v2_depth_duration_MTurk/v2_DepthDuration_HTML.html#48,48,1920,969,1920,1080,8-29-2022,9-41-52,29,depth_duration_stimuli/002545_2014-06-24_13-38-53_094959634447_rgbf000080-resize_4/002545_2014-06-24_13-38-53_094959634447_rgbf000080-resize_4-target.png,250,1.9205,6,5260,255,feet,jsons/v1_VE250_randls_9.json,663205,764228,32,Woman
29,961832,DepthScenes,duration_manipulation_targetAtFixation,jsons/v1_VE250_randls_9.json,http://54.235.29.9/FacialAge/BNav_EC2/DepthDuration/v2_depth_duration_MTurk/v2_DepthDuration_HTML.html#48,48,1920,969,1920,1080,8-29-2022,9-41-52,30,depth_duration_stimuli/000375_2014-06-08_11-17-29_260595134347_rgbf000133-resize_2/000375_2014-06-08_11-17-29_260595134347_rgbf000133-resize-original.jpg,250,4.718,0,5492,259,feet,jsons/v1_VE250_randls_9.json,663205,764228,32,Woman
30,961832,DepthScenes,duration_manipulation_targetAtFixation,jsons/v1_VE250_randls_9.json,http://54.235.29.9/FacialAge/BNav_EC2/DepthDuration/v2_depth_duration_MTurk/v2_DepthDuration_HTML.html#48,48,1920,969,1920,1080,8-29-2022,9-41-52,31,depth_duration_stimuli/003070_2014-06-15_14-58-27_094959634447_rgbf000150-resize_3/003070_2014-06-15_14-58-27_094959634447_rgbf000150-resize_3-target.png,250,2.9415,6,2413,249,feet,jsons/v1_VE250_randls_9.json,663205,764228,32,Woman
31,961832,DepthScenes,duration_manipulation_targetAtFixation,jsons/v1_VE250_randls_9.json,http://54.235.29.9/FacialAge/BNav_EC2/DepthDuration/v2_depth_duration_MTurk/v2_DepthDuration_HTML.html#48,48,1920,969,1920,1080,8-29-2022,9-41-52,32,depth_duration_stimuli/000943_2014-06-09_19-31-07_260595134347_rgbf000128-resize_1/000943_2014-06-09_19-31-07_260595134347_rgbf000128-resize_1-target.png,250,1.9765,4,2338,255,feet,jsons/v1_VE250_randls_9.json,663205,764228,32,Woman
32,961832,DepthScenes,duration_manipulation_targetAtFixation,jsons/v1_VE250_randls_9.json,http://54.235.29.9/FacialAge/BNav_EC2/DepthDuration/v2_depth_duration_MTurk/v2_DepthDuration_HTML.html#48,48,1920,969,1920,1080,8-29-2022,9-41-52,33,depth_duration_stimuli/001110_2014-06-15_17-25-28_260595134347_rgbf000150-resize_1/001110_2014-06-15_17-25-28_260595134347_rgbf000150-resize_1-target.png,250,1.7115,4,2728,249,feet,jsons/v1_VE250_randls_9.json,663205,764228,32,Woman
33,961832,DepthScenes,duration_manipulation_targetAtFixation,jsons/v1_VE250_randls_9.json,http://54.235.29.9/FacialAge/BNav_EC2/DepthDuration/v2_depth_duration_MTurk/v2_DepthDuration_HTML.html#48,48,1920,969,1920,1080,8-29-2022,9-41-52,34,depth_duration_stimuli/000927_2014-06-09_16-32-30_260595134347_rgbf000123-resize_3/000927_2014-06-09_16-32-30_260595134347_rgbf000123-resize_3-target.png,250,2.6785,6,2552,255,feet,jsons/v1_VE250_randls_9.json,663205,764228,32,Woman
34,961832,DepthScenes,duration_manipulation_targetAtFixation,jsons/v1_VE250_randls_9.json,http://54.235.29.9/FacialAge/BNav_EC2/DepthDuration/v2_depth_duration_MTurk/v2_DepthDuration_HTML.html#48,48,1920,969,1920,1080,8-29-2022,9-41-52,35,depth_duration_stimuli/001244_2014-06-17_16-47-45_260595134347_rgbf000030-resize_4/001244_2014-06-17_16-47-45_260595134347_rgbf000030-resize_4-target.png,250,2.0425,5,2738,251,feet,jsons/v1_VE250_randls_9.json,663205,764228,32,Woman
35,961832,DepthScenes,duration_manipulation_targetAtFixation,jsons/v1_VE250_randls_9.json,http://54.235.29.9/FacialAge/BNav_EC2/DepthDuration/v2_depth_duration_MTurk/v2_DepthDuration_HTML.html#48,48,1920,969,1920,1080,8-29-2022,9-41-52,36,depth_duration_stimuli/003495_2014-05-21_16-01-51_094959634447_rgbf000100-resize_3/003495_2014-05-21_16-01-51_094959634447_rgbf000100-resize_3-target.png,250,1.6255,3,2498,236,feet,jsons/v1_VE250_randls_9.json,663205,764228,32,Woman
36,961832,DepthScenes,duration_manipulation_targetAtFixation,jsons/v1_VE250_randls_9.json,http://54.235.29.9/FacialAge/BNav_EC2/DepthDuration/v2_depth_duration_MTurk/v2_DepthDuration_HTML.html#48,48,1920,969,1920,1080,8-29-2022,9-41-52,37,depth_duration_stimuli/002039_2014-06-24_20-22-38_260595134347_rgbf000084-resize_1/002039_2014-06-24_20-22-38_260595134347_rgbf000084-resize_1-target.png,250,4.408,10,4322,251,feet,jsons/v1_VE250_randls_9.json,663205,764228,32,Woman
37,961832,DepthScenes,duration_manipulation_targetAtFixation,jsons/v1_VE250_randls_9.json,http://54.235.29.9/FacialAge/BNav_EC2/DepthDuration/v2_depth_duration_MTurk/v2_DepthDuration_HTML.html#48,48,1920,969,1920,1080,8-29-2022,9-41-52,38,depth_duration_stimuli/002103_2014-06-25_20-00-40_260595134347_rgbf000049-resize_0/002103_2014-06-25_20-00-40_260595134347_rgbf000049-resize_0-target.png,250,4.105,12,5334,240,feet,jsons/v1_VE250_randls_9.json,663205,764228,32,Woman
38,961832,DepthScenes,duration_manipulation_targetAtFixation,jsons/v1_VE250_randls_9.json,http://54.235.29.9/FacialAge/BNav_EC2/DepthDuration/v2_depth_duration_MTurk/v2_DepthDuration_HTML.html#48,48,1920,969,1920,1080,8-29-2022,9-41-52,39,depth_duration_stimuli/001133_2014-06-17_14-49-16_260595134347_rgbf000100-resize_0/001133_2014-06-17_14-49-16_260595134347_rgbf000100-resize_0-target.png,250,4.2115,9,2926,244,feet,jsons/v1_VE250_randls_9.json,663205,764228,32,Woman
39,961832,DepthScenes,duration_manipulation_targetAtFixation,jsons/v1_VE250_randls_9.json,http://54.235.29.9/FacialAge/BNav_EC2/DepthDuration/v2_depth_duration_MTurk/v2_DepthDuration_HTML.html#48,48,1920,969,1920,1080,8-29-2022,9-41-52,40,depth_duration_stimuli/001132_2014-06-17_14-48-54_260595134347_rgbf000100-resize_2/001132_2014-06-17_14-48-54_260595134347_rgbf000100-resize_2-target.png,250,3.753,12,4240,250,feet,jsons/v1_VE250_randls_9.json,663205,764228,32,Woman
40,961832,DepthScenes,duration_manipulation_targetAtFixation,jsons/v1_VE250_randls_9.json,http://54.235.29.9/FacialAge/BNav_EC2/DepthDuration/v2_depth_duration_MTurk/v2_DepthDuration_HTML.html#48,48,1920,969,1920,1080,8-29-2022,9-41-52,41,depth_duration_stimuli/003621_2014-05-23_18-06-08_094959634447_rgbf000101-resize_1/003621_2014-05-23_18-06-08_094959634447_rgbf000101-resize_1-target.png,250,3.9835,15,4067,238,feet,jsons/v1_VE250_randls_9.json,663205,764228,32,Woman
41,961832,DepthScenes,duration_manipulation_targetAtFixation,jsons/v1_VE250_randls_9.json,http://54.235.29.9/FacialAge/BNav_EC2/DepthDuration/v2_depth_duration_MTurk/v2_DepthDuration_HTML.html#48,48,1920,969,1920,1080,8-29-2022,9-41-52,42,depth_duration_stimuli/001584_2014-06-20_11-07-43_260595134347_rgbf000002-resize_1/001584_2014-06-20_11-07-43_260595134347_rgbf000002-resize_1-target.png,250,3.53,8,3136,254,feet,jsons/v1_VE250_randls_9.json,663205,764228,32,Woman
42,961832,DepthScenes,duration_manipulation_targetAtFixation,jsons/v1_VE250_randls_9.json,http://54.235.29.9/FacialAge/BNav_EC2/DepthDuration/v2_depth_duration_MTurk/v2_DepthDuration_HTML.html#48,48,1920,969,1920,1080,8-29-2022,9-41-52,43,depth_duration_stimuli/001808_2014-06-26_20-50-58_260595134347_rgbf000029-resize_1/001808_2014-06-26_20-50-58_260595134347_rgbf000029-resize_1-target.png,250,4.249,10,4652,237,feet,jsons/v1_VE250_randls_9.json,663205,764228,32,Woman
43,961832,DepthScenes,duration_manipulation_targetAtFixation,jsons/v1_VE250_randls_9.json,http://54.235.29.9/FacialAge/BNav_EC2/DepthDuration/v2_depth_duration_MTurk/v2_DepthDuration_HTML.html#48,48,1920,969,1920,1080,8-29-2022,9-41-52,44,depth_duration_stimuli/001815_2014-06-26_20-52-55_260595134347_rgbf000020-resize_0/001815_2014-06-26_20-52-55_260595134347_rgbf000020-resize_0-target.png,250,3.3865,12,6815,252,feet,jsons/v1_VE250_randls_9.json,663205,764228,32,Woman
44,961832,DepthScenes,duration_manipulation_targetAtFixation,jsons/v1_VE250_randls_9.json,http://54.235.29.9/FacialAge/BNav_EC2/DepthDuration/v2_depth_duration_MTurk/v2_DepthDuration_HTML.html#48,48,1920,969,1920,1080,8-29-2022,9-41-52,45,depth_duration_stimuli/000787_2014-06-08_22-33-53_260595134347_rgbf000175-resize_1/000787_2014-06-08_22-33-53_260595134347_rgbf000175-resize-original.jpg,250,4.784,0,1971,252,feet,jsons/v1_VE250_randls_9.json,663205,764228,32,Woman
45,961832,DepthScenes,duration_manipulation_targetAtFixation,jsons/v1_VE250_randls_9.json,http://54.235.29.9/FacialAge/BNav_EC2/DepthDuration/v2_depth_duration_MTurk/v2_DepthDuration_HTML.html#48,48,1920,969,1920,1080,8-29-2022,9-41-52,46,depth_duration_stimuli/001199_2014-06-17_16-03-48_260595134347_rgbf000077-resize_0/001199_2014-06-17_16-03-48_260595134347_rgbf000077-resize_0-target.png,250,3.4375,12,2981,255,feet,jsons/v1_VE250_randls_9.json,663205,764228,32,Woman
46,961832,DepthScenes,duration_manipulation_targetAtFixation,jsons/v1_VE250_randls_9.json,http://54.235.29.9/FacialAge/BNav_EC2/DepthDuration/v2_depth_duration_MTurk/v2_DepthDuration_HTML.html#48,48,1920,969,1920,1080,8-29-2022,9-41-52,47,depth_duration_stimuli/000502_2014-06-08_23-02-32_260595134347_rgbf000063-resize_4/000502_2014-06-08_23-02-32_260595134347_rgbf000063-resize_4-target.png,250,2.431,8,3307,250,feet,jsons/v1_VE250_randls_9.json,663205,764228,32,Woman
47,961832,DepthScenes,duration_manipulation_targetAtFixation,jsons/v1_VE250_randls_9.json,http://54.235.29.9/FacialAge/BNav_EC2/DepthDuration/v2_depth_duration_MTurk/v2_DepthDuration_HTML.html#48,48,1920,969,1920,1080,8-29-2022,9-41-52,48,depth_duration_stimuli/000788_2014-06-08_22-34-36_260595134347_rgbf000131-resize_1/000788_2014-06-08_22-34-36_260595134347_rgbf000131-resize_1-target.png,250,3.359,7,4123,250,feet,jsons/v1_VE250_randls_9.json,663205,764228,32,Woman
48,961832,DepthScenes,duration_manipulation_targetAtFixation,jsons/v1_VE250_randls_9.json,http://54.235.29.9/FacialAge/BNav_EC2/DepthDuration/v2_depth_duration_MTurk/v2_DepthDuration_HTML.html#48,48,1920,969,1920,1080,8-29-2022,9-41-52,49,depth_duration_stimuli/001235_2014-06-17_16-37-36_260595134347_rgbf000084-resize_4/001235_2014-06-17_16-37-36_260595134347_rgbf000084-resize_4-target.png,250,3.6605,9,2858,247,feet,jsons/v1_VE250_randls_9.json,663205,764228,32,Woman
49,961832,DepthScenes,duration_manipulation_targetAtFixation,jsons/v1_VE250_randls_9.json,http://54.235.29.9/FacialAge/BNav_EC2/DepthDuration/v2_depth_duration_MTurk/v2_DepthDuration_HTML.html#48,48,1920,969,1920,1080,8-29-2022,9-41-52,50,depth_duration_stimuli/000493_2014-06-09_21-01-18_260595134347_rgbf000196-resize_3/000493_2014-06-09_21-01-18_260595134347_rgbf000196-resize_3-target.png,250,3.44,7,2764,253,feet,jsons/v1_VE250_randls_9.json,663205,764228,32,Woman
50,961832,DepthScenes,duration_manipulation_targetAtFixation,jsons/v1_VE250_randls_9.json,http://54.235.29.9/FacialAge/BNav_EC2/DepthDuration/v2_depth_duration_MTurk/v2_DepthDuration_HTML.html#48,48,1920,969,1920,1080,8-29-2022,9-41-52,51,depth_duration_stimuli/000191_2014-05-12_17-07-38_260595134347_rgbf000199-resize_0/000191_2014-05-12_17-07-38_260595134347_rgbf000199-resize_0-target.png,250,3.7995,12,3701,240,feet,jsons/v1_VE250_randls_9.json,663205,764228,32,Woman
51,961832,DepthScenes,duration_manipulation_targetAtFixation,jsons/v1_VE250_randls_9.json,http://54.235.29.9/FacialAge/BNav_EC2/DepthDuration/v2_depth_duration_MTurk/v2_DepthDuration_HTML.html#48,48,1920,969,1920,1080,8-29-2022,9-41-52,52,depth_duration_stimuli/002748_2014-06-22_19-07-22_094959634447_rgbf000078-resize_1/002748_2014-06-22_19-07-22_094959634447_rgbf000078-resize_1-target.png,250,4.6705,18,2745,254,feet,jsons/v1_VE250_randls_9.json,663205,764228,32,Woman
52,961832,DepthScenes,duration_manipulation_targetAtFixation,jsons/v1_VE250_randls_9.json,http://54.235.29.9/FacialAge/BNav_EC2/DepthDuration/v2_depth_duration_MTurk/v2_DepthDuration_HTML.html#48,48,1920,969,1920,1080,8-29-2022,9-41-52,53,depth_duration_stimuli/002995_2014-06-15_12-31-26_094959634447_rgbf000150-resize_1/002995_2014-06-15_12-31-26_094959634447_rgbf000150-resize_1-target.png,250,3.8360000000000003,12,3071,236,feet,jsons/v1_VE250_randls_9.json,663205,764228,32,Woman
53,961832,DepthScenes,duration_manipulation_targetAtFixation,jsons/v1_VE250_randls_9.json,http://54.235.29.9/FacialAge/BNav_EC2/DepthDuration/v2_depth_duration_MTurk/v2_DepthDuration_HTML.html#48,48,1920,969,1920,1080,8-29-2022,9-41-52,54,depth_duration_stimuli/001059_2014-06-08_21-53-27_260595134347_rgbf000061-resize_4/001059_2014-06-08_21-53-27_260595134347_rgbf000061-resize_4-target.png,250,2.4185,8,2323,255,feet,jsons/v1_VE250_randls_9.json,663205,764228,32,Woman
54,961832,DepthScenes,duration_manipulation_targetAtFixation,jsons/v1_VE250_randls_9.json,http://54.235.29.9/FacialAge/BNav_EC2/DepthDuration/v2_depth_duration_MTurk/v2_DepthDuration_HTML.html#48,48,1920,969,1920,1080,8-29-2022,9-41-52,55,depth_duration_stimuli/001032_2014-06-08_13-23-17_260595134347_rgbf000021-resize_3/001032_2014-06-08_13-23-17_260595134347_rgbf000021-resize_3-target.png,250,3.2725,7,3737,240,feet,jsons/v1_VE250_randls_9.json,663205,764228,32,Woman
55,961832,DepthScenes,duration_manipulation_targetAtFixation,jsons/v1_VE250_randls_9.json,http://54.235.29.9/FacialAge/BNav_EC2/DepthDuration/v2_depth_duration_MTurk/v2_DepthDuration_HTML.html#48,48,1920,969,1920,1080,8-29-2022,9-41-52,56,depth_duration_stimuli/002600_2014-06-24_14-27-04_094959634447_rgbf000074-resize_2/002600_2014-06-24_14-27-04_094959634447_rgbf000074-resize_2-target.png,250,2.7575,8,2681,256,feet,jsons/v1_VE250_randls_9.json,663205,764228,32,Woman
56,961832,DepthScenes,duration_manipulation_targetAtFixation,jsons/v1_VE250_randls_9.json,http://54.235.29.9/FacialAge/BNav_EC2/DepthDuration/v2_depth_duration_MTurk/v2_DepthDuration_HTML.html#48,48,1920,969,1920,1080,8-29-2022,9-41-52,57,depth_duration_stimuli/003228_2014-05-14_13-42-35_094959634447_rgbf000101-resize_1/003228_2014-05-14_13-42-35_094959634447_rgbf000101-resize_1-target.png,250,1.9680000000000002,5,2750,251,feet,jsons/v1_VE250_randls_9.json,663205,764228,32,Woman
57,961832,DepthScenes,duration_manipulation_targetAtFixation,jsons/v1_VE250_randls_9.json,http://54.235.29.9/FacialAge/BNav_EC2/DepthDuration/v2_depth_duration_MTurk/v2_DepthDuration_HTML.html#48,48,1920,969,1920,1080,8-29-2022,9-41-52,58,depth_duration_stimuli/001150_2014-06-17_15-27-34_260595134347_rgbf000108-resize_2/001150_2014-06-17_15-27-34_260595134347_rgbf000108-resize_2-target.png,250,4.0325,9,4765,241,feet,jsons/v1_VE250_randls_9.json,663205,764228,32,Woman
58,961832,DepthScenes,duration_manipulation_targetAtFixation,jsons/v1_VE250_randls_9.json,http://54.235.29.9/FacialAge/BNav_EC2/DepthDuration/v2_depth_duration_MTurk/v2_DepthDuration_HTML.html#48,48,1920,969,1920,1080,8-29-2022,9-41-52,59,depth_duration_stimuli/000665_2014-06-09_20-42-35_260595134347_rgbf000110-resize_1/000665_2014-06-09_20-42-35_260595134347_rgbf000110-resize_1-target.png,250,3.057,8,3083,254,feet,jsons/v1_VE250_randls_9.json,663205,764228,32,Woman
59,961832,DepthScenes,duration_manipulation_targetAtFixation,jsons/v1_VE250_randls_9.json,http://54.235.29.9/FacialAge/BNav_EC2/DepthDuration/v2_depth_duration_MTurk/v2_DepthDuration_HTML.html#48,48,1920,969,1920,1080,8-29-2022,9-41-52,60,depth_duration_stimuli/002445_2014-06-28_20-32-16_260595134347_rgbf000029-resize_4/002445_2014-06-28_20-32-16_260595134347_rgbf000029-resize_4-target.png,250,2.5315,10,2733,249,feet,jsons/v1_VE250_randls_9.json,663205,764228,32,Woman
60,961832,DepthScenes,duration_manipulation_targetAtFixation,jsons/v1_VE250_randls_9.json,http://54.235.29.9/FacialAge/BNav_EC2/DepthDuration/v2_depth_duration_MTurk/v2_DepthDuration_HTML.html#48,48,1920,969,1920,1080,8-29-2022,9-41-52,61,depth_duration_stimuli/000780_2014-06-08_22-28-29_260595134347_rgbf000126-resize_1/000780_2014-06-08_22-28-29_260595134347_rgbf000126-resize_1-target.png,250,3.3825,12,3084,255,feet,jsons/v1_VE250_randls_9.json,663205,764228,32,Woman
61,961832,DepthScenes,duration_manipulation_targetAtFixation,jsons/v1_VE250_randls_9.json,http://54.235.29.9/FacialAge/BNav_EC2/DepthDuration/v2_depth_duration_MTurk/v2_DepthDuration_HTML.html#48,48,1920,969,1920,1080,8-29-2022,9-41-52,62,depth_duration_stimuli/001164_2014-06-17_15-35-46_260595134347_rgbf000085-resize_3/001164_2014-06-17_15-35-46_260595134347_rgbf000085-resize_3-target.png,250,2.354,7,3476,236,feet,jsons/v1_VE250_randls_9.json,663205,764228,32,Woman
62,961832,DepthScenes,duration_manipulation_targetAtFixation,jsons/v1_VE250_randls_9.json,http://54.235.29.9/FacialAge/BNav_EC2/DepthDuration/v2_depth_duration_MTurk/v2_DepthDuration_HTML.html#48,48,1920,969,1920,1080,8-29-2022,9-41-52,63,depth_duration_stimuli/001136_2014-06-17_15-19-41_260595134347_rgbf000076-resize_3/001136_2014-06-17_15-19-41_260595134347_rgbf000076-resize_3-target.png,250,1.8655,9,3173,239,feet,jsons/v1_VE250_randls_9.json,663205,764228,32,Woman
63,961832,DepthScenes,duration_manipulation_targetAtFixation,jsons/v1_VE250_randls_9.json,http://54.235.29.9/FacialAge/BNav_EC2/DepthDuration/v2_depth_duration_MTurk/v2_DepthDuration_HTML.html#48,48,1920,969,1920,1080,8-29-2022,9-41-52,64,depth_duration_stimuli/002375_2014-06-28_20-13-44_260595134347_rgbf000032-resize_1/002375_2014-06-28_20-13-44_260595134347_rgbf000032-resize_1-target.png,250,4.0175,8,4296,255,feet,jsons/v1_VE250_randls_9.json,663205,764228,32,Woman
64,961832,DepthScenes,duration_manipulation_targetAtFixation,jsons/v1_VE250_randls_9.json,http://54.235.29.9/FacialAge/BNav_EC2/DepthDuration/v2_depth_duration_MTurk/v2_DepthDuration_HTML.html#48,48,1920,969,1920,1080,8-29-2022,9-41-52,65,depth_duration_stimuli/002657_2014-06-13_15-29-54_094959634447_rgbf000150-resize_1/002657_2014-06-13_15-29-54_094959634447_rgbf000150-resize_1-target.png,250,4.919,12,3081,254,feet,jsons/v1_VE250_randls_9.json,663205,764228,32,Woman
65,961832,DepthScenes,duration_manipulation_targetAtFixation,jsons/v1_VE250_randls_9.json,http://54.235.29.9/FacialAge/BNav_EC2/DepthDuration/v2_depth_duration_MTurk/v2_DepthDuration_HTML.html#48,48,1920,969,1920,1080,8-29-2022,9-41-52,66,depth_duration_stimuli/001222_2014-06-17_16-24-06_260595134347_rgbf000073-resize_0/001222_2014-06-17_16-24-06_260595134347_rgbf000073-resize-original.jpg,250,1.4385,0,2517,254,feet,jsons/v1_VE250_randls_9.json,663205,764228,32,Woman
66,961832,DepthScenes,duration_manipulation_targetAtFixation,jsons/v1_VE250_randls_9.json,http://54.235.29.9/FacialAge/BNav_EC2/DepthDuration/v2_depth_duration_MTurk/v2_DepthDuration_HTML.html#48,48,1920,969,1920,1080,8-29-2022,9-41-52,67,depth_duration_stimuli/000692_2014-06-08_13-09-42_260595134347_rgbf000199-resize_2/000692_2014-06-08_13-09-42_260595134347_rgbf000199-resize_2-target.png,250,3.661,20,6029,253,feet,jsons/v1_VE250_randls_9.json,663205,764228,32,Woman
67,961832,DepthScenes,duration_manipulation_targetAtFixation,jsons/v1_VE250_randls_9.json,http://54.235.29.9/FacialAge/BNav_EC2/DepthDuration/v2_depth_duration_MTurk/v2_DepthDuration_HTML.html#48,48,1920,969,1920,1080,8-29-2022,9-41-52,68,depth_duration_stimuli/001094_2014-06-15_17-36-00_260595134347_rgbf000205-resize_0/001094_2014-06-15_17-36-00_260595134347_rgbf000205-resize_0-target.png,250,4.2175,12,3195,238,feet,jsons/v1_VE250_randls_9.json,663205,764228,32,Woman
68,961832,DepthScenes,duration_manipulation_targetAtFixation,jsons/v1_VE250_randls_9.json,http://54.235.29.9/FacialAge/BNav_EC2/DepthDuration/v2_depth_duration_MTurk/v2_DepthDuration_HTML.html#48,48,1920,969,1920,1080,8-29-2022,9-41-52,69,depth_duration_stimuli/000486_2014-06-09_20-47-20_260595134347_rgbf000143-resize_2/000486_2014-06-09_20-47-20_260595134347_rgbf000143-resize_2-target.png,250,4.8325,15,3038,255,feet,jsons/v1_VE250_randls_9.json,663205,764228,32,Woman
69,961832,DepthScenes,duration_manipulation_targetAtFixation,jsons/v1_VE250_randls_9.json,http://54.235.29.9/FacialAge/BNav_EC2/DepthDuration/v2_depth_duration_MTurk/v2_DepthDuration_HTML.html#48,48,1920,969,1920,1080,8-29-2022,9-41-52,70,depth_duration_stimuli/003083_2014-06-15_15-21-03_094959634447_rgbf000063-resize_1/003083_2014-06-15_15-21-03_094959634447_rgbf000063-resize_1-target.png,250,4.1405,15,4396,238,feet,jsons/v1_VE250_randls_9.json,663205,764228,32,Woman
70,961832,DepthScenes,duration_manipulation_targetAtFixation,jsons/v1_VE250_randls_9.json,http://54.235.29.9/FacialAge/BNav_EC2/DepthDuration/v2_depth_duration_MTurk/v2_DepthDuration_HTML.html#48,48,1920,969,1920,1080,8-29-2022,9-41-52,71,depth_duration_stimuli/000522_2014-06-08_13-35-06_260595134347_rgbf000244-resize_1/000522_2014-06-08_13-35-06_260595134347_rgbf000244-resize_1-target.png,250,2.3715,3,2726,236,feet,jsons/v1_VE250_randls_9.json,663205,764228,32,Woman
71,961832,DepthScenes,duration_manipulation_targetAtFixation,jsons/v1_VE250_randls_9.json,http://54.235.29.9/FacialAge/BNav_EC2/DepthDuration/v2_depth_duration_MTurk/v2_DepthDuration_HTML.html#48,48,1920,969,1920,1080,8-29-2022,9-41-52,72,depth_duration_stimuli/002949_2014-06-26_15-57-42_094959634447_rgbf000079-resize_1/002949_2014-06-26_15-57-42_094959634447_rgbf000079-resize_1-target.png,250,1.8915,3,2512,238,feet,jsons/v1_VE250_randls_9.json,663205,764228,32,Woman
72,961832,DepthScenes,duration_manipulation_targetAtFixation,jsons/v1_VE250_randls_9.json,http://54.235.29.9/FacialAge/BNav_EC2/DepthDuration/v2_depth_duration_MTurk/v2_DepthDuration_HTML.html#48,48,1920,969,1920,1080,8-29-2022,9-41-52,73,depth_duration_stimuli/003492_2014-05-21_15-50-55_094959634447_rgbf000828-resize_1/003492_2014-05-21_15-50-55_094959634447_rgbf000828-resize_1-target.png,250,4.06875,15,3436,251,feet,jsons/v1_VE250_randls_9.json,663205,764228,32,Woman
73,961832,DepthScenes,duration_manipulation_targetAtFixation,jsons/v1_VE250_randls_9.json,http://54.235.29.9/FacialAge/BNav_EC2/DepthDuration/v2_depth_duration_MTurk/v2_DepthDuration_HTML.html#48,48,1920,969,1920,1080,8-29-2022,9-41-52,74,depth_duration_stimuli/002568_2014-06-24_13-59-21_094959634447_rgbf000062-resize_4/002568_2014-06-24_13-59-21_094959634447_rgbf000062-resize_4-target.png,250,3.015,8,2973,252,feet,jsons/v1_VE250_randls_9.json,663205,764228,32,Woman
74,961832,DepthScenes,duration_manipulation_targetAtFixation,jsons/v1_VE250_randls_9.json,http://54.235.29.9/FacialAge/BNav_EC2/DepthDuration/v2_depth_duration_MTurk/v2_DepthDuration_HTML.html#48,48,1920,969,1920,1080,8-29-2022,9-41-52,75,depth_duration_stimuli/001029_2014-06-08_13-17-57_260595134347_rgbf000065-resize_1/001029_2014-06-08_13-17-57_260595134347_rgbf000065-resize_1-target.png,250,3.0835,10,3727,258,feet,jsons/v1_VE250_randls_9.json,663205,764228,32,Woman
75,961832,DepthScenes,duration_manipulation_targetAtFixation,jsons/v1_VE250_randls_9.json,http://54.235.29.9/FacialAge/BNav_EC2/DepthDuration/v2_depth_duration_MTurk/v2_DepthDuration_HTML.html#48,48,1920,969,1920,1080,8-29-2022,9-41-52,76,depth_duration_stimuli/000677_2014-06-08_23-10-32_260595134347_rgbf000158-resize_6/000677_2014-06-08_23-10-32_260595134347_rgbf000158-resize_6-target.png,250,3.556,8,3597,249,feet,jsons/v1_VE250_randls_9.json,663205,764228,32,Woman
76,961832,DepthScenes,duration_manipulation_targetAtFixation,jsons/v1_VE250_randls_9.json,http://54.235.29.9/FacialAge/BNav_EC2/DepthDuration/v2_depth_duration_MTurk/v2_DepthDuration_HTML.html#48,48,1920,969,1920,1080,8-29-2022,9-41-52,77,depth_duration_stimuli/002788_2014-06-22_19-36-03_094959634447_rgbf000088-resize_2/002788_2014-06-22_19-36-03_094959634447_rgbf000088-resize_2-target.png,250,1.6465,7,2902,244,feet,jsons/v1_VE250_randls_9.json,663205,764228,32,Woman
77,961832,DepthScenes,duration_manipulation_targetAtFixation,jsons/v1_VE250_randls_9.json,http://54.235.29.9/FacialAge/BNav_EC2/DepthDuration/v2_depth_duration_MTurk/v2_DepthDuration_HTML.html#48,48,1920,969,1920,1080,8-29-2022,9-41-52,78,depth_duration_stimuli/000749_2014-06-08_21-55-06_260595134347_rgbf000070-resize_2/000749_2014-06-08_21-55-06_260595134347_rgbf000070-resize_2-target.png,250,2.331,10,9187,240,feet,jsons/v1_VE250_randls_9.json,663205,764228,32,Woman
78,961832,DepthScenes,duration_manipulation_targetAtFixation,jsons/v1_VE250_randls_9.json,http://54.235.29.9/FacialAge/BNav_EC2/DepthDuration/v2_depth_duration_MTurk/v2_DepthDuration_HTML.html#48,48,1920,969,1920,1080,8-29-2022,9-41-52,79,depth_duration_stimuli/002272_2014-06-28_18-53-56_260595134347_rgbf000067-resize_2/002272_2014-06-28_18-53-56_260595134347_rgbf000067-resize_2-target.png,250,1.138,4,3004,258,feet,jsons/v1_VE250_randls_9.json,663205,764228,32,Woman
79,961832,DepthScenes,duration_manipulation_targetAtFixation,jsons/v1_VE250_randls_9.json,http://54.235.29.9/FacialAge/BNav_EC2/DepthDuration/v2_depth_duration_MTurk/v2_DepthDuration_HTML.html#48,48,1920,969,1920,1080,8-29-2022,9-41-52,80,depth_duration_stimuli/001571_2014-06-20_17-21-32_260595134347_rgbf000089-resize_1/001571_2014-06-20_17-21-32_260595134347_rgbf000089-resize_1-target.png,250,1.86,6,2199,255,feet,jsons/v1_VE250_randls_9.json,663205,764228,32,Woman
80,961832,DepthScenes,duration_manipulation_targetAtFixation,jsons/v1_VE250_randls_9.json,http://54.235.29.9/FacialAge/BNav_EC2/DepthDuration/v2_depth_duration_MTurk/v2_DepthDuration_HTML.html#48,48,1920,969,1920,1080,8-29-2022,9-41-52,81,depth_duration_stimuli/001055_2014-06-08_18-45-35_260595134347_rgbf000111-resize_4/001055_2014-06-08_18-45-35_260595134347_rgbf000111-resize_4-target.png,250,2.4290000000000003,8,3162,243,feet,jsons/v1_VE250_randls_9.json,663205,764228,32,Woman
81,961832,DepthScenes,duration_manipulation_targetAtFixation,jsons/v1_VE250_randls_9.json,http://54.235.29.9/FacialAge/BNav_EC2/DepthDuration/v2_depth_duration_MTurk/v2_DepthDuration_HTML.html#48,48,1920,969,1920,1080,8-29-2022,9-41-52,82,depth_duration_stimuli/000549_2014-06-08_22-10-24_260595134347_rgbf000247-resize_3/000549_2014-06-08_22-10-24_260595134347_rgbf000247-resize_3-target.png,250,1.841,4,2566,256,feet,jsons/v1_VE250_randls_9.json,663205,764228,32,Woman
82,961832,DepthScenes,duration_manipulation_targetAtFixation,jsons/v1_VE250_randls_9.json,http://54.235.29.9/FacialAge/BNav_EC2/DepthDuration/v2_depth_duration_MTurk/v2_DepthDuration_HTML.html#48,48,1920,969,1920,1080,8-29-2022,9-41-52,83,depth_duration_stimuli/002784_2014-06-22_19-26-30_094959634447_rgbf000083-resize_3/002784_2014-06-22_19-26-30_094959634447_rgbf000083-resize_3-target.png,250,1.8046666666667,5,5951,250,feet,jsons/v1_VE250_randls_9.json,663205,764228,32,Woman
83,961832,DepthScenes,duration_manipulation_targetAtFixation,jsons/v1_VE250_randls_9.json,http://54.235.29.9/FacialAge/BNav_EC2/DepthDuration/v2_depth_duration_MTurk/v2_DepthDuration_HTML.html#48,48,1920,969,1920,1080,8-29-2022,9-41-52,84,depth_duration_stimuli/001100_2014-06-15_17-46-26_260595134347_rgbf000225-resize_2/001100_2014-06-15_17-46-26_260595134347_rgbf000225-resize_2-target.png,250,2.24,4,1924,248,feet,jsons/v1_VE250_randls_9.json,663205,764228,32,Woman
84,961832,DepthScenes,duration_manipulation_targetAtFixation,jsons/v1_VE250_randls_9.json,http://54.235.29.9/FacialAge/BNav_EC2/DepthDuration/v2_depth_duration_MTurk/v2_DepthDuration_HTML.html#48,48,1920,969,1920,1080,8-29-2022,9-41-52,85,depth_duration_stimuli/001016_2014-06-09_16-16-10_260595134347_rgbf000112-resize_5/001016_2014-06-09_16-16-10_260595134347_rgbf000112-resize_5-target.png,250,1.6565,6,2544,255,feet,jsons/v1_VE250_randls_9.json,663205,764228,32,Woman
85,961832,DepthScenes,duration_manipulation_targetAtFixation,jsons/v1_VE250_randls_9.json,http://54.235.29.9/FacialAge/BNav_EC2/DepthDuration/v2_depth_duration_MTurk/v2_DepthDuration_HTML.html#48,48,1920,969,1920,1080,8-29-2022,9-41-52,86,depth_duration_stimuli/002340_2014-06-28_20-05-46_260595134347_rgbf000113-resize_0/002340_2014-06-28_20-05-46_260595134347_rgbf000113-resize_0-target.png,250,2.4735,9,4422,253,feet,jsons/v1_VE250_randls_9.json,663205,764228,32,Woman
86,961832,DepthScenes,duration_manipulation_targetAtFixation,jsons/v1_VE250_randls_9.json,http://54.235.29.9/FacialAge/BNav_EC2/DepthDuration/v2_depth_duration_MTurk/v2_DepthDuration_HTML.html#48,48,1920,969,1920,1080,8-29-2022,9-41-52,87,depth_duration_stimuli/002043_2014-06-24_20-29-38_260595134347_rgbf000039-resize_4/002043_2014-06-24_20-29-38_260595134347_rgbf000039-resize_4-target.png,250,2.8435,5,4312,255,feet,jsons/v1_VE250_randls_9.json,663205,764228,32,Woman
87,961832,DepthScenes,duration_manipulation_targetAtFixation,jsons/v1_VE250_randls_9.json,http://54.235.29.9/FacialAge/BNav_EC2/DepthDuration/v2_depth_duration_MTurk/v2_DepthDuration_HTML.html#48,48,1920,969,1920,1080,8-29-2022,9-41-52,88,depth_duration_stimuli/003048_2014-06-15_13-49-43_094959634447_rgbf000150-resize_1/003048_2014-06-15_13-49-43_094959634447_rgbf000150-resize_1-target.png,250,4.0035,13,3988,249,feet,jsons/v1_VE250_randls_9.json,663205,764228,32,Woman
88,961832,DepthScenes,duration_manipulation_targetAtFixation,jsons/v1_VE250_randls_9.json,http://54.235.29.9/FacialAge/BNav_EC2/DepthDuration/v2_depth_duration_MTurk/v2_DepthDuration_HTML.html#48,48,1920,969,1920,1080,8-29-2022,9-41-52,89,depth_duration_stimuli/002570_2014-06-24_13-59-54_094959634447_rgbf000059-resize_0/002570_2014-06-24_13-59-54_094959634447_rgbf000059-resize_0-target.png,250,4.037,10,3576,250,feet,jsons/v1_VE250_randls_9.json,663205,764228,32,Woman
89,961832,DepthScenes,duration_manipulation_targetAtFixation,jsons/v1_VE250_randls_9.json,http://54.235.29.9/FacialAge/BNav_EC2/DepthDuration/v2_depth_duration_MTurk/v2_DepthDuration_HTML.html#48,48,1920,969,1920,1080,8-29-2022,9-41-52,90,depth_duration_stimuli/002467_2014-06-28_20-38-07_260595134347_rgbf000026-resize_2/002467_2014-06-28_20-38-07_260595134347_rgbf000026-resize_2-target.png,250,4.742,15,5230,248,feet,jsons/v1_VE250_randls_9.json,663205,764228,32,Woman
90,961832,DepthScenes,duration_manipulation_targetAtFixation,jsons/v1_VE250_randls_9.json,http://54.235.29.9/FacialAge/BNav_EC2/DepthDuration/v2_depth_duration_MTurk/v2_DepthDuration_HTML.html#48,48,1920,969,1920,1080,8-29-2022,9-41-52,91,depth_duration_stimuli/000736_2014-06-08_18-24-15_260595134347_rgbf000206-resize_3/000736_2014-06-08_18-24-15_260595134347_rgbf000206-resize_3-target.png,250,3.515,7,4207,250,feet,jsons/v1_VE250_randls_9.json,663205,764228,32,Woman
91,961832,DepthScenes,duration_manipulation_targetAtFixation,jsons/v1_VE250_randls_9.json,http://54.235.29.9/FacialAge/BNav_EC2/DepthDuration/v2_depth_duration_MTurk/v2_DepthDuration_HTML.html#48,48,1920,969,1920,1080,8-29-2022,9-41-52,92,depth_duration_stimuli/000137_2014-05-20_17-04-49_260595134347_rgbf000120-resize_1/000137_2014-05-20_17-04-49_260595134347_rgbf000120-resize_1-target.png,250,3.786,8,3373,239,feet,jsons/v1_VE250_randls_9.json,663205,764228,32,Woman
92,961832,DepthScenes,duration_manipulation_targetAtFixation,jsons/v1_VE250_randls_9.json,http://54.235.29.9/FacialAge/BNav_EC2/DepthDuration/v2_depth_duration_MTurk/v2_DepthDuration_HTML.html#48,48,1920,969,1920,1080,8-29-2022,9-41-52,93,depth_duration_stimuli/001806_2014-06-26_20-50-20_260595134347_rgbf000091-resize_1/001806_2014-06-26_20-50-20_260595134347_rgbf000091-resize_1-target.png,250,2.7305,10,3608,237,feet,jsons/v1_VE250_randls_9.json,663205,764228,32,Woman
93,961832,DepthScenes,duration_manipulation_targetAtFixation,jsons/v1_VE250_randls_9.json,http://54.235.29.9/FacialAge/BNav_EC2/DepthDuration/v2_depth_duration_MTurk/v2_DepthDuration_HTML.html#48,48,1920,969,1920,1080,8-29-2022,9-41-52,94,depth_duration_stimuli/001617_2014-06-20_11-35-32_260595134347_rgbf000066-resize_1/001617_2014-06-20_11-35-32_260595134347_rgbf000066-resize_1-target.png,250,3.7910000000000004,12,2115,255,feet,jsons/v1_VE250_randls_9.json,663205,764228,32,Woman
94,961832,DepthScenes,duration_manipulation_targetAtFixation,jsons/v1_VE250_randls_9.json,http://54.235.29.9/FacialAge/BNav_EC2/DepthDuration/v2_depth_duration_MTurk/v2_DepthDuration_HTML.html#48,48,1920,969,1920,1080,8-29-2022,9-41-52,95,depth_duration_stimuli/001810_2014-06-26_20-51-35_260595134347_rgbf000040-resize_3/001810_2014-06-26_20-51-35_260595134347_rgbf000040-resize_3-target.png,250,2.2525,6,3431,249,feet,jsons/v1_VE250_randls_9.json,663205,764228,32,Woman
95,961832,DepthScenes,duration_manipulation_targetAtFixation,jsons/v1_VE250_randls_9.json,http://54.235.29.9/FacialAge/BNav_EC2/DepthDuration/v2_depth_duration_MTurk/v2_DepthDuration_HTML.html#48,48,1920,969,1920,1080,8-29-2022,9-41-52,96,depth_duration_stimuli/003010_2014-06-15_12-54-35_094959634447_rgbf000112-resize_0/003010_2014-06-15_12-54-35_094959634447_rgbf000112-resize_0-target.png,250,3.1185,15,3593,237,feet,jsons/v1_VE250_randls_9.json,663205,764228,32,Woman
96,961832,DepthScenes,duration_manipulation_targetAtFixation,jsons/v1_VE250_randls_9.json,http://54.235.29.9/FacialAge/BNav_EC2/DepthDuration/v2_depth_duration_MTurk/v2_DepthDuration_HTML.html#48,48,1920,969,1920,1080,8-29-2022,9-41-52,97,depth_duration_stimuli/000009_2014-05-26_14-32-05_260595134347_rgbf000034-resize_3/000009_2014-05-26_14-32-05_260595134347_rgbf000034-resize_3-target.png,250,3.8715,18,4037,242,feet,jsons/v1_VE250_randls_9.json,663205,764228,32,Woman
97,961832,DepthScenes,duration_manipulation_targetAtFixation,jsons/v1_VE250_randls_9.json,http://54.235.29.9/FacialAge/BNav_EC2/DepthDuration/v2_depth_duration_MTurk/v2_DepthDuration_HTML.html#48,48,1920,969,1920,1080,8-29-2022,9-41-52,98,depth_duration_stimuli/001828_2014-06-26_21-40-03_260595134347_rgbf000024-resize_0/001828_2014-06-26_21-40-03_260595134347_rgbf000024-resize_0-target.png,250,4.8260000000000005,15,3566,259,feet,jsons/v1_VE250_randls_9.json,663205,764228,32,Woman
98,961832,DepthScenes,duration_manipulation_targetAtFixation,jsons/v1_VE250_randls_9.json,http://54.235.29.9/FacialAge/BNav_EC2/DepthDuration/v2_depth_duration_MTurk/v2_DepthDuration_HTML.html#48,48,1920,969,1920,1080,8-29-2022,9-41-52,99,depth_duration_stimuli/001540_2014-06-20_17-01-05_260595134347_rgbf000086-resize_2/001540_2014-06-20_17-01-05_260595134347_rgbf000086-resize-original.jpg,250,1.459,0,1964,237,feet,jsons/v1_VE250_randls_9.json,663205,764228,32,Woman
99,961832,DepthScenes,duration_manipulation_targetAtFixation,jsons/v1_VE250_randls_9.json,http://54.235.29.9/FacialAge/BNav_EC2/DepthDuration/v2_depth_duration_MTurk/v2_DepthDuration_HTML.html#48,48,1920,969,1920,1080,8-29-2022,9-41-52,100,depth_duration_stimuli/000917_2014-06-09_22-45-29_260595134347_rgbf000149-resize_3/000917_2014-06-09_22-45-29_260595134347_rgbf000149-resize_3-target.png,250,4.1865,12,4260,248,feet,jsons/v1_VE250_randls_9.json,663205,764228,32,Woman
100,961832,DepthScenes,duration_manipulation_targetAtFixation,jsons/v1_VE250_randls_9.json,http://54.235.29.9/FacialAge/BNav_EC2/DepthDuration/v2_depth_duration_MTurk/v2_DepthDuration_HTML.html#48,48,1920,969,1920,1080,8-29-2022,9-41-52,101,depth_duration_stimuli/002323_2014-06-28_20-01-54_260595134347_rgbf000051-resize_4/002323_2014-06-28_20-01-54_260595134347_rgbf000051-resize_4-target.png,250,3.7310000000000003,20,4467,249,feet,jsons/v1_VE250_randls_9.json,663205,764228,32,Woman
101,961832,DepthScenes,duration_manipulation_targetAtFixation,jsons/v1_VE250_randls_9.json,http://54.235.29.9/FacialAge/BNav_EC2/DepthDuration/v2_depth_duration_MTurk/v2_DepthDuration_HTML.html#48,48,1920,969,1920,1080,8-29-2022,9-41-52,102,depth_duration_stimuli/002509_2014-06-24_13-19-22_094959634447_rgbf000077-resize_0/002509_2014-06-24_13-19-22_094959634447_rgbf000077-resize_0-target.png,250,1.3065,5,2449,256,feet,jsons/v1_VE250_randls_9.json,663205,764228,32,Woman
102,961832,DepthScenes,duration_manipulation_targetAtFixation,jsons/v1_VE250_randls_9.json,http://54.235.29.9/FacialAge/BNav_EC2/DepthDuration/v2_depth_duration_MTurk/v2_DepthDuration_HTML.html#48,48,1920,969,1920,1080,8-29-2022,9-41-52,103,depth_duration_stimuli/003338_2014-05-20_11-01-23_094959634447_rgbf000051-resize_6/003338_2014-05-20_11-01-23_094959634447_rgbf000051-resize_6-target.png,250,1.693,5,2325,251,feet,jsons/v1_VE250_randls_9.json,663205,764228,32,Woman
103,961832,DepthScenes,duration_manipulation_targetAtFixation,jsons/v1_VE250_randls_9.json,http://54.235.29.9/FacialAge/BNav_EC2/DepthDuration/v2_depth_duration_MTurk/v2_DepthDuration_HTML.html#48,48,1920,969,1920,1080,8-29-2022,9-41-52,104,depth_duration_stimuli/002988_2014-06-15_12-24-20_094959634447_rgbf000150-resize_1/002988_2014-06-15_12-24-20_094959634447_rgbf000150-resize_1-target.png,250,4.7669999999999995,15,4445,249,feet,jsons/v1_VE250_randls_9.json,663205,764228,32,Woman
104,961832,DepthScenes,duration_manipulation_targetAtFixation,jsons/v1_VE250_randls_9.json,http://54.235.29.9/FacialAge/BNav_EC2/DepthDuration/v2_depth_duration_MTurk/v2_DepthDuration_HTML.html#48,48,1920,969,1920,1080,8-29-2022,9-41-52,105,depth_duration_stimuli/001052_2014-06-08_18-24-54_260595134347_rgbf000130-resize_1/001052_2014-06-08_18-24-54_260595134347_rgbf000130-resize_1-target.png,250,4.1045,5,12768,253,feet,jsons/v1_VE250_randls_9.json,663205,764228,32,Woman
105,961832,DepthScenes,duration_manipulation_targetAtFixation,jsons/v1_VE250_randls_9.json,http://54.235.29.9/FacialAge/BNav_EC2/DepthDuration/v2_depth_duration_MTurk/v2_DepthDuration_HTML.html#48,48,1920,969,1920,1080,8-29-2022,9-41-52,106,depth_duration_stimuli/001555_2014-06-20_17-12-10_260595134347_rgbf000065-resize_4/001555_2014-06-20_17-12-10_260595134347_rgbf000065-resize_4-target.png,250,1.633,4,3211,253,feet,jsons/v1_VE250_randls_9.json,663205,764228,32,Woman
106,961832,DepthScenes,duration_manipulation_targetAtFixation,jsons/v1_VE250_randls_9.json,http://54.235.29.9/FacialAge/BNav_EC2/DepthDuration/v2_depth_duration_MTurk/v2_DepthDuration_HTML.html#48,48,1920,969,1920,1080,8-29-2022,9-41-52,107,depth_duration_stimuli/000103_2014-05-14_22-01-17_260595134347_rgbf000152-resize_5/000103_2014-05-14_22-01-17_260595134347_rgbf000152-resize_5-target.png,250,1.993,0,4836,247,feet,jsons/v1_VE250_randls_9.json,663205,764228,32,Woman
107,961832,DepthScenes,duration_manipulation_targetAtFixation,jsons/v1_VE250_randls_9.json,http://54.235.29.9/FacialAge/BNav_EC2/DepthDuration/v2_depth_duration_MTurk/v2_DepthDuration_HTML.html#48,48,1920,969,1920,1080,8-29-2022,9-41-52,108,depth_duration_stimuli/000929_2014-06-09_16-33-19_260595134347_rgbf000139-resize_0/000929_2014-06-09_16-33-19_260595134347_rgbf000139-resize_0-target.png,250,2.8680000000000003,7,3147,250,feet,jsons/v1_VE250_randls_9.json,663205,764228,32,Woman
108,961832,DepthScenes,duration_manipulation_targetAtFixation,jsons/v1_VE250_randls_9.json,http://54.235.29.9/FacialAge/BNav_EC2/DepthDuration/v2_depth_duration_MTurk/v2_DepthDuration_HTML.html#48,48,1920,969,1920,1080,8-29-2022,9-41-52,109,depth_duration_stimuli/000457_2014-06-08_16-52-43_260595134347_rgbf000199-resize_1/000457_2014-06-08_16-52-43_260595134347_rgbf000199-resize_1-target.png,250,3.6489999999999996,12,2580,249,feet,jsons/v1_VE250_randls_9.json,663205,764228,32,Woman
109,961832,DepthScenes,duration_manipulation_targetAtFixation,jsons/v1_VE250_randls_9.json,http://54.235.29.9/FacialAge/BNav_EC2/DepthDuration/v2_depth_duration_MTurk/v2_DepthDuration_HTML.html#48,48,1920,969,1920,1080,8-29-2022,9-41-52,110,depth_duration_stimuli/002213_2014-06-28_18-37-58_260595134347_rgbf000055-resize_1/002213_2014-06-28_18-37-58_260595134347_rgbf000055-resize_1-target.png,250,3.62,14,3486,253,feet,jsons/v1_VE250_randls_9.json,663205,764228,32,Woman
110,961832,DepthScenes,duration_manipulation_targetAtFixation,jsons/v1_VE250_randls_9.json,http://54.235.29.9/FacialAge/BNav_EC2/DepthDuration/v2_depth_duration_MTurk/v2_DepthDuration_HTML.html#48,48,1920,969,1920,1080,8-29-2022,9-41-52,111,depth_duration_stimuli/000691_2014-06-08_13-08-50_260595134347_rgbf000132-resize_3/000691_2014-06-08_13-08-50_260595134347_rgbf000132-resize_3-target.png,250,4.1530000000000005,15,2959,263,feet,jsons/v1_VE250_randls_9.json,663205,764228,32,Woman
111,961832,DepthScenes,duration_manipulation_targetAtFixation,jsons/v1_VE250_randls_9.json,http://54.235.29.9/FacialAge/BNav_EC2/DepthDuration/v2_depth_duration_MTurk/v2_DepthDuration_HTML.html#48,48,1920,969,1920,1080,8-29-2022,9-41-52,112,depth_duration_stimuli/002153_2014-06-25_21-27-18_260595134347_rgbf000038-resize_5/002153_2014-06-25_21-27-18_260595134347_rgbf000038-resize_5-target.png,250,2.505,7,2524,251,feet,jsons/v1_VE250_randls_9.json,663205,764228,32,Woman
112,961832,DepthScenes,duration_manipulation_targetAtFixation,jsons/v1_VE250_randls_9.json,http://54.235.29.9/FacialAge/BNav_EC2/DepthDuration/v2_depth_duration_MTurk/v2_DepthDuration_HTML.html#48,48,1920,969,1920,1080,8-29-2022,9-41-52,113,depth_duration_stimuli/002660_2014-06-13_15-44-18_094959634447_rgbf001878-resize_2/002660_2014-06-13_15-44-18_094959634447_rgbf001878-resize_2-target.png,250,3.576,12,3102,252,feet,jsons/v1_VE250_randls_9.json,663205,764228,32,Woman
113,961832,DepthScenes,duration_manipulation_targetAtFixation,jsons/v1_VE250_randls_9.json,http://54.235.29.9/FacialAge/BNav_EC2/DepthDuration/v2_depth_duration_MTurk/v2_DepthDuration_HTML.html#48,48,1920,969,1920,1080,8-29-2022,9-41-52,114,depth_duration_stimuli/000810_2014-06-08_17-20-01_260595134347_rgbf000105-resize_0/000810_2014-06-08_17-20-01_260595134347_rgbf000105-resize_0-target.png,250,1.4865,7,2842,249,feet,jsons/v1_VE250_randls_9.json,663205,764228,32,Woman
114,961832,DepthScenes,duration_manipulation_targetAtFixation,jsons/v1_VE250_randls_9.json,http://54.235.29.9/FacialAge/BNav_EC2/DepthDuration/v2_depth_duration_MTurk/v2_DepthDuration_HTML.html#48,48,1920,969,1920,1080,8-29-2022,9-41-52,115,depth_duration_stimuli/001214_2014-06-17_16-13-55_260595134347_rgbf000111-resize_0/001214_2014-06-17_16-13-55_260595134347_rgbf000111-resize_0-target.png,250,2.6505,14,3369,261,feet,jsons/v1_VE250_randls_9.json,663205,764228,32,Woman
115,961832,DepthScenes,duration_manipulation_targetAtFixation,jsons/v1_VE250_randls_9.json,http://54.235.29.9/FacialAge/BNav_EC2/DepthDuration/v2_depth_duration_MTurk/v2_DepthDuration_HTML.html#48,48,1920,969,1920,1080,8-29-2022,9-41-52,116,depth_duration_stimuli/001170_2014-06-17_15-43-44_260595134347_rgbf000096-resize_6/001170_2014-06-17_15-43-44_260595134347_rgbf000096-resize-original.jpg,250,1.1909999999999998,0,2558,255,feet,jsons/v1_VE250_randls_9.json,663205,764228,32,Woman
116,961832,DepthScenes,duration_manipulation_targetAtFixation,jsons/v1_VE250_randls_9.json,http://54.235.29.9/FacialAge/BNav_EC2/DepthDuration/v2_depth_duration_MTurk/v2_DepthDuration_HTML.html#48,48,1920,969,1920,1080,8-29-2022,9-41-52,117,depth_duration_stimuli/000642_2014-06-08_16-59-25_260595134347_rgbf000098-resize_2/000642_2014-06-08_16-59-25_260595134347_rgbf000098-resize_2-target.png,250,2.8815,13,4059,262,feet,jsons/v1_VE250_randls_9.json,663205,764228,32,Woman
117,961832,DepthScenes,duration_manipulation_targetAtFixation,jsons/v1_VE250_randls_9.json,http://54.235.29.9/FacialAge/BNav_EC2/DepthDuration/v2_depth_duration_MTurk/v2_DepthDuration_HTML.html#48,48,1920,969,1920,1080,8-29-2022,9-41-52,118,depth_duration_stimuli/002425_2014-06-28_20-27-29_260595134347_rgbf000031-resize_8/002425_2014-06-28_20-27-29_260595134347_rgbf000031-resize_8-target.png,250,3.8960000000000004,12,3014,250,feet,jsons/v1_VE250_randls_9.json,663205,764228,32,Woman
118,961832,DepthScenes,duration_manipulation_targetAtFixation,jsons/v1_VE250_randls_9.json,http://54.235.29.9/FacialAge/BNav_EC2/DepthDuration/v2_depth_duration_MTurk/v2_DepthDuration_HTML.html#48,48,1920,969,1920,1080,8-29-2022,9-41-52,119,depth_duration_stimuli/002057_2014-06-24_21-00-13_260595134347_rgbf000120-resize_1/002057_2014-06-24_21-00-13_260595134347_rgbf000120-resize_1-target.png,250,2.967,10,3639,242,feet,jsons/v1_VE250_randls_9.json,663205,764228,32,Woman
119,961832,DepthScenes,duration_manipulation_targetAtFixation,jsons/v1_VE250_randls_9.json,http://54.235.29.9/FacialAge/BNav_EC2/DepthDuration/v2_depth_duration_MTurk/v2_DepthDuration_HTML.html#48,48,1920,969,1920,1080,8-29-2022,9-41-52,120,depth_duration_stimuli/000709_2014-06-08_13-51-55_260595134347_rgbf000068-resize_3/000709_2014-06-08_13-51-55_260595134347_rgbf000068-resize_3-target.png,250,1.8030000000000002,8,2577,249,feet,jsons/v1_VE250_randls_9.json,663205,764228,32,Woman
120,961832,DepthScenes,duration_manipulation_targetAtFixation,jsons/v1_VE250_randls_9.json,http://54.235.29.9/FacialAge/BNav_EC2/DepthDuration/v2_depth_duration_MTurk/v2_DepthDuration_HTML.html#48,48,1920,969,1920,1080,8-29-2022,9-41-52,121,depth_duration_stimuli/001011_2014-06-08_23-18-54_260595134347_rgbf000044-resize_4/001011_2014-06-08_23-18-54_260595134347_rgbf000044-resize_4-target.png,250,2.4730000000000003,9,4546,250,feet,jsons/v1_VE250_randls_9.json,663205,764228,32,Woman
121,961832,DepthScenes,duration_manipulation_targetAtFixation,jsons/v1_VE250_randls_9.json,http://54.235.29.9/FacialAge/BNav_EC2/DepthDuration/v2_depth_duration_MTurk/v2_DepthDuration_HTML.html#48,48,1920,969,1920,1080,8-29-2022,9-41-52,122,depth_duration_stimuli/002875_2014-06-01_15-19-00_094959634447_rgbf000151-resize_1/002875_2014-06-01_15-19-00_094959634447_rgbf000151-resize_1-target.png,250,1.9675,7,2458,253,feet,jsons/v1_VE250_randls_9.json,663205,764228,32,Woman
122,961832,DepthScenes,duration_manipulation_targetAtFixation,jsons/v1_VE250_randls_9.json,http://54.235.29.9/FacialAge/BNav_EC2/DepthDuration/v2_depth_duration_MTurk/v2_DepthDuration_HTML.html#48,48,1920,969,1920,1080,8-29-2022,9-41-52,123,depth_duration_stimuli/001056_2014-06-08_18-46-44_260595134347_rgbf000068-resize_0/001056_2014-06-08_18-46-44_260595134347_rgbf000068-resize_0-target.png,250,2.6625,12,2468,250,feet,jsons/v1_VE250_randls_9.json,663205,764228,32,Woman
123,961832,DepthScenes,duration_manipulation_targetAtFixation,jsons/v1_VE250_randls_9.json,http://54.235.29.9/FacialAge/BNav_EC2/DepthDuration/v2_depth_duration_MTurk/v2_DepthDuration_HTML.html#48,48,1920,969,1920,1080,8-29-2022,9-41-52,124,depth_duration_stimuli/002199_2014-06-28_18-33-56_260595134347_rgbf000074-resize_0/002199_2014-06-28_18-33-56_260595134347_rgbf000074-resize_0-target.png,250,1.996,3,2138,253,feet,jsons/v1_VE250_randls_9.json,663205,764228,32,Woman
124,961832,DepthScenes,duration_manipulation_targetAtFixation,jsons/v1_VE250_randls_9.json,http://54.235.29.9/FacialAge/BNav_EC2/DepthDuration/v2_depth_duration_MTurk/v2_DepthDuration_HTML.html#48,48,1920,969,1920,1080,8-29-2022,9-41-52,125,depth_duration_stimuli/000436_2014-06-09_22-25-11_260595134347_rgbf000137-resize_1/000436_2014-06-09_22-25-11_260595134347_rgbf000137-resize_1-target.png,250,4.0705,15,2523,251,feet,jsons/v1_VE250_randls_9.json,663205,764228,32,Woman
125,961832,DepthScenes,duration_manipulation_targetAtFixation,jsons/v1_VE250_randls_9.json,http://54.235.29.9/FacialAge/BNav_EC2/DepthDuration/v2_depth_duration_MTurk/v2_DepthDuration_HTML.html#48,48,1920,969,1920,1080,8-29-2022,9-41-52,126,depth_duration_stimuli/002444_2014-06-28_20-32-08_260595134347_rgbf000027-resize_0/002444_2014-06-28_20-32-08_260595134347_rgbf000027-resize_0-target.png,250,4.388999999999999,17,4294,250,feet,jsons/v1_VE250_randls_9.json,663205,764228,32,Woman
126,961832,DepthScenes,duration_manipulation_targetAtFixation,jsons/v1_VE250_randls_9.json,http://54.235.29.9/FacialAge/BNav_EC2/DepthDuration/v2_depth_duration_MTurk/v2_DepthDuration_HTML.html#48,48,1920,969,1920,1080,8-29-2022,9-41-52,127,depth_duration_stimuli/000739_2014-06-08_18-45-58_260595134347_rgbf000068-resize_1/000739_2014-06-08_18-45-58_260595134347_rgbf000068-resize_1-target.png,250,3.534,12,2845,250,feet,jsons/v1_VE250_randls_9.json,663205,764228,32,Woman
127,961832,DepthScenes,duration_manipulation_targetAtFixation,jsons/v1_VE250_randls_9.json,http://54.235.29.9/FacialAge/BNav_EC2/DepthDuration/v2_depth_duration_MTurk/v2_DepthDuration_HTML.html#48,48,1920,969,1920,1080,8-29-2022,9-41-52,128,depth_duration_stimuli/000734_2014-06-08_17-39-11_260595134347_rgbf000128-resize_2/000734_2014-06-08_17-39-11_260595134347_rgbf000128-resize_2-target.png,250,4.098,10,4268,250,feet,jsons/v1_VE250_randls_9.json,663205,764228,32,Woman
128,961832,DepthScenes,duration_manipulation_targetAtFixation,jsons/v1_VE250_randls_9.json,http://54.235.29.9/FacialAge/BNav_EC2/DepthDuration/v2_depth_duration_MTurk/v2_DepthDuration_HTML.html#48,48,1920,969,1920,1080,8-29-2022,9-41-52,129,depth_duration_stimuli/001066_2014-06-08_22-03-20_260595134347_rgbf000066-resize_4/001066_2014-06-08_22-03-20_260595134347_rgbf000066-resize_4-target.png,250,4.2330000000000005,15,3992,252,feet,jsons/v1_VE250_randls_9.json,663205,764228,32,Woman
129,961832,DepthScenes,duration_manipulation_targetAtFixation,jsons/v1_VE250_randls_9.json,http://54.235.29.9/FacialAge/BNav_EC2/DepthDuration/v2_depth_duration_MTurk/v2_DepthDuration_HTML.html#48,48,1920,969,1920,1080,8-29-2022,9-41-52,130,depth_duration_stimuli/000742_2014-06-08_18-48-09_260595134347_rgbf000164-resize_4/000742_2014-06-08_18-48-09_260595134347_rgbf000164-resize_4-target.png,250,4.632,18,4097,248,feet,jsons/v1_VE250_randls_9.json,663205,764228,32,Woman
130,961832,DepthScenes,duration_manipulation_targetAtFixation,jsons/v1_VE250_randls_9.json,http://54.235.29.9/FacialAge/BNav_EC2/DepthDuration/v2_depth_duration_MTurk/v2_DepthDuration_HTML.html#48,48,1920,969,1920,1080,8-29-2022,9-41-52,131,depth_duration_stimuli/000368_2014-06-09_15-53-01_260595134347_rgbf000155-resize_2/000368_2014-06-09_15-53-01_260595134347_rgbf000155-resize_2-target.png,250,2.4859999999999998,9,3738,236,feet,jsons/v1_VE250_randls_9.json,663205,764228,32,Woman
131,961832,DepthScenes,duration_manipulation_targetAtFixation,jsons/v1_VE250_randls_9.json,http://54.235.29.9/FacialAge/BNav_EC2/DepthDuration/v2_depth_duration_MTurk/v2_DepthDuration_HTML.html#48,48,1920,969,1920,1080,8-29-2022,9-41-52,132,depth_duration_stimuli/002678_2014-06-13_16-15-32_094959634447_rgbf000151-resize_6/002678_2014-06-13_16-15-32_094959634447_rgbf000151-resize_6-target.png,250,2.1830000000000003,8,4457,250,feet,jsons/v1_VE250_randls_9.json,663205,764228,32,Woman
132,961832,DepthScenes,duration_manipulation_targetAtFixation,jsons/v1_VE250_randls_9.json,http://54.235.29.9/FacialAge/BNav_EC2/DepthDuration/v2_depth_duration_MTurk/v2_DepthDuration_HTML.html#48,48,1920,969,1920,1080,8-29-2022,9-41-52,133,depth_duration_stimuli/000682_2014-06-08_23-14-58_260595134347_rgbf000041-resize_5/000682_2014-06-08_23-14-58_260595134347_rgbf000041-resize_5-target.png,250,2.7239999999999998,6,2837,252,feet,jsons/v1_VE250_randls_9.json,663205,764228,32,Woman
133,961832,DepthScenes,duration_manipulation_targetAtFixation,jsons/v1_VE250_randls_9.json,http://54.235.29.9/FacialAge/BNav_EC2/DepthDuration/v2_depth_duration_MTurk/v2_DepthDuration_HTML.html#48,48,1920,969,1920,1080,8-29-2022,9-41-52,134,depth_duration_stimuli/001650_2014-06-20_12-09-00_260595134347_rgbf000087-resize_3/001650_2014-06-20_12-09-00_260595134347_rgbf000087-resize_3-target.png,250,1.9505,3,2295,237,feet,jsons/v1_VE250_randls_9.json,663205,764228,32,Woman
134,961832,DepthScenes,duration_manipulation_targetAtFixation,jsons/v1_VE250_randls_9.json,http://54.235.29.9/FacialAge/BNav_EC2/DepthDuration/v2_depth_duration_MTurk/v2_DepthDuration_HTML.html#48,48,1920,969,1920,1080,8-29-2022,9-41-52,135,depth_duration_stimuli/002072_2014-06-24_21-48-06_260595134347_rgbf000115-resize_0/002072_2014-06-24_21-48-06_260595134347_rgbf000115-resize-original.jpg,250,4.702,0,1976,242,feet,jsons/v1_VE250_randls_9.json,663205,764228,32,Woman
135,961832,DepthScenes,duration_manipulation_targetAtFixation,jsons/v1_VE250_randls_9.json,http://54.235.29.9/FacialAge/BNav_EC2/DepthDuration/v2_depth_duration_MTurk/v2_DepthDuration_HTML.html#48,48,1920,969,1920,1080,8-29-2022,9-41-52,136,depth_duration_stimuli/001158_2014-06-17_15-32-16_260595134347_rgbf000138-resize_2/001158_2014-06-17_15-32-16_260595134347_rgbf000138-resize_2-target.png,250,4.5315,12,4511,252,feet,jsons/v1_VE250_randls_9.json,663205,764228,32,Woman
136,961832,DepthScenes,duration_manipulation_targetAtFixation,jsons/v1_VE250_randls_9.json,http://54.235.29.9/FacialAge/BNav_EC2/DepthDuration/v2_depth_duration_MTurk/v2_DepthDuration_HTML.html#48,48,1920,969,1920,1080,8-29-2022,9-41-52,137,depth_duration_stimuli/000556_2014-06-09_22-42-56_260595134347_rgbf000214-resize_1/000556_2014-06-09_22-42-56_260595134347_rgbf000214-resize_1-target.png,250,4.8415,12,4091,235,feet,jsons/v1_VE250_randls_9.json,663205,764228,32,Woman
137,961832,DepthScenes,duration_manipulation_targetAtFixation,jsons/v1_VE250_randls_9.json,http://54.235.29.9/FacialAge/BNav_EC2/DepthDuration/v2_depth_duration_MTurk/v2_DepthDuration_HTML.html#48,48,1920,969,1920,1080,8-29-2022,9-41-52,138,depth_duration_stimuli/002279_2014-06-28_18-55-32_260595134347_rgbf000040-resize_5/002279_2014-06-28_18-55-32_260595134347_rgbf000040-resize_5-target.png,250,1.5043333333333,5,4375,251,feet,jsons/v1_VE250_randls_9.json,663205,764228,32,Woman
138,961832,DepthScenes,duration_manipulation_targetAtFixation,jsons/v1_VE250_randls_9.json,http://54.235.29.9/FacialAge/BNav_EC2/DepthDuration/v2_depth_duration_MTurk/v2_DepthDuration_HTML.html#48,48,1920,969,1920,1080,8-29-2022,9-41-52,139,depth_duration_stimuli/000635_2014-06-08_16-38-42_260595134347_rgbf000106-resize_1/000635_2014-06-08_16-38-42_260595134347_rgbf000106-resize_1-target.png,250,2.074,5,6815,237,feet,jsons/v1_VE250_randls_9.json,663205,764228,32,Woman
139,961832,DepthScenes,duration_manipulation_targetAtFixation,jsons/v1_VE250_randls_9.json,http://54.235.29.9/FacialAge/BNav_EC2/DepthDuration/v2_depth_duration_MTurk/v2_DepthDuration_HTML.html#48,48,1920,969,1920,1080,8-29-2022,9-41-52,140,depth_duration_stimuli/000906_2014-06-08_13-35-43_260595134347_rgbf000155-resize_1/000906_2014-06-08_13-35-43_260595134347_rgbf000155-resize_1-target.png,250,2.8489999999999998,12,3843,255,feet,jsons/v1_VE250_randls_9.json,663205,764228,32,Woman
140,961832,DepthScenes,duration_manipulation_targetAtFixation,jsons/v1_VE250_randls_9.json,http://54.235.29.9/FacialAge/BNav_EC2/DepthDuration/v2_depth_duration_MTurk/v2_DepthDuration_HTML.html#48,48,1920,969,1920,1080,8-29-2022,9-41-52,141,depth_duration_stimuli/002805_2014-06-22_19-54-03_094959634447_rgbf000079-resize_1/002805_2014-06-22_19-54-03_094959634447_rgbf000079-resize_1-target.png,250,3.1439999999999997,15,4108,251,feet,jsons/v1_VE250_randls_9.json,663205,764228,32,Woman
141,961832,DepthScenes,duration_manipulation_targetAtFixation,jsons/v1_VE250_randls_9.json,http://54.235.29.9/FacialAge/BNav_EC2/DepthDuration/v2_depth_duration_MTurk/v2_DepthDuration_HTML.html#48,48,1920,969,1920,1080,8-29-2022,9-41-52,142,depth_duration_stimuli/003292_2014-05-14_21-53-49_094959634447_rgbf000100-resize_2/003292_2014-05-14_21-53-49_094959634447_rgbf000100-resize_2-target.png,250,3.4815,12,2307,251,feet,jsons/v1_VE250_randls_9.json,663205,764228,32,Woman
142,961832,DepthScenes,duration_manipulation_targetAtFixation,jsons/v1_VE250_randls_9.json,http://54.235.29.9/FacialAge/BNav_EC2/DepthDuration/v2_depth_duration_MTurk/v2_DepthDuration_HTML.html#48,48,1920,969,1920,1080,8-29-2022,9-41-52,143,depth_duration_stimuli/002639_2014-06-24_14-51-37_094959634447_rgbf000074-resize_4/002639_2014-06-24_14-51-37_094959634447_rgbf000074-resize_4-target.png,250,4.0375,19,3278,257,feet,jsons/v1_VE250_randls_9.json,663205,764228,32,Woman
143,961832,DepthScenes,duration_manipulation_targetAtFixation,jsons/v1_VE250_randls_9.json,http://54.235.29.9/FacialAge/BNav_EC2/DepthDuration/v2_depth_duration_MTurk/v2_DepthDuration_HTML.html#48,48,1920,969,1920,1080,8-29-2022,9-41-52,144,depth_duration_stimuli/001570_2014-06-20_17-21-09_260595134347_rgbf000135-resize_4/001570_2014-06-20_17-21-09_260595134347_rgbf000135-resize_4-target.png,250,4.467,15,3150,249,feet,jsons/v1_VE250_randls_9.json,663205,764228,32,Woman
144,961832,DepthScenes,duration_manipulation_targetAtFixation,jsons/v1_VE250_randls_9.json,http://54.235.29.9/FacialAge/BNav_EC2/DepthDuration/v2_depth_duration_MTurk/v2_DepthDuration_HTML.html#48,48,1920,969,1920,1080,8-29-2022,9-41-52,145,depth_duration_stimuli/001392_2014-06-19_16-07-59_260595134347_rgbf000046-resize_1/001392_2014-06-19_16-07-59_260595134347_rgbf000046-resize_1-target.png,250,4.135,14,4232,255,feet,jsons/v1_VE250_randls_9.json,663205,764228,32,Woman
145,961832,DepthScenes,duration_manipulation_targetAtFixation,jsons/v1_VE250_randls_9.json,http://54.235.29.9/FacialAge/BNav_EC2/DepthDuration/v2_depth_duration_MTurk/v2_DepthDuration_HTML.html#48,48,1920,969,1920,1080,8-29-2022,9-41-52,146,depth_duration_stimuli/001498_2014-06-19_17-45-14_260595134347_rgbf000129-resize_4/001498_2014-06-19_17-45-14_260595134347_rgbf000129-resize-original.jpg,250,1.4075,0,2829,253,feet,jsons/v1_VE250_randls_9.json,663205,764228,32,Woman
146,961832,DepthScenes,duration_manipulation_targetAtFixation,jsons/v1_VE250_randls_9.json,http://54.235.29.9/FacialAge/BNav_EC2/DepthDuration/v2_depth_duration_MTurk/v2_DepthDuration_HTML.html#48,48,1920,969,1920,1080,8-29-2022,9-41-52,147,depth_duration_stimuli/002989_2014-06-15_12-25-03_094959634447_rgbf000150-resize_3/002989_2014-06-15_12-25-03_094959634447_rgbf000150-resize_3-target.png,250,4.1975,18,3313,258,feet,jsons/v1_VE250_randls_9.json,663205,764228,32,Woman
147,961832,DepthScenes,duration_manipulation_targetAtFixation,jsons/v1_VE250_randls_9.json,http://54.235.29.9/FacialAge/BNav_EC2/DepthDuration/v2_depth_duration_MTurk/v2_DepthDuration_HTML.html#48,48,1920,969,1920,1080,8-29-2022,9-41-52,148,depth_duration_stimuli/000866_2014-06-09_20-45-42_260595134347_rgbf000139-resize_1/000866_2014-06-09_20-45-42_260595134347_rgbf000139-resize_1-target.png,250,3.2155,9,4288,251,feet,jsons/v1_VE250_randls_9.json,663205,764228,32,Woman
148,961832,DepthScenes,duration_manipulation_targetAtFixation,jsons/v1_VE250_randls_9.json,http://54.235.29.9/FacialAge/BNav_EC2/DepthDuration/v2_depth_duration_MTurk/v2_DepthDuration_HTML.html#48,48,1920,969,1920,1080,8-29-2022,9-41-52,149,depth_duration_stimuli/000506_2014-06-08_23-21-00_260595134347_rgbf000070-resize_7/000506_2014-06-08_23-21-00_260595134347_rgbf000070-resize_7-target.png,250,4.0585,15,2530,259,feet,jsons/v1_VE250_randls_9.json,663205,764228,32,Woman
149,961832,DepthScenes,duration_manipulation_targetAtFixation,jsons/v1_VE250_randls_9.json,http://54.235.29.9/FacialAge/BNav_EC2/DepthDuration/v2_depth_duration_MTurk/v2_DepthDuration_HTML.html#48,48,1920,969,1920,1080,8-29-2022,9-41-52,150,depth_duration_stimuli/003079_2014-06-15_15-18-20_094959634447_rgbf000152-resize_8/003079_2014-06-15_15-18-20_094959634447_rgbf000152-resize_8-target.png,250,2.8775,15,3482,251,feet,jsons/v1_VE250_randls_9.json,663205,764228,32,Woman
150,961832,DepthScenes,duration_manipulation_targetAtFixation,jsons/v1_VE250_randls_9.json,http://54.235.29.9/FacialAge/BNav_EC2/DepthDuration/v2_depth_duration_MTurk/v2_DepthDuration_HTML.html#48,48,1920,969,1920,1080,8-29-2022,9-41-52,151,depth_duration_stimuli/001449_2014-06-19_17-01-27_260595134347_rgbf000116-resize_2/001449_2014-06-19_17-01-27_260595134347_rgbf000116-resize_2-target.png,250,3.452,8,2454,255,feet,jsons/v1_VE250_randls_9.json,663205,764228,32,Woman
151,961832,DepthScenes,duration_manipulation_targetAtFixation,jsons/v1_VE250_randls_9.json,http://54.235.29.9/FacialAge/BNav_EC2/DepthDuration/v2_depth_duration_MTurk/v2_DepthDuration_HTML.html#48,48,1920,969,1920,1080,8-29-2022,9-41-52,152,depth_duration_stimuli/001450_2014-06-19_17-02-03_260595134347_rgbf000203-resize_4/001450_2014-06-19_17-02-03_260595134347_rgbf000203-resize_4-target.png,250,4.0106666666667,16,4085,250,feet,jsons/v1_VE250_randls_9.json,663205,764228,32,Woman
152,961832,DepthScenes,duration_manipulation_targetAtFixation,jsons/v1_VE250_randls_9.json,http://54.235.29.9/FacialAge/BNav_EC2/DepthDuration/v2_depth_duration_MTurk/v2_DepthDuration_HTML.html#48,48,1920,969,1920,1080,8-29-2022,9-41-52,153,depth_duration_stimuli/000773_2014-06-08_22-24-54_260595134347_rgbf000093-resize_1/000773_2014-06-08_22-24-54_260595134347_rgbf000093-resize_1-target.png,250,4.973,18,4839,238,feet,jsons/v1_VE250_randls_9.json,663205,764228,32,Woman
153,961832,DepthScenes,duration_manipulation_targetAtFixation,jsons/v1_VE250_randls_9.json,http://54.235.29.9/FacialAge/BNav_EC2/DepthDuration/v2_depth_duration_MTurk/v2_DepthDuration_HTML.html#48,48,1920,969,1920,1080,8-29-2022,9-41-52,154,depth_duration_stimuli/002414_2014-06-28_20-24-58_260595134347_rgbf000067-resize_4/002414_2014-06-28_20-24-58_260595134347_rgbf000067-resize_4-target.png,250,4.363,15,3950,250,feet,jsons/v1_VE250_randls_9.json,663205,764228,32,Woman
154,961832,DepthScenes,duration_manipulation_targetAtFixation,jsons/v1_VE250_randls_9.json,http://54.235.29.9/FacialAge/BNav_EC2/DepthDuration/v2_depth_duration_MTurk/v2_DepthDuration_HTML.html#48,48,1920,969,1920,1080,8-29-2022,9-41-52,155,depth_duration_stimuli/002630_2014-06-24_14-47-50_094959634447_rgbf000055-resize_1/002630_2014-06-24_14-47-50_094959634447_rgbf000055-resize_1-target.png,250,3.0095,15,3148,250,feet,jsons/v1_VE250_randls_9.json,663205,764228,32,Woman
155,961832,DepthScenes,duration_manipulation_targetAtFixation,jsons/v1_VE250_randls_9.json,http://54.235.29.9/FacialAge/BNav_EC2/DepthDuration/v2_depth_duration_MTurk/v2_DepthDuration_HTML.html#48,48,1920,969,1920,1080,8-29-2022,9-41-52,156,depth_duration_stimuli/002758_2014-06-22_19-11-20_094959634447_rgbf000128-resize_1/002758_2014-06-22_19-11-20_094959634447_rgbf000128-resize_1-target.png,250,2.555,8,2457,237,feet,jsons/v1_VE250_randls_9.json,663205,764228,32,Woman
156,961832,DepthScenes,duration_manipulation_targetAtFixation,jsons/v1_VE250_randls_9.json,http://54.235.29.9/FacialAge/BNav_EC2/DepthDuration/v2_depth_duration_MTurk/v2_DepthDuration_HTML.html#48,48,1920,969,1920,1080,8-29-2022,9-41-52,157,depth_duration_stimuli/000447_2014-06-08_16-15-46_260595134347_rgbf000130-resize_1/000447_2014-06-08_16-15-46_260595134347_rgbf000130-resize_1-target.png,250,4.479,18,3876,249,feet,jsons/v1_VE250_randls_9.json,663205,764228,32,Woman
157,961832,DepthScenes,duration_manipulation_targetAtFixation,jsons/v1_VE250_randls_9.json,http://54.235.29.9/FacialAge/BNav_EC2/DepthDuration/v2_depth_duration_MTurk/v2_DepthDuration_HTML.html#48,48,1920,969,1920,1080,8-29-2022,9-41-52,158,depth_duration_stimuli/001447_2014-06-19_17-00-32_260595134347_rgbf000082-resize_5/001447_2014-06-19_17-00-32_260595134347_rgbf000082-resize_5-target.png,250,4.13775,12,3412,251,feet,jsons/v1_VE250_randls_9.json,663205,764228,32,Woman
158,961832,DepthScenes,duration_manipulation_targetAtFixation,jsons/v1_VE250_randls_9.json,http://54.235.29.9/FacialAge/BNav_EC2/DepthDuration/v2_depth_duration_MTurk/v2_DepthDuration_HTML.html#48,48,1920,969,1920,1080,8-29-2022,9-41-52,159,depth_duration_stimuli/000414_2014-06-04_19-49-13_260595134347_rgbf000044-resize_0/000414_2014-06-04_19-49-13_260595134347_rgbf000044-resize_0-target.png,250,4.329,13,4732,252,feet,jsons/v1_VE250_randls_9.json,663205,764228,32,Woman
159,961832,DepthScenes,duration_manipulation_targetAtFixation,jsons/v1_VE250_randls_9.json,http://54.235.29.9/FacialAge/BNav_EC2/DepthDuration/v2_depth_duration_MTurk/v2_DepthDuration_HTML.html#48,48,1920,969,1920,1080,8-29-2022,9-41-52,160,depth_duration_stimuli/003129_2014-05-12_10-48-10_094959634447_rgbf000100-resize_0/003129_2014-05-12_10-48-10_094959634447_rgbf000100-resize_0-target.png,250,4.9305,12,4415,248,feet,jsons/v1_VE250_randls_9.json,663205,764228,32,Woman
160,961832,DepthScenes,duration_manipulation_targetAtFixation,jsons/v1_VE250_randls_9.json,http://54.235.29.9/FacialAge/BNav_EC2/DepthDuration/v2_depth_duration_MTurk/v2_DepthDuration_HTML.html#48,48,1920,969,1920,1080,8-29-2022,9-41-52,161,depth_duration_stimuli/002725_2014-06-22_11-47-51_094959634447_rgbf000070-resize_1/002725_2014-06-22_11-47-51_094959634447_rgbf000070-resize_1-target.png,250,2.195,9,2676,250,feet,jsons/v1_VE250_randls_9.json,663205,764228,32,Woman
161,961832,DepthScenes,duration_manipulation_targetAtFixation,jsons/v1_VE250_randls_9.json,http://54.235.29.9/FacialAge/BNav_EC2/DepthDuration/v2_depth_duration_MTurk/v2_DepthDuration_HTML.html#48,48,1920,969,1920,1080,8-29-2022,9-41-52,162,depth_duration_stimuli/002344_2014-06-28_20-06-29_260595134347_rgbf000030-resize_1/002344_2014-06-28_20-06-29_260595134347_rgbf000030-resize_1-target.png,250,1.5795,4,3187,251,feet,jsons/v1_VE250_randls_9.json,663205,764228,32,Woman
162,961832,DepthScenes,duration_manipulation_targetAtFixation,jsons/v1_VE250_randls_9.json,http://54.235.29.9/FacialAge/BNav_EC2/DepthDuration/v2_depth_duration_MTurk/v2_DepthDuration_HTML.html#48,48,1920,969,1920,1080,8-29-2022,9-41-52,163,depth_duration_stimuli/001175_2014-06-17_15-45-55_260595134347_rgbf000129-resize_4/001175_2014-06-17_15-45-55_260595134347_rgbf000129-resize_4-target.png,250,4.255,18,3164,252,feet,jsons/v1_VE250_randls_9.json,663205,764228,32,Woman
163,961832,DepthScenes,duration_manipulation_targetAtFixation,jsons/v1_VE250_randls_9.json,http://54.235.29.9/FacialAge/BNav_EC2/DepthDuration/v2_depth_duration_MTurk/v2_DepthDuration_HTML.html#48,48,1920,969,1920,1080,8-29-2022,9-41-52,164,depth_duration_stimuli/003490_2014-05-21_15-50-11_094959634447_rgbf000101-resize_3/003490_2014-05-21_15-50-11_094959634447_rgbf000101-resize_3-target.png,250,3.6445,15,2167,246,feet,jsons/v1_VE250_randls_9.json,663205,764228,32,Woman
