,subjID,experimentName,versionName,sequenceName,url,selected_row,windowWidth,windowHeight,screenWidth,screenHeight,startDate,startTime,trial,stimulus,duration,actual_depth,depth_estimate,trial_RT,log_sceneDuration,unitSelection,seq_filepath,experimentTime,totalTime,age,gender
0,963837,DepthScenes,duration_manipulation_targetAtFixation,jsons/v1_VE250_randls_39_rotated.json,http://54.235.29.9/FacialAge/BNav_EC2/DepthDuration/v2_depth_duration_MTurk/v2_DepthDuration_HTML.html#98,98,3440,1289,3440,1440,8-20-2022,10-29-59,1,depth_duration_stimuli/001052_2014-06-08_18-24-54_260595134347_rgbf000130-resize_1/001052_2014-06-08_18-24-54_260595134347_rgbf000130-resize_1-target.png,250,4.1045,6.0,2870,245,feet,jsons/v1_VE250_randls_39_rotated.json,530051,683782,29,Man
1,963837,DepthScenes,duration_manipulation_targetAtFixation,jsons/v1_VE250_randls_39_rotated.json,http://54.235.29.9/FacialAge/BNav_EC2/DepthDuration/v2_depth_duration_MTurk/v2_DepthDuration_HTML.html#98,98,3440,1289,3440,1440,8-20-2022,10-29-59,2,depth_duration_stimuli/002988_2014-06-15_12-24-20_094959634447_rgbf000150-resize_1/002988_2014-06-15_12-24-20_094959634447_rgbf000150-resize_1-target.png,250,4.7669999999999995,6.5,3469,245,feet,jsons/v1_VE250_randls_39_rotated.json,530051,683782,29,Man
2,963837,DepthScenes,duration_manipulation_targetAtFixation,jsons/v1_VE250_randls_39_rotated.json,http://54.235.29.9/FacialAge/BNav_EC2/DepthDuration/v2_depth_duration_MTurk/v2_DepthDuration_HTML.html#98,98,3440,1289,3440,1440,8-20-2022,10-29-59,3,depth_duration_stimuli/000409_2014-06-04_19-23-33_260595134347_rgbf000067-resize_0/000409_2014-06-04_19-23-33_260595134347_rgbf000067-resize_0-target.png,250,3.7335,7.0,3054,245,feet,jsons/v1_VE250_randls_39_rotated.json,530051,683782,29,Man
3,963837,DepthScenes,duration_manipulation_targetAtFixation,jsons/v1_VE250_randls_39_rotated.json,http://54.235.29.9/FacialAge/BNav_EC2/DepthDuration/v2_depth_duration_MTurk/v2_DepthDuration_HTML.html#98,98,3440,1289,3440,1440,8-20-2022,10-29-59,4,depth_duration_stimuli/002663_2014-06-13_15-50-26_094959634447_rgbf000075-resize_1/002663_2014-06-13_15-50-26_094959634447_rgbf000075-resize_1-target.png,250,4.7495,7.0,2349,246,feet,jsons/v1_VE250_randls_39_rotated.json,530051,683782,29,Man
4,963837,DepthScenes,duration_manipulation_targetAtFixation,jsons/v1_VE250_randls_39_rotated.json,http://54.235.29.9/FacialAge/BNav_EC2/DepthDuration/v2_depth_duration_MTurk/v2_DepthDuration_HTML.html#98,98,3440,1289,3440,1440,8-20-2022,10-29-59,5,depth_duration_stimuli/000457_2014-06-08_16-52-43_260595134347_rgbf000199-resize_1/000457_2014-06-08_16-52-43_260595134347_rgbf000199-resize_1-target.png,250,3.6489999999999996,6.0,2171,245,feet,jsons/v1_VE250_randls_39_rotated.json,530051,683782,29,Man
5,963837,DepthScenes,duration_manipulation_targetAtFixation,jsons/v1_VE250_randls_39_rotated.json,http://54.235.29.9/FacialAge/BNav_EC2/DepthDuration/v2_depth_duration_MTurk/v2_DepthDuration_HTML.html#98,98,3440,1289,3440,1440,8-20-2022,10-29-59,6,depth_duration_stimuli/000929_2014-06-09_16-33-19_260595134347_rgbf000139-resize_0/000929_2014-06-09_16-33-19_260595134347_rgbf000139-resize_0-target.png,250,2.8680000000000003,5.5,3532,261,feet,jsons/v1_VE250_randls_39_rotated.json,530051,683782,29,Man
6,963837,DepthScenes,duration_manipulation_targetAtFixation,jsons/v1_VE250_randls_39_rotated.json,http://54.235.29.9/FacialAge/BNav_EC2/DepthDuration/v2_depth_duration_MTurk/v2_DepthDuration_HTML.html#98,98,3440,1289,3440,1440,8-20-2022,10-29-59,7,depth_duration_stimuli/002949_2014-06-26_15-57-42_094959634447_rgbf000079-resize_1/002949_2014-06-26_15-57-42_094959634447_rgbf000079-resize_1-target.png,250,1.8915,3.5,4305,247,feet,jsons/v1_VE250_randls_39_rotated.json,530051,683782,29,Man
7,963837,DepthScenes,duration_manipulation_targetAtFixation,jsons/v1_VE250_randls_39_rotated.json,http://54.235.29.9/FacialAge/BNav_EC2/DepthDuration/v2_depth_duration_MTurk/v2_DepthDuration_HTML.html#98,98,3440,1289,3440,1440,8-20-2022,10-29-59,8,depth_duration_stimuli/000522_2014-06-08_13-35-06_260595134347_rgbf000244-resize_1/000522_2014-06-08_13-35-06_260595134347_rgbf000244-resize_1-target.png,250,2.3715,2.5,3044,245,feet,jsons/v1_VE250_randls_39_rotated.json,530051,683782,29,Man
8,963837,DepthScenes,duration_manipulation_targetAtFixation,jsons/v1_VE250_randls_39_rotated.json,http://54.235.29.9/FacialAge/BNav_EC2/DepthDuration/v2_depth_duration_MTurk/v2_DepthDuration_HTML.html#98,98,3440,1289,3440,1440,8-20-2022,10-29-59,9,depth_duration_stimuli/001136_2014-06-17_15-19-41_260595134347_rgbf000076-resize_3/001136_2014-06-17_15-19-41_260595134347_rgbf000076-resize_3-target.png,250,1.8655,4.0,4190,247,feet,jsons/v1_VE250_randls_39_rotated.json,530051,683782,29,Man
9,963837,DepthScenes,duration_manipulation_targetAtFixation,jsons/v1_VE250_randls_39_rotated.json,http://54.235.29.9/FacialAge/BNav_EC2/DepthDuration/v2_depth_duration_MTurk/v2_DepthDuration_HTML.html#98,98,3440,1289,3440,1440,8-20-2022,10-29-59,10,depth_duration_stimuli/001164_2014-06-17_15-35-46_260595134347_rgbf000085-resize_3/001164_2014-06-17_15-35-46_260595134347_rgbf000085-resize_3-target.png,250,2.354,6.0,3930,245,feet,jsons/v1_VE250_randls_39_rotated.json,530051,683782,29,Man
10,963837,DepthScenes,duration_manipulation_targetAtFixation,jsons/v1_VE250_randls_39_rotated.json,http://54.235.29.9/FacialAge/BNav_EC2/DepthDuration/v2_depth_duration_MTurk/v2_DepthDuration_HTML.html#98,98,3440,1289,3440,1440,8-20-2022,10-29-59,11,depth_duration_stimuli/000866_2014-06-09_20-45-42_260595134347_rgbf000139-resize_1/000866_2014-06-09_20-45-42_260595134347_rgbf000139-resize_1-target.png,250,3.2155,6.0,2373,246,feet,jsons/v1_VE250_randls_39_rotated.json,530051,683782,29,Man
11,963837,DepthScenes,duration_manipulation_targetAtFixation,jsons/v1_VE250_randls_39_rotated.json,http://54.235.29.9/FacialAge/BNav_EC2/DepthDuration/v2_depth_duration_MTurk/v2_DepthDuration_HTML.html#98,98,3440,1289,3440,1440,8-20-2022,10-29-59,12,depth_duration_stimuli/002989_2014-06-15_12-25-03_094959634447_rgbf000150-resize_3/002989_2014-06-15_12-25-03_094959634447_rgbf000150-resize_3-target.png,250,4.1975,9.0,2589,246,feet,jsons/v1_VE250_randls_39_rotated.json,530051,683782,29,Man
12,963837,DepthScenes,duration_manipulation_targetAtFixation,jsons/v1_VE250_randls_39_rotated.json,http://54.235.29.9/FacialAge/BNav_EC2/DepthDuration/v2_depth_duration_MTurk/v2_DepthDuration_HTML.html#98,98,3440,1289,3440,1440,8-20-2022,10-29-59,13,depth_duration_stimuli/002568_2014-06-24_13-59-21_094959634447_rgbf000062-resize_4/002568_2014-06-24_13-59-21_094959634447_rgbf000062-resize_4-target.png,250,3.015,7.0,2076,246,feet,jsons/v1_VE250_randls_39_rotated.json,530051,683782,29,Man
13,963837,DepthScenes,duration_manipulation_targetAtFixation,jsons/v1_VE250_randls_39_rotated.json,http://54.235.29.9/FacialAge/BNav_EC2/DepthDuration/v2_depth_duration_MTurk/v2_DepthDuration_HTML.html#98,98,3440,1289,3440,1440,8-20-2022,10-29-59,14,depth_duration_stimuli/003492_2014-05-21_15-50-55_094959634447_rgbf000828-resize_1/003492_2014-05-21_15-50-55_094959634447_rgbf000828-resize_1-target.png,250,4.06875,8.0,2023,245,feet,jsons/v1_VE250_randls_39_rotated.json,530051,683782,29,Man
14,963837,DepthScenes,duration_manipulation_targetAtFixation,jsons/v1_VE250_randls_39_rotated.json,http://54.235.29.9/FacialAge/BNav_EC2/DepthDuration/v2_depth_duration_MTurk/v2_DepthDuration_HTML.html#98,98,3440,1289,3440,1440,8-20-2022,10-29-59,15,depth_duration_stimuli/001235_2014-06-17_16-37-36_260595134347_rgbf000084-resize_4/001235_2014-06-17_16-37-36_260595134347_rgbf000084-resize_4-target.png,250,3.6605,8.5,2936,246,feet,jsons/v1_VE250_randls_39_rotated.json,530051,683782,29,Man
15,963837,DepthScenes,duration_manipulation_targetAtFixation,jsons/v1_VE250_randls_39_rotated.json,http://54.235.29.9/FacialAge/BNav_EC2/DepthDuration/v2_depth_duration_MTurk/v2_DepthDuration_HTML.html#98,98,3440,1289,3440,1440,8-20-2022,10-29-59,16,depth_duration_stimuli/000788_2014-06-08_22-34-36_260595134347_rgbf000131-resize_1/000788_2014-06-08_22-34-36_260595134347_rgbf000131-resize_1-target.png,250,3.359,6.0,1987,246,feet,jsons/v1_VE250_randls_39_rotated.json,530051,683782,29,Man
16,963837,DepthScenes,duration_manipulation_targetAtFixation,jsons/v1_VE250_randls_39_rotated.json,http://54.235.29.9/FacialAge/BNav_EC2/DepthDuration/v2_depth_duration_MTurk/v2_DepthDuration_HTML.html#98,98,3440,1289,3440,1440,8-20-2022,10-29-59,17,depth_duration_stimuli/000137_2014-05-20_17-04-49_260595134347_rgbf000120-resize_1/000137_2014-05-20_17-04-49_260595134347_rgbf000120-resize_1-target.png,250,3.786,8.0,2123,246,feet,jsons/v1_VE250_randls_39_rotated.json,530051,683782,29,Man
17,963837,DepthScenes,duration_manipulation_targetAtFixation,jsons/v1_VE250_randls_39_rotated.json,http://54.235.29.9/FacialAge/BNav_EC2/DepthDuration/v2_depth_duration_MTurk/v2_DepthDuration_HTML.html#98,98,3440,1289,3440,1440,8-20-2022,10-29-59,18,depth_duration_stimuli/000736_2014-06-08_18-24-15_260595134347_rgbf000206-resize_3/000736_2014-06-08_18-24-15_260595134347_rgbf000206-resize_3-target.png,250,3.515,6.5,2897,260,feet,jsons/v1_VE250_randls_39_rotated.json,530051,683782,29,Man
18,963837,DepthScenes,duration_manipulation_targetAtFixation,jsons/v1_VE250_randls_39_rotated.json,http://54.235.29.9/FacialAge/BNav_EC2/DepthDuration/v2_depth_duration_MTurk/v2_DepthDuration_HTML.html#98,98,3440,1289,3440,1440,8-20-2022,10-29-59,19,depth_duration_stimuli/001498_2014-06-19_17-45-14_260595134347_rgbf000129-resize_4/001498_2014-06-19_17-45-14_260595134347_rgbf000129-resize-original.jpg,250,1.4075,0.0,2140,261,feet,jsons/v1_VE250_randls_39_rotated.json,530051,683782,29,Man
19,963837,DepthScenes,duration_manipulation_targetAtFixation,jsons/v1_VE250_randls_39_rotated.json,http://54.235.29.9/FacialAge/BNav_EC2/DepthDuration/v2_depth_duration_MTurk/v2_DepthDuration_HTML.html#98,98,3440,1289,3440,1440,8-20-2022,10-29-59,20,depth_duration_stimuli/002758_2014-06-22_19-11-20_094959634447_rgbf000128-resize_1/002758_2014-06-22_19-11-20_094959634447_rgbf000128-resize_1-target.png,250,2.555,3.0,2317,246,feet,jsons/v1_VE250_randls_39_rotated.json,530051,683782,29,Man
20,963837,DepthScenes,duration_manipulation_targetAtFixation,jsons/v1_VE250_randls_39_rotated.json,http://54.235.29.9/FacialAge/BNav_EC2/DepthDuration/v2_depth_duration_MTurk/v2_DepthDuration_HTML.html#98,98,3440,1289,3440,1440,8-20-2022,10-29-59,21,depth_duration_stimuli/002630_2014-06-24_14-47-50_094959634447_rgbf000055-resize_1/002630_2014-06-24_14-47-50_094959634447_rgbf000055-resize_1-target.png,250,3.0095,8.0,3775,260,feet,jsons/v1_VE250_randls_39_rotated.json,530051,683782,29,Man
21,963837,DepthScenes,duration_manipulation_targetAtFixation,jsons/v1_VE250_randls_39_rotated.json,http://54.235.29.9/FacialAge/BNav_EC2/DepthDuration/v2_depth_duration_MTurk/v2_DepthDuration_HTML.html#98,98,3440,1289,3440,1440,8-20-2022,10-29-59,22,depth_duration_stimuli/003079_2014-06-15_15-18-20_094959634447_rgbf000152-resize_8/003079_2014-06-15_15-18-20_094959634447_rgbf000152-resize_8-target.png,250,2.8775,8.0,2529,246,feet,jsons/v1_VE250_randls_39_rotated.json,530051,683782,29,Man
22,963837,DepthScenes,duration_manipulation_targetAtFixation,jsons/v1_VE250_randls_39_rotated.json,http://54.235.29.9/FacialAge/BNav_EC2/DepthDuration/v2_depth_duration_MTurk/v2_DepthDuration_HTML.html#98,98,3440,1289,3440,1440,8-20-2022,10-29-59,23,depth_duration_stimuli/000506_2014-06-08_23-21-00_260595134347_rgbf000070-resize_7/000506_2014-06-08_23-21-00_260595134347_rgbf000070-resize_7-target.png,250,4.0585,7.0,3060,263,feet,jsons/v1_VE250_randls_39_rotated.json,530051,683782,29,Man
23,963837,DepthScenes,duration_manipulation_targetAtFixation,jsons/v1_VE250_randls_39_rotated.json,http://54.235.29.9/FacialAge/BNav_EC2/DepthDuration/v2_depth_duration_MTurk/v2_DepthDuration_HTML.html#98,98,3440,1289,3440,1440,8-20-2022,10-29-59,24,depth_duration_stimuli/002637_2014-06-24_14-51-13_094959634447_rgbf000066-resize_4/002637_2014-06-24_14-51-13_094959634447_rgbf000066-resize_4-target.png,250,1.9955,5.0,1819,247,feet,jsons/v1_VE250_randls_39_rotated.json,530051,683782,29,Man
24,963837,DepthScenes,duration_manipulation_targetAtFixation,jsons/v1_VE250_randls_39_rotated.json,http://54.235.29.9/FacialAge/BNav_EC2/DepthDuration/v2_depth_duration_MTurk/v2_DepthDuration_HTML.html#98,98,3440,1289,3440,1440,8-20-2022,10-29-59,25,depth_duration_stimuli/003534_2014-05-22_15-06-10_094959634447_rgbf000102-resize_4/003534_2014-05-22_15-06-10_094959634447_rgbf000102-resize_4-target.png,250,1.426,3.0,1803,248,feet,jsons/v1_VE250_randls_39_rotated.json,530051,683782,29,Man
25,963837,DepthScenes,duration_manipulation_targetAtFixation,jsons/v1_VE250_randls_39_rotated.json,http://54.235.29.9/FacialAge/BNav_EC2/DepthDuration/v2_depth_duration_MTurk/v2_DepthDuration_HTML.html#98,98,3440,1289,3440,1440,8-20-2022,10-29-59,26,depth_duration_stimuli/001516_2014-06-20_16-25-09_260595134347_rgbf000076-resize_2/001516_2014-06-20_16-25-09_260595134347_rgbf000076-resize_2-target.png,250,1.7445,4.5,2605,246,feet,jsons/v1_VE250_randls_39_rotated.json,530051,683782,29,Man
26,963837,DepthScenes,duration_manipulation_targetAtFixation,jsons/v1_VE250_randls_39_rotated.json,http://54.235.29.9/FacialAge/BNav_EC2/DepthDuration/v2_depth_duration_MTurk/v2_DepthDuration_HTML.html#98,98,3440,1289,3440,1440,8-20-2022,10-29-59,27,depth_duration_stimuli/002118_2014-06-25_20-32-08_260595134347_rgbf000078-resize_1/002118_2014-06-25_20-32-08_260595134347_rgbf000078-resize_1-target.png,250,2.6460000000000004,6.0,3676,246,feet,jsons/v1_VE250_randls_39_rotated.json,530051,683782,29,Man
27,963837,DepthScenes,duration_manipulation_targetAtFixation,jsons/v1_VE250_randls_39_rotated.json,http://54.235.29.9/FacialAge/BNav_EC2/DepthDuration/v2_depth_duration_MTurk/v2_DepthDuration_HTML.html#98,98,3440,1289,3440,1440,8-20-2022,10-29-59,28,depth_duration_stimuli/002136_2014-06-25_21-18-03_260595134347_rgbf000109-resize_3/002136_2014-06-25_21-18-03_260595134347_rgbf000109-resize_3-target.png,250,1.9569999999999999,3.0,3079,246,feet,jsons/v1_VE250_randls_39_rotated.json,530051,683782,29,Man
28,963837,DepthScenes,duration_manipulation_targetAtFixation,jsons/v1_VE250_randls_39_rotated.json,http://54.235.29.9/FacialAge/BNav_EC2/DepthDuration/v2_depth_duration_MTurk/v2_DepthDuration_HTML.html#98,98,3440,1289,3440,1440,8-20-2022,10-29-59,29,depth_duration_stimuli/002964_2014-06-08_17-46-11_094959634447_rgbf000091-resize_4/002964_2014-06-08_17-46-11_094959634447_rgbf000091-resize_4-target.png,250,1.6909999999999998,4.0,9294,245,feet,jsons/v1_VE250_randls_39_rotated.json,530051,683782,29,Man
29,963837,DepthScenes,duration_manipulation_targetAtFixation,jsons/v1_VE250_randls_39_rotated.json,http://54.235.29.9/FacialAge/BNav_EC2/DepthDuration/v2_depth_duration_MTurk/v2_DepthDuration_HTML.html#98,98,3440,1289,3440,1440,8-20-2022,10-29-59,30,depth_duration_stimuli/002072_2014-06-24_21-48-06_260595134347_rgbf000115-resize_0/002072_2014-06-24_21-48-06_260595134347_rgbf000115-resize-original.jpg,250,4.702,0.0,2936,260,feet,jsons/v1_VE250_randls_39_rotated.json,530051,683782,29,Man
30,963837,DepthScenes,duration_manipulation_targetAtFixation,jsons/v1_VE250_randls_39_rotated.json,http://54.235.29.9/FacialAge/BNav_EC2/DepthDuration/v2_depth_duration_MTurk/v2_DepthDuration_HTML.html#98,98,3440,1289,3440,1440,8-20-2022,10-29-59,31,depth_duration_stimuli/000691_2014-06-08_13-08-50_260595134347_rgbf000132-resize_3/000691_2014-06-08_13-08-50_260595134347_rgbf000132-resize_3-target.png,250,4.1530000000000005,6.0,3262,246,feet,jsons/v1_VE250_randls_39_rotated.json,530051,683782,29,Man
31,963837,DepthScenes,duration_manipulation_targetAtFixation,jsons/v1_VE250_randls_39_rotated.json,http://54.235.29.9/FacialAge/BNav_EC2/DepthDuration/v2_depth_duration_MTurk/v2_DepthDuration_HTML.html#98,98,3440,1289,3440,1440,8-20-2022,10-29-59,32,depth_duration_stimuli/002213_2014-06-28_18-37-58_260595134347_rgbf000055-resize_1/002213_2014-06-28_18-37-58_260595134347_rgbf000055-resize_1-target.png,250,3.62,8.0,5402,246,feet,jsons/v1_VE250_randls_39_rotated.json,530051,683782,29,Man
32,963837,DepthScenes,duration_manipulation_targetAtFixation,jsons/v1_VE250_randls_39_rotated.json,http://54.235.29.9/FacialAge/BNav_EC2/DepthDuration/v2_depth_duration_MTurk/v2_DepthDuration_HTML.html#98,98,3440,1289,3440,1440,8-20-2022,10-29-59,33,depth_duration_stimuli/002657_2014-06-13_15-29-54_094959634447_rgbf000150-resize_1/002657_2014-06-13_15-29-54_094959634447_rgbf000150-resize_1-target.png,250,4.919,8.0,2389,261,feet,jsons/v1_VE250_randls_39_rotated.json,530051,683782,29,Man
33,963837,DepthScenes,duration_manipulation_targetAtFixation,jsons/v1_VE250_randls_39_rotated.json,http://54.235.29.9/FacialAge/BNav_EC2/DepthDuration/v2_depth_duration_MTurk/v2_DepthDuration_HTML.html#98,98,3440,1289,3440,1440,8-20-2022,10-29-59,34,depth_duration_stimuli/002375_2014-06-28_20-13-44_260595134347_rgbf000032-resize_1/002375_2014-06-28_20-13-44_260595134347_rgbf000032-resize_1-target.png,250,4.0175,5.0,1848,263,feet,jsons/v1_VE250_randls_39_rotated.json,530051,683782,29,Man
34,963837,DepthScenes,duration_manipulation_targetAtFixation,jsons/v1_VE250_randls_39_rotated.json,http://54.235.29.9/FacialAge/BNav_EC2/DepthDuration/v2_depth_duration_MTurk/v2_DepthDuration_HTML.html#98,98,3440,1289,3440,1440,8-20-2022,10-29-59,35,depth_duration_stimuli/003048_2014-06-15_13-49-43_094959634447_rgbf000150-resize_1/003048_2014-06-15_13-49-43_094959634447_rgbf000150-resize_1-target.png,250,4.0035,8.0,1765,262,feet,jsons/v1_VE250_randls_39_rotated.json,530051,683782,29,Man
35,963837,DepthScenes,duration_manipulation_targetAtFixation,jsons/v1_VE250_randls_39_rotated.json,http://54.235.29.9/FacialAge/BNav_EC2/DepthDuration/v2_depth_duration_MTurk/v2_DepthDuration_HTML.html#98,98,3440,1289,3440,1440,8-20-2022,10-29-59,36,depth_duration_stimuli/002043_2014-06-24_20-29-38_260595134347_rgbf000039-resize_4/002043_2014-06-24_20-29-38_260595134347_rgbf000039-resize_4-target.png,250,2.8435,7.0,1808,245,feet,jsons/v1_VE250_randls_39_rotated.json,530051,683782,29,Man
36,963837,DepthScenes,duration_manipulation_targetAtFixation,jsons/v1_VE250_randls_39_rotated.json,http://54.235.29.9/FacialAge/BNav_EC2/DepthDuration/v2_depth_duration_MTurk/v2_DepthDuration_HTML.html#98,98,3440,1289,3440,1440,8-20-2022,10-29-59,37,depth_duration_stimuli/000749_2014-06-08_21-55-06_260595134347_rgbf000070-resize_2/000749_2014-06-08_21-55-06_260595134347_rgbf000070-resize_2-target.png,250,2.331,7.0,1888,261,feet,jsons/v1_VE250_randls_39_rotated.json,530051,683782,29,Man
37,963837,DepthScenes,duration_manipulation_targetAtFixation,jsons/v1_VE250_randls_39_rotated.json,http://54.235.29.9/FacialAge/BNav_EC2/DepthDuration/v2_depth_duration_MTurk/v2_DepthDuration_HTML.html#98,98,3440,1289,3440,1440,8-20-2022,10-29-59,38,depth_duration_stimuli/002788_2014-06-22_19-36-03_094959634447_rgbf000088-resize_2/002788_2014-06-22_19-36-03_094959634447_rgbf000088-resize_2-target.png,250,1.6465,7.0,2410,246,feet,jsons/v1_VE250_randls_39_rotated.json,530051,683782,29,Man
38,963837,DepthScenes,duration_manipulation_targetAtFixation,jsons/v1_VE250_randls_39_rotated.json,http://54.235.29.9/FacialAge/BNav_EC2/DepthDuration/v2_depth_duration_MTurk/v2_DepthDuration_HTML.html#98,98,3440,1289,3440,1440,8-20-2022,10-29-59,39,depth_duration_stimuli/001584_2014-06-20_11-07-43_260595134347_rgbf000002-resize_1/001584_2014-06-20_11-07-43_260595134347_rgbf000002-resize_1-target.png,250,3.53,8.0,2390,245,feet,jsons/v1_VE250_randls_39_rotated.json,530051,683782,29,Man
39,963837,DepthScenes,duration_manipulation_targetAtFixation,jsons/v1_VE250_randls_39_rotated.json,http://54.235.29.9/FacialAge/BNav_EC2/DepthDuration/v2_depth_duration_MTurk/v2_DepthDuration_HTML.html#98,98,3440,1289,3440,1440,8-20-2022,10-29-59,40,depth_duration_stimuli/003621_2014-05-23_18-06-08_094959634447_rgbf000101-resize_1/003621_2014-05-23_18-06-08_094959634447_rgbf000101-resize_1-target.png,250,3.9835,9.0,1655,260,feet,jsons/v1_VE250_randls_39_rotated.json,530051,683782,29,Man
40,963837,DepthScenes,duration_manipulation_targetAtFixation,jsons/v1_VE250_randls_39_rotated.json,http://54.235.29.9/FacialAge/BNav_EC2/DepthDuration/v2_depth_duration_MTurk/v2_DepthDuration_HTML.html#98,98,3440,1289,3440,1440,8-20-2022,10-29-59,41,depth_duration_stimuli/000742_2014-06-08_18-48-09_260595134347_rgbf000164-resize_4/000742_2014-06-08_18-48-09_260595134347_rgbf000164-resize_4-target.png,250,4.632,8.0,1655,245,feet,jsons/v1_VE250_randls_39_rotated.json,530051,683782,29,Man
41,963837,DepthScenes,duration_manipulation_targetAtFixation,jsons/v1_VE250_randls_39_rotated.json,http://54.235.29.9/FacialAge/BNav_EC2/DepthDuration/v2_depth_duration_MTurk/v2_DepthDuration_HTML.html#98,98,3440,1289,3440,1440,8-20-2022,10-29-59,42,depth_duration_stimuli/001066_2014-06-08_22-03-20_260595134347_rgbf000066-resize_4/001066_2014-06-08_22-03-20_260595134347_rgbf000066-resize_4-target.png,250,4.2330000000000005,10.0,4193,247,feet,jsons/v1_VE250_randls_39_rotated.json,530051,683782,29,Man
42,963837,DepthScenes,duration_manipulation_targetAtFixation,jsons/v1_VE250_randls_39_rotated.json,http://54.235.29.9/FacialAge/BNav_EC2/DepthDuration/v2_depth_duration_MTurk/v2_DepthDuration_HTML.html#98,98,3440,1289,3440,1440,8-20-2022,10-29-59,43,depth_duration_stimuli/002660_2014-06-13_15-44-18_094959634447_rgbf001878-resize_2/002660_2014-06-13_15-44-18_094959634447_rgbf001878-resize_2-target.png,250,3.576,7.0,2341,247,feet,jsons/v1_VE250_randls_39_rotated.json,530051,683782,29,Man
43,963837,DepthScenes,duration_manipulation_targetAtFixation,jsons/v1_VE250_randls_39_rotated.json,http://54.235.29.9/FacialAge/BNav_EC2/DepthDuration/v2_depth_duration_MTurk/v2_DepthDuration_HTML.html#98,98,3440,1289,3440,1440,8-20-2022,10-29-59,44,depth_duration_stimuli/002153_2014-06-25_21-27-18_260595134347_rgbf000038-resize_5/002153_2014-06-25_21-27-18_260595134347_rgbf000038-resize_5-target.png,250,2.505,6.0,2026,247,feet,jsons/v1_VE250_randls_39_rotated.json,530051,683782,29,Man
44,963837,DepthScenes,duration_manipulation_targetAtFixation,jsons/v1_VE250_randls_39_rotated.json,http://54.235.29.9/FacialAge/BNav_EC2/DepthDuration/v2_depth_duration_MTurk/v2_DepthDuration_HTML.html#98,98,3440,1289,3440,1440,8-20-2022,10-29-59,45,depth_duration_stimuli/003083_2014-06-15_15-21-03_094959634447_rgbf000063-resize_1/003083_2014-06-15_15-21-03_094959634447_rgbf000063-resize_1-target.png,250,4.1405,9.0,2295,246,feet,jsons/v1_VE250_randls_39_rotated.json,530051,683782,29,Man
45,963837,DepthScenes,duration_manipulation_targetAtFixation,jsons/v1_VE250_randls_39_rotated.json,http://54.235.29.9/FacialAge/BNav_EC2/DepthDuration/v2_depth_duration_MTurk/v2_DepthDuration_HTML.html#98,98,3440,1289,3440,1440,8-20-2022,10-29-59,46,depth_duration_stimuli/000486_2014-06-09_20-47-20_260595134347_rgbf000143-resize_2/000486_2014-06-09_20-47-20_260595134347_rgbf000143-resize_2-target.png,250,4.8325,8.0,2140,262,feet,jsons/v1_VE250_randls_39_rotated.json,530051,683782,29,Man
46,963837,DepthScenes,duration_manipulation_targetAtFixation,jsons/v1_VE250_randls_39_rotated.json,http://54.235.29.9/FacialAge/BNav_EC2/DepthDuration/v2_depth_duration_MTurk/v2_DepthDuration_HTML.html#98,98,3440,1289,3440,1440,8-20-2022,10-29-59,47,depth_duration_stimuli/003010_2014-06-15_12-54-35_094959634447_rgbf000112-resize_0/003010_2014-06-15_12-54-35_094959634447_rgbf000112-resize_0-target.png,250,3.1185,8.0,1684,245,feet,jsons/v1_VE250_randls_39_rotated.json,530051,683782,29,Man
47,963837,DepthScenes,duration_manipulation_targetAtFixation,jsons/v1_VE250_randls_39_rotated.json,http://54.235.29.9/FacialAge/BNav_EC2/DepthDuration/v2_depth_duration_MTurk/v2_DepthDuration_HTML.html#98,98,3440,1289,3440,1440,8-20-2022,10-29-59,48,depth_duration_stimuli/001810_2014-06-26_20-51-35_260595134347_rgbf000040-resize_3/001810_2014-06-26_20-51-35_260595134347_rgbf000040-resize_3-target.png,250,2.2525,6.0,1719,246,feet,jsons/v1_VE250_randls_39_rotated.json,530051,683782,29,Man
48,963837,DepthScenes,duration_manipulation_targetAtFixation,jsons/v1_VE250_randls_39_rotated.json,http://54.235.29.9/FacialAge/BNav_EC2/DepthDuration/v2_depth_duration_MTurk/v2_DepthDuration_HTML.html#98,98,3440,1289,3440,1440,8-20-2022,10-29-59,49,depth_duration_stimuli/001170_2014-06-17_15-43-44_260595134347_rgbf000096-resize_6/001170_2014-06-17_15-43-44_260595134347_rgbf000096-resize-original.jpg,250,1.1909999999999998,0.0,1724,247,feet,jsons/v1_VE250_randls_39_rotated.json,530051,683782,29,Man
49,963837,DepthScenes,duration_manipulation_targetAtFixation,jsons/v1_VE250_randls_39_rotated.json,http://54.235.29.9/FacialAge/BNav_EC2/DepthDuration/v2_depth_duration_MTurk/v2_DepthDuration_HTML.html#98,98,3440,1289,3440,1440,8-20-2022,10-29-59,50,depth_duration_stimuli/002995_2014-06-15_12-31-26_094959634447_rgbf000150-resize_1/002995_2014-06-15_12-31-26_094959634447_rgbf000150-resize_1-target.png,250,3.8360000000000003,9.0,2455,246,feet,jsons/v1_VE250_randls_39_rotated.json,530051,683782,29,Man
50,963837,DepthScenes,duration_manipulation_targetAtFixation,jsons/v1_VE250_randls_39_rotated.json,http://54.235.29.9/FacialAge/BNav_EC2/DepthDuration/v2_depth_duration_MTurk/v2_DepthDuration_HTML.html#98,98,3440,1289,3440,1440,8-20-2022,10-29-59,51,depth_duration_stimuli/002748_2014-06-22_19-07-22_094959634447_rgbf000078-resize_1/002748_2014-06-22_19-07-22_094959634447_rgbf000078-resize_1-target.png,250,4.6705,10.0,2633,246,feet,jsons/v1_VE250_randls_39_rotated.json,530051,683782,29,Man
51,963837,DepthScenes,duration_manipulation_targetAtFixation,jsons/v1_VE250_randls_39_rotated.json,http://54.235.29.9/FacialAge/BNav_EC2/DepthDuration/v2_depth_duration_MTurk/v2_DepthDuration_HTML.html#98,98,3440,1289,3440,1440,8-20-2022,10-29-59,52,depth_duration_stimuli/002103_2014-06-25_20-00-40_260595134347_rgbf000049-resize_0/002103_2014-06-25_20-00-40_260595134347_rgbf000049-resize_0-target.png,250,4.105,8.0,1884,246,feet,jsons/v1_VE250_randls_39_rotated.json,530051,683782,29,Man
52,963837,DepthScenes,duration_manipulation_targetAtFixation,jsons/v1_VE250_randls_39_rotated.json,http://54.235.29.9/FacialAge/BNav_EC2/DepthDuration/v2_depth_duration_MTurk/v2_DepthDuration_HTML.html#98,98,3440,1289,3440,1440,8-20-2022,10-29-59,53,depth_duration_stimuli/002039_2014-06-24_20-22-38_260595134347_rgbf000084-resize_1/002039_2014-06-24_20-22-38_260595134347_rgbf000084-resize_1-target.png,250,4.408,9.0,2615,245,feet,jsons/v1_VE250_randls_39_rotated.json,530051,683782,29,Man
53,963837,DepthScenes,duration_manipulation_targetAtFixation,jsons/v1_VE250_randls_39_rotated.json,http://54.235.29.9/FacialAge/BNav_EC2/DepthDuration/v2_depth_duration_MTurk/v2_DepthDuration_HTML.html#98,98,3440,1289,3440,1440,8-20-2022,10-29-59,54,depth_duration_stimuli/002340_2014-06-28_20-05-46_260595134347_rgbf000113-resize_0/002340_2014-06-28_20-05-46_260595134347_rgbf000113-resize_0-target.png,250,2.4735,8.0,2210,246,feet,jsons/v1_VE250_randls_39_rotated.json,530051,683782,29,Man
54,963837,DepthScenes,duration_manipulation_targetAtFixation,jsons/v1_VE250_randls_39_rotated.json,http://54.235.29.9/FacialAge/BNav_EC2/DepthDuration/v2_depth_duration_MTurk/v2_DepthDuration_HTML.html#98,98,3440,1289,3440,1440,8-20-2022,10-29-59,55,depth_duration_stimuli/001016_2014-06-09_16-16-10_260595134347_rgbf000112-resize_5/001016_2014-06-09_16-16-10_260595134347_rgbf000112-resize_5-target.png,250,1.6565,7.0,2273,246,feet,jsons/v1_VE250_randls_39_rotated.json,530051,683782,29,Man
55,963837,DepthScenes,duration_manipulation_targetAtFixation,jsons/v1_VE250_randls_39_rotated.json,http://54.235.29.9/FacialAge/BNav_EC2/DepthDuration/v2_depth_duration_MTurk/v2_DepthDuration_HTML.html#98,98,3440,1289,3440,1440,8-20-2022,10-29-59,56,depth_duration_stimuli/003338_2014-05-20_11-01-23_094959634447_rgbf000051-resize_6/003338_2014-05-20_11-01-23_094959634447_rgbf000051-resize_6-target.png,250,1.693,4.0,2830,246,feet,jsons/v1_VE250_randls_39_rotated.json,530051,683782,29,Man
56,963837,DepthScenes,duration_manipulation_targetAtFixation,jsons/v1_VE250_randls_39_rotated.json,http://54.235.29.9/FacialAge/BNav_EC2/DepthDuration/v2_depth_duration_MTurk/v2_DepthDuration_HTML.html#98,98,3440,1289,3440,1440,8-20-2022,10-29-59,57,depth_duration_stimuli/002509_2014-06-24_13-19-22_094959634447_rgbf000077-resize_0/002509_2014-06-24_13-19-22_094959634447_rgbf000077-resize_0-target.png,250,1.3065,3.5,2924,246,feet,jsons/v1_VE250_randls_39_rotated.json,530051,683782,29,Man
57,963837,DepthScenes,duration_manipulation_targetAtFixation,jsons/v1_VE250_randls_39_rotated.json,http://54.235.29.9/FacialAge/BNav_EC2/DepthDuration/v2_depth_duration_MTurk/v2_DepthDuration_HTML.html#98,98,3440,1289,3440,1440,8-20-2022,10-29-59,58,depth_duration_stimuli/000734_2014-06-08_17-39-11_260595134347_rgbf000128-resize_2/000734_2014-06-08_17-39-11_260595134347_rgbf000128-resize_2-target.png,250,4.098,6.5,2716,247,feet,jsons/v1_VE250_randls_39_rotated.json,530051,683782,29,Man
58,963837,DepthScenes,duration_manipulation_targetAtFixation,jsons/v1_VE250_randls_39_rotated.json,http://54.235.29.9/FacialAge/BNav_EC2/DepthDuration/v2_depth_duration_MTurk/v2_DepthDuration_HTML.html#98,98,3440,1289,3440,1440,8-20-2022,10-29-59,59,depth_duration_stimuli/000739_2014-06-08_18-45-58_260595134347_rgbf000068-resize_1/000739_2014-06-08_18-45-58_260595134347_rgbf000068-resize_1-target.png,250,3.534,7.0,2202,246,feet,jsons/v1_VE250_randls_39_rotated.json,530051,683782,29,Man
59,963837,DepthScenes,duration_manipulation_targetAtFixation,jsons/v1_VE250_randls_39_rotated.json,http://54.235.29.9/FacialAge/BNav_EC2/DepthDuration/v2_depth_duration_MTurk/v2_DepthDuration_HTML.html#98,98,3440,1289,3440,1440,8-20-2022,10-29-59,60,depth_duration_stimuli/002750_2014-06-22_19-08-03_094959634447_rgbf000094-resize_4/002750_2014-06-22_19-08-03_094959634447_rgbf000094-resize_4-target.png,250,2.354,7.0,1833,247,feet,jsons/v1_VE250_randls_39_rotated.json,530051,683782,29,Man
60,963837,DepthScenes,duration_manipulation_targetAtFixation,jsons/v1_VE250_randls_39_rotated.json,http://54.235.29.9/FacialAge/BNav_EC2/DepthDuration/v2_depth_duration_MTurk/v2_DepthDuration_HTML.html#98,98,3440,1289,3440,1440,8-20-2022,10-29-59,61,depth_duration_stimuli/002549_2014-06-24_13-41-39_094959634447_rgbf000022-resize_3/002549_2014-06-24_13-41-39_094959634447_rgbf000022-resize_3-target.png,250,1.476,6.0,2446,246,feet,jsons/v1_VE250_randls_39_rotated.json,530051,683782,29,Man
61,963837,DepthScenes,duration_manipulation_targetAtFixation,jsons/v1_VE250_randls_39_rotated.json,http://54.235.29.9/FacialAge/BNav_EC2/DepthDuration/v2_depth_duration_MTurk/v2_DepthDuration_HTML.html#98,98,3440,1289,3440,1440,8-20-2022,10-29-59,62,depth_duration_stimuli/003228_2014-05-14_13-42-35_094959634447_rgbf000101-resize_1/003228_2014-05-14_13-42-35_094959634447_rgbf000101-resize_1-target.png,250,1.9680000000000002,5.0,2817,246,feet,jsons/v1_VE250_randls_39_rotated.json,530051,683782,29,Man
62,963837,DepthScenes,duration_manipulation_targetAtFixation,jsons/v1_VE250_randls_39_rotated.json,http://54.235.29.9/FacialAge/BNav_EC2/DepthDuration/v2_depth_duration_MTurk/v2_DepthDuration_HTML.html#98,98,3440,1289,3440,1440,8-20-2022,10-29-59,63,depth_duration_stimuli/002600_2014-06-24_14-27-04_094959634447_rgbf000074-resize_2/002600_2014-06-24_14-27-04_094959634447_rgbf000074-resize_2-target.png,250,2.7575,5.5,4629,261,feet,jsons/v1_VE250_randls_39_rotated.json,530051,683782,29,Man
63,963837,DepthScenes,duration_manipulation_targetAtFixation,jsons/v1_VE250_randls_39_rotated.json,http://54.235.29.9/FacialAge/BNav_EC2/DepthDuration/v2_depth_duration_MTurk/v2_DepthDuration_HTML.html#98,98,3440,1289,3440,1440,8-20-2022,10-29-59,64,depth_duration_stimuli/000665_2014-06-09_20-42-35_260595134347_rgbf000110-resize_1/000665_2014-06-09_20-42-35_260595134347_rgbf000110-resize_1-target.png,250,3.057,6.5,4270,246,feet,jsons/v1_VE250_randls_39_rotated.json,530051,683782,29,Man
64,963837,DepthScenes,duration_manipulation_targetAtFixation,jsons/v1_VE250_randls_39_rotated.json,http://54.235.29.9/FacialAge/BNav_EC2/DepthDuration/v2_depth_duration_MTurk/v2_DepthDuration_HTML.html#98,98,3440,1289,3440,1440,8-20-2022,10-29-59,65,depth_duration_stimuli/001150_2014-06-17_15-27-34_260595134347_rgbf000108-resize_2/001150_2014-06-17_15-27-34_260595134347_rgbf000108-resize_2-target.png,250,4.0325,7.0,4901,246,feet,jsons/v1_VE250_randls_39_rotated.json,530051,683782,29,Man
65,963837,DepthScenes,duration_manipulation_targetAtFixation,jsons/v1_VE250_randls_39_rotated.json,http://54.235.29.9/FacialAge/BNav_EC2/DepthDuration/v2_depth_duration_MTurk/v2_DepthDuration_HTML.html#98,98,3440,1289,3440,1440,8-20-2022,10-29-59,66,depth_duration_stimuli/001540_2014-06-20_17-01-05_260595134347_rgbf000086-resize_2/001540_2014-06-20_17-01-05_260595134347_rgbf000086-resize-original.jpg,250,1.459,0.0,2374,247,feet,jsons/v1_VE250_randls_39_rotated.json,530051,683782,29,Man
66,963837,DepthScenes,duration_manipulation_targetAtFixation,jsons/v1_VE250_randls_39_rotated.json,http://54.235.29.9/FacialAge/BNav_EC2/DepthDuration/v2_depth_duration_MTurk/v2_DepthDuration_HTML.html#98,98,3440,1289,3440,1440,8-20-2022,10-29-59,67,depth_duration_stimuli/003495_2014-05-21_16-01-51_094959634447_rgbf000100-resize_3/003495_2014-05-21_16-01-51_094959634447_rgbf000100-resize_3-target.png,250,1.6255,3.5,3140,262,feet,jsons/v1_VE250_randls_39_rotated.json,530051,683782,29,Man
67,963837,DepthScenes,duration_manipulation_targetAtFixation,jsons/v1_VE250_randls_39_rotated.json,http://54.235.29.9/FacialAge/BNav_EC2/DepthDuration/v2_depth_duration_MTurk/v2_DepthDuration_HTML.html#98,98,3440,1289,3440,1440,8-20-2022,10-29-59,68,depth_duration_stimuli/001244_2014-06-17_16-47-45_260595134347_rgbf000030-resize_4/001244_2014-06-17_16-47-45_260595134347_rgbf000030-resize_4-target.png,250,2.0425,4.0,2625,249,feet,jsons/v1_VE250_randls_39_rotated.json,530051,683782,29,Man
68,963837,DepthScenes,duration_manipulation_targetAtFixation,jsons/v1_VE250_randls_39_rotated.json,http://54.235.29.9/FacialAge/BNav_EC2/DepthDuration/v2_depth_duration_MTurk/v2_DepthDuration_HTML.html#98,98,3440,1289,3440,1440,8-20-2022,10-29-59,69,depth_duration_stimuli/002639_2014-06-24_14-51-37_094959634447_rgbf000074-resize_4/002639_2014-06-24_14-51-37_094959634447_rgbf000074-resize_4-target.png,250,4.0375,8.0,2572,245,feet,jsons/v1_VE250_randls_39_rotated.json,530051,683782,29,Man
69,963837,DepthScenes,duration_manipulation_targetAtFixation,jsons/v1_VE250_randls_39_rotated.json,http://54.235.29.9/FacialAge/BNav_EC2/DepthDuration/v2_depth_duration_MTurk/v2_DepthDuration_HTML.html#98,98,3440,1289,3440,1440,8-20-2022,10-29-59,70,depth_duration_stimuli/003292_2014-05-14_21-53-49_094959634447_rgbf000100-resize_2/003292_2014-05-14_21-53-49_094959634447_rgbf000100-resize_2-target.png,250,3.4815,6.0,1907,245,feet,jsons/v1_VE250_randls_39_rotated.json,530051,683782,29,Man
70,963837,DepthScenes,duration_manipulation_targetAtFixation,jsons/v1_VE250_randls_39_rotated.json,http://54.235.29.9/FacialAge/BNav_EC2/DepthDuration/v2_depth_duration_MTurk/v2_DepthDuration_HTML.html#98,98,3440,1289,3440,1440,8-20-2022,10-29-59,71,depth_duration_stimuli/002199_2014-06-28_18-33-56_260595134347_rgbf000074-resize_0/002199_2014-06-28_18-33-56_260595134347_rgbf000074-resize_0-target.png,250,1.996,2.5,2120,245,feet,jsons/v1_VE250_randls_39_rotated.json,530051,683782,29,Man
71,963837,DepthScenes,duration_manipulation_targetAtFixation,jsons/v1_VE250_randls_39_rotated.json,http://54.235.29.9/FacialAge/BNav_EC2/DepthDuration/v2_depth_duration_MTurk/v2_DepthDuration_HTML.html#98,98,3440,1289,3440,1440,8-20-2022,10-29-59,72,depth_duration_stimuli/001056_2014-06-08_18-46-44_260595134347_rgbf000068-resize_0/001056_2014-06-08_18-46-44_260595134347_rgbf000068-resize_0-target.png,250,2.6625,6.5,2471,245,feet,jsons/v1_VE250_randls_39_rotated.json,530051,683782,29,Man
72,963837,DepthScenes,duration_manipulation_targetAtFixation,jsons/v1_VE250_randls_39_rotated.json,http://54.235.29.9/FacialAge/BNav_EC2/DepthDuration/v2_depth_duration_MTurk/v2_DepthDuration_HTML.html#98,98,3440,1289,3440,1440,8-20-2022,10-29-59,73,depth_duration_stimuli/001815_2014-06-26_20-52-55_260595134347_rgbf000020-resize_0/001815_2014-06-26_20-52-55_260595134347_rgbf000020-resize_0-target.png,250,3.3865,8.0,2123,246,feet,jsons/v1_VE250_randls_39_rotated.json,530051,683782,29,Man
73,963837,DepthScenes,duration_manipulation_targetAtFixation,jsons/v1_VE250_randls_39_rotated.json,http://54.235.29.9/FacialAge/BNav_EC2/DepthDuration/v2_depth_duration_MTurk/v2_DepthDuration_HTML.html#98,98,3440,1289,3440,1440,8-20-2022,10-29-59,74,depth_duration_stimuli/001808_2014-06-26_20-50-58_260595134347_rgbf000029-resize_1/001808_2014-06-26_20-50-58_260595134347_rgbf000029-resize_1-target.png,250,4.249,5.0,4251,246,feet,jsons/v1_VE250_randls_39_rotated.json,530051,683782,29,Man
74,963837,DepthScenes,duration_manipulation_targetAtFixation,jsons/v1_VE250_randls_39_rotated.json,http://54.235.29.9/FacialAge/BNav_EC2/DepthDuration/v2_depth_duration_MTurk/v2_DepthDuration_HTML.html#98,98,3440,1289,3440,1440,8-20-2022,10-29-59,75,depth_duration_stimuli/002425_2014-06-28_20-27-29_260595134347_rgbf000031-resize_8/002425_2014-06-28_20-27-29_260595134347_rgbf000031-resize_8-target.png,250,3.8960000000000004,6.5,4738,245,feet,jsons/v1_VE250_randls_39_rotated.json,530051,683782,29,Man
75,963837,DepthScenes,duration_manipulation_targetAtFixation,jsons/v1_VE250_randls_39_rotated.json,http://54.235.29.9/FacialAge/BNav_EC2/DepthDuration/v2_depth_duration_MTurk/v2_DepthDuration_HTML.html#98,98,3440,1289,3440,1440,8-20-2022,10-29-59,76,depth_duration_stimuli/000642_2014-06-08_16-59-25_260595134347_rgbf000098-resize_2/000642_2014-06-08_16-59-25_260595134347_rgbf000098-resize_2-target.png,250,2.8815,5.5,2746,246,feet,jsons/v1_VE250_randls_39_rotated.json,530051,683782,29,Man
76,963837,DepthScenes,duration_manipulation_targetAtFixation,jsons/v1_VE250_randls_39_rotated.json,http://54.235.29.9/FacialAge/BNav_EC2/DepthDuration/v2_depth_duration_MTurk/v2_DepthDuration_HTML.html#98,98,3440,1289,3440,1440,8-20-2022,10-29-59,77,depth_duration_stimuli/001450_2014-06-19_17-02-03_260595134347_rgbf000203-resize_4/001450_2014-06-19_17-02-03_260595134347_rgbf000203-resize_4-target.png,250,4.0106666666667,9.0,2371,246,feet,jsons/v1_VE250_randls_39_rotated.json,530051,683782,29,Man
77,963837,DepthScenes,duration_manipulation_targetAtFixation,jsons/v1_VE250_randls_39_rotated.json,http://54.235.29.9/FacialAge/BNav_EC2/DepthDuration/v2_depth_duration_MTurk/v2_DepthDuration_HTML.html#98,98,3440,1289,3440,1440,8-20-2022,10-29-59,78,depth_duration_stimuli/001449_2014-06-19_17-01-27_260595134347_rgbf000116-resize_2/001449_2014-06-19_17-01-27_260595134347_rgbf000116-resize_2-target.png,250,3.452,8.0,2332,262,feet,jsons/v1_VE250_randls_39_rotated.json,530051,683782,29,Man
78,963837,DepthScenes,duration_manipulation_targetAtFixation,jsons/v1_VE250_randls_39_rotated.json,http://54.235.29.9/FacialAge/BNav_EC2/DepthDuration/v2_depth_duration_MTurk/v2_DepthDuration_HTML.html#98,98,3440,1289,3440,1440,8-20-2022,10-29-59,79,depth_duration_stimuli/000780_2014-06-08_22-28-29_260595134347_rgbf000126-resize_1/000780_2014-06-08_22-28-29_260595134347_rgbf000126-resize_1-target.png,250,3.3825,9.0,2352,247,feet,jsons/v1_VE250_randls_39_rotated.json,530051,683782,29,Man
79,963837,DepthScenes,duration_manipulation_targetAtFixation,jsons/v1_VE250_randls_39_rotated.json,http://54.235.29.9/FacialAge/BNav_EC2/DepthDuration/v2_depth_duration_MTurk/v2_DepthDuration_HTML.html#98,98,3440,1289,3440,1440,8-20-2022,10-29-59,80,depth_duration_stimuli/002445_2014-06-28_20-32-16_260595134347_rgbf000029-resize_4/002445_2014-06-28_20-32-16_260595134347_rgbf000029-resize_4-target.png,250,2.5315,5.0,2171,245,feet,jsons/v1_VE250_randls_39_rotated.json,530051,683782,29,Man
80,963837,DepthScenes,duration_manipulation_targetAtFixation,jsons/v1_VE250_randls_39_rotated.json,http://54.235.29.9/FacialAge/BNav_EC2/DepthDuration/v2_depth_duration_MTurk/v2_DepthDuration_HTML.html#98,98,3440,1289,3440,1440,8-20-2022,10-29-59,81,depth_duration_stimuli/000635_2014-06-08_16-38-42_260595134347_rgbf000106-resize_1/000635_2014-06-08_16-38-42_260595134347_rgbf000106-resize_1-target.png,250,2.074,7.0,2241,261,feet,jsons/v1_VE250_randls_39_rotated.json,530051,683782,29,Man
81,963837,DepthScenes,duration_manipulation_targetAtFixation,jsons/v1_VE250_randls_39_rotated.json,http://54.235.29.9/FacialAge/BNav_EC2/DepthDuration/v2_depth_duration_MTurk/v2_DepthDuration_HTML.html#98,98,3440,1289,3440,1440,8-20-2022,10-29-59,82,depth_duration_stimuli/002279_2014-06-28_18-55-32_260595134347_rgbf000040-resize_5/002279_2014-06-28_18-55-32_260595134347_rgbf000040-resize_5-target.png,250,1.5043333333333,4.5,4320,247,feet,jsons/v1_VE250_randls_39_rotated.json,530051,683782,29,Man
82,963837,DepthScenes,duration_manipulation_targetAtFixation,jsons/v1_VE250_randls_39_rotated.json,http://54.235.29.9/FacialAge/BNav_EC2/DepthDuration/v2_depth_duration_MTurk/v2_DepthDuration_HTML.html#98,98,3440,1289,3440,1440,8-20-2022,10-29-59,83,depth_duration_stimuli/000854_2014-06-09_19-43-13_260595134347_rgbf000066-resize_0/000854_2014-06-09_19-43-13_260595134347_rgbf000066-resize_0-target.png,250,3.068,4.0,3456,246,feet,jsons/v1_VE250_randls_39_rotated.json,530051,683782,29,Man
83,963837,DepthScenes,duration_manipulation_targetAtFixation,jsons/v1_VE250_randls_39_rotated.json,http://54.235.29.9/FacialAge/BNav_EC2/DepthDuration/v2_depth_duration_MTurk/v2_DepthDuration_HTML.html#98,98,3440,1289,3440,1440,8-20-2022,10-29-59,84,depth_duration_stimuli/000758_2014-06-08_22-05-08_260595134347_rgbf000085-resize_0/000758_2014-06-08_22-05-08_260595134347_rgbf000085-resize_0-target.png,250,3.3810000000000002,8.0,3046,241,feet,jsons/v1_VE250_randls_39_rotated.json,530051,683782,29,Man
84,963837,DepthScenes,duration_manipulation_targetAtFixation,jsons/v1_VE250_randls_39_rotated.json,http://54.235.29.9/FacialAge/BNav_EC2/DepthDuration/v2_depth_duration_MTurk/v2_DepthDuration_HTML.html#98,98,3440,1289,3440,1440,8-20-2022,10-29-59,85,depth_duration_stimuli/003423_2014-05-21_10-23-26_094959634447_rgbf002665-resize_2/003423_2014-05-21_10-23-26_094959634447_rgbf002665-resize_2-target.png,250,3.2575,9.0,2771,247,feet,jsons/v1_VE250_randls_39_rotated.json,530051,683782,29,Man
85,963837,DepthScenes,duration_manipulation_targetAtFixation,jsons/v1_VE250_randls_39_rotated.json,http://54.235.29.9/FacialAge/BNav_EC2/DepthDuration/v2_depth_duration_MTurk/v2_DepthDuration_HTML.html#98,98,3440,1289,3440,1440,8-20-2022,10-29-59,86,depth_duration_stimuli/002905_2014-06-03_18-04-43_094959634447_rgbf000151-resize_2/002905_2014-06-03_18-04-43_094959634447_rgbf000151-resize_2-target.png,250,2.0295,3.0,2143,247,feet,jsons/v1_VE250_randls_39_rotated.json,530051,683782,29,Man
86,963837,DepthScenes,duration_manipulation_targetAtFixation,jsons/v1_VE250_randls_39_rotated.json,http://54.235.29.9/FacialAge/BNav_EC2/DepthDuration/v2_depth_duration_MTurk/v2_DepthDuration_HTML.html#98,98,3440,1289,3440,1440,8-20-2022,10-29-59,87,depth_duration_stimuli/000502_2014-06-08_23-02-32_260595134347_rgbf000063-resize_4/000502_2014-06-08_23-02-32_260595134347_rgbf000063-resize_4-target.png,250,2.431,4.0,2140,246,feet,jsons/v1_VE250_randls_39_rotated.json,530051,683782,29,Man
87,963837,DepthScenes,duration_manipulation_targetAtFixation,jsons/v1_VE250_randls_39_rotated.json,http://54.235.29.9/FacialAge/BNav_EC2/DepthDuration/v2_depth_duration_MTurk/v2_DepthDuration_HTML.html#98,98,3440,1289,3440,1440,8-20-2022,10-29-59,88,depth_duration_stimuli/001199_2014-06-17_16-03-48_260595134347_rgbf000077-resize_0/001199_2014-06-17_16-03-48_260595134347_rgbf000077-resize_0-target.png,250,3.4375,7.0,2240,262,feet,jsons/v1_VE250_randls_39_rotated.json,530051,683782,29,Man
88,963837,DepthScenes,duration_manipulation_targetAtFixation,jsons/v1_VE250_randls_39_rotated.json,http://54.235.29.9/FacialAge/BNav_EC2/DepthDuration/v2_depth_duration_MTurk/v2_DepthDuration_HTML.html#98,98,3440,1289,3440,1440,8-20-2022,10-29-59,89,depth_duration_stimuli/000483_2014-06-09_20-41-45_260595134347_rgbf000116-resize_4/000483_2014-06-09_20-41-45_260595134347_rgbf000116-resize_4-target.png,250,1.337,3.0,2103,246,feet,jsons/v1_VE250_randls_39_rotated.json,530051,683782,29,Man
89,963837,DepthScenes,duration_manipulation_targetAtFixation,jsons/v1_VE250_randls_39_rotated.json,http://54.235.29.9/FacialAge/BNav_EC2/DepthDuration/v2_depth_duration_MTurk/v2_DepthDuration_HTML.html#98,98,3440,1289,3440,1440,8-20-2022,10-29-59,90,depth_duration_stimuli/000469_2014-06-09_19-42-10_260595134347_rgbf000081-resize_1/000469_2014-06-09_19-42-10_260595134347_rgbf000081-resize_1-target.png,250,1.652,3.0,5191,246,feet,jsons/v1_VE250_randls_39_rotated.json,530051,683782,29,Man
90,963837,DepthScenes,duration_manipulation_targetAtFixation,jsons/v1_VE250_randls_39_rotated.json,http://54.235.29.9/FacialAge/BNav_EC2/DepthDuration/v2_depth_duration_MTurk/v2_DepthDuration_HTML.html#98,98,3440,1289,3440,1440,8-20-2022,10-29-59,91,depth_duration_stimuli/000109_2014-05-14_23-41-52_260595134347_rgbf000035-resize_9/000109_2014-05-14_23-41-52_260595134347_rgbf000035-resize_9-target.png,250,1.3545,3.0,3575,261,feet,jsons/v1_VE250_randls_39_rotated.json,530051,683782,29,Man
91,963837,DepthScenes,duration_manipulation_targetAtFixation,jsons/v1_VE250_randls_39_rotated.json,http://54.235.29.9/FacialAge/BNav_EC2/DepthDuration/v2_depth_duration_MTurk/v2_DepthDuration_HTML.html#98,98,3440,1289,3440,1440,8-20-2022,10-29-59,92,depth_duration_stimuli/000470_2014-06-09_19-42-40_260595134347_rgbf000094-resize_1/000470_2014-06-09_19-42-40_260595134347_rgbf000094-resize_1-target.png,250,1.831,3.0,1715,260,feet,jsons/v1_VE250_randls_39_rotated.json,530051,683782,29,Man
92,963837,DepthScenes,duration_manipulation_targetAtFixation,jsons/v1_VE250_randls_39_rotated.json,http://54.235.29.9/FacialAge/BNav_EC2/DepthDuration/v2_depth_duration_MTurk/v2_DepthDuration_HTML.html#98,98,3440,1289,3440,1440,8-20-2022,10-29-59,93,depth_duration_stimuli/000677_2014-06-08_23-10-32_260595134347_rgbf000158-resize_6/000677_2014-06-08_23-10-32_260595134347_rgbf000158-resize_6-target.png,250,3.556,6.0,2180,245,feet,jsons/v1_VE250_randls_39_rotated.json,530051,683782,29,Man
93,963837,DepthScenes,duration_manipulation_targetAtFixation,jsons/v1_VE250_randls_39_rotated.json,http://54.235.29.9/FacialAge/BNav_EC2/DepthDuration/v2_depth_duration_MTurk/v2_DepthDuration_HTML.html#98,98,3440,1289,3440,1440,8-20-2022,10-29-59,94,depth_duration_stimuli/001029_2014-06-08_13-17-57_260595134347_rgbf000065-resize_1/001029_2014-06-08_13-17-57_260595134347_rgbf000065-resize_1-target.png,250,3.0835,7.0,5769,246,feet,jsons/v1_VE250_randls_39_rotated.json,530051,683782,29,Man
94,963837,DepthScenes,duration_manipulation_targetAtFixation,jsons/v1_VE250_randls_39_rotated.json,http://54.235.29.9/FacialAge/BNav_EC2/DepthDuration/v2_depth_duration_MTurk/v2_DepthDuration_HTML.html#98,98,3440,1289,3440,1440,8-20-2022,10-29-59,95,depth_duration_stimuli/002953_2014-06-08_17-32-18_094959634447_rgbf000059-resize_5/002953_2014-06-08_17-32-18_094959634447_rgbf000059-resize_5-target.png,250,1.551,5.0,2214,245,feet,jsons/v1_VE250_randls_39_rotated.json,530051,683782,29,Man
95,963837,DepthScenes,duration_manipulation_targetAtFixation,jsons/v1_VE250_randls_39_rotated.json,http://54.235.29.9/FacialAge/BNav_EC2/DepthDuration/v2_depth_duration_MTurk/v2_DepthDuration_HTML.html#98,98,3440,1289,3440,1440,8-20-2022,10-29-59,96,depth_duration_stimuli/000878_2014-06-08_22-52-45_260595134347_rgbf000045-resize_2/000878_2014-06-08_22-52-45_260595134347_rgbf000045-resize_2-target.png,250,2.092,6.0,2191,261,feet,jsons/v1_VE250_randls_39_rotated.json,530051,683782,29,Man
96,963837,DepthScenes,duration_manipulation_targetAtFixation,jsons/v1_VE250_randls_39_rotated.json,http://54.235.29.9/FacialAge/BNav_EC2/DepthDuration/v2_depth_duration_MTurk/v2_DepthDuration_HTML.html#98,98,3440,1289,3440,1440,8-20-2022,10-29-59,97,depth_duration_stimuli/001132_2014-06-17_14-48-54_260595134347_rgbf000100-resize_2/001132_2014-06-17_14-48-54_260595134347_rgbf000100-resize_2-target.png,250,3.753,8.5,2506,246,feet,jsons/v1_VE250_randls_39_rotated.json,530051,683782,29,Man
97,963837,DepthScenes,duration_manipulation_targetAtFixation,jsons/v1_VE250_randls_39_rotated.json,http://54.235.29.9/FacialAge/BNav_EC2/DepthDuration/v2_depth_duration_MTurk/v2_DepthDuration_HTML.html#98,98,3440,1289,3440,1440,8-20-2022,10-29-59,98,depth_duration_stimuli/001133_2014-06-17_14-49-16_260595134347_rgbf000100-resize_0/001133_2014-06-17_14-49-16_260595134347_rgbf000100-resize_0-target.png,250,4.2115,9.0,2475,245,feet,jsons/v1_VE250_randls_39_rotated.json,530051,683782,29,Man
98,963837,DepthScenes,duration_manipulation_targetAtFixation,jsons/v1_VE250_randls_39_rotated.json,http://54.235.29.9/FacialAge/BNav_EC2/DepthDuration/v2_depth_duration_MTurk/v2_DepthDuration_HTML.html#98,98,3440,1289,3440,1440,8-20-2022,10-29-59,99,depth_duration_stimuli/001222_2014-06-17_16-24-06_260595134347_rgbf000073-resize_0/001222_2014-06-17_16-24-06_260595134347_rgbf000073-resize-original.jpg,250,1.4385,0.0,2570,260,feet,jsons/v1_VE250_randls_39_rotated.json,530051,683782,29,Man
99,963837,DepthScenes,duration_manipulation_targetAtFixation,jsons/v1_VE250_randls_39_rotated.json,http://54.235.29.9/FacialAge/BNav_EC2/DepthDuration/v2_depth_duration_MTurk/v2_DepthDuration_HTML.html#98,98,3440,1289,3440,1440,8-20-2022,10-29-59,100,depth_duration_stimuli/001094_2014-06-15_17-36-00_260595134347_rgbf000205-resize_0/001094_2014-06-15_17-36-00_260595134347_rgbf000205-resize_0-target.png,250,4.2175,8.0,2280,261,feet,jsons/v1_VE250_randls_39_rotated.json,530051,683782,29,Man
100,963837,DepthScenes,duration_manipulation_targetAtFixation,jsons/v1_VE250_randls_39_rotated.json,http://54.235.29.9/FacialAge/BNav_EC2/DepthDuration/v2_depth_duration_MTurk/v2_DepthDuration_HTML.html#98,98,3440,1289,3440,1440,8-20-2022,10-29-59,101,depth_duration_stimuli/000692_2014-06-08_13-09-42_260595134347_rgbf000199-resize_2/000692_2014-06-08_13-09-42_260595134347_rgbf000199-resize_2-target.png,250,3.661,9.0,2217,246,feet,jsons/v1_VE250_randls_39_rotated.json,530051,683782,29,Man
101,963837,DepthScenes,duration_manipulation_targetAtFixation,jsons/v1_VE250_randls_39_rotated.json,http://54.235.29.9/FacialAge/BNav_EC2/DepthDuration/v2_depth_duration_MTurk/v2_DepthDuration_HTML.html#98,98,3440,1289,3440,1440,8-20-2022,10-29-59,102,depth_duration_stimuli/002467_2014-06-28_20-38-07_260595134347_rgbf000026-resize_2/002467_2014-06-28_20-38-07_260595134347_rgbf000026-resize_2-target.png,250,4.742,9.0,2791,245,feet,jsons/v1_VE250_randls_39_rotated.json,530051,683782,29,Man
102,963837,DepthScenes,duration_manipulation_targetAtFixation,jsons/v1_VE250_randls_39_rotated.json,http://54.235.29.9/FacialAge/BNav_EC2/DepthDuration/v2_depth_duration_MTurk/v2_DepthDuration_HTML.html#98,98,3440,1289,3440,1440,8-20-2022,10-29-59,103,depth_duration_stimuli/002570_2014-06-24_13-59-54_094959634447_rgbf000059-resize_0/002570_2014-06-24_13-59-54_094959634447_rgbf000059-resize_0-target.png,250,4.037,8.0,1986,246,feet,jsons/v1_VE250_randls_39_rotated.json,530051,683782,29,Man
103,963837,DepthScenes,duration_manipulation_targetAtFixation,jsons/v1_VE250_randls_39_rotated.json,http://54.235.29.9/FacialAge/BNav_EC2/DepthDuration/v2_depth_duration_MTurk/v2_DepthDuration_HTML.html#98,98,3440,1289,3440,1440,8-20-2022,10-29-59,104,depth_duration_stimuli/002805_2014-06-22_19-54-03_094959634447_rgbf000079-resize_1/002805_2014-06-22_19-54-03_094959634447_rgbf000079-resize_1-target.png,250,3.1439999999999997,8.0,2174,245,feet,jsons/v1_VE250_randls_39_rotated.json,530051,683782,29,Man
104,963837,DepthScenes,duration_manipulation_targetAtFixation,jsons/v1_VE250_randls_39_rotated.json,http://54.235.29.9/FacialAge/BNav_EC2/DepthDuration/v2_depth_duration_MTurk/v2_DepthDuration_HTML.html#98,98,3440,1289,3440,1440,8-20-2022,10-29-59,105,depth_duration_stimuli/000906_2014-06-08_13-35-43_260595134347_rgbf000155-resize_1/000906_2014-06-08_13-35-43_260595134347_rgbf000155-resize_1-target.png,250,2.8489999999999998,0.0,2078,261,feet,jsons/v1_VE250_randls_39_rotated.json,530051,683782,29,Man
105,963837,DepthScenes,duration_manipulation_targetAtFixation,jsons/v1_VE250_randls_39_rotated.json,http://54.235.29.9/FacialAge/BNav_EC2/DepthDuration/v2_depth_duration_MTurk/v2_DepthDuration_HTML.html#98,98,3440,1289,3440,1440,8-20-2022,10-29-59,106,depth_duration_stimuli/003081_2014-06-15_15-19-16_094959634447_rgbf000150-resize_1/003081_2014-06-15_15-19-16_094959634447_rgbf000150-resize_1-target.png,250,3.9125,8.0,2175,247,feet,jsons/v1_VE250_randls_39_rotated.json,530051,683782,29,Man
106,963837,DepthScenes,duration_manipulation_targetAtFixation,jsons/v1_VE250_randls_39_rotated.json,http://54.235.29.9/FacialAge/BNav_EC2/DepthDuration/v2_depth_duration_MTurk/v2_DepthDuration_HTML.html#98,98,3440,1289,3440,1440,8-20-2022,10-29-59,107,depth_duration_stimuli/001417_2014-06-19_16-25-36_260595134347_rgbf000115-resize_5/001417_2014-06-19_16-25-36_260595134347_rgbf000115-resize_5-target.png,250,4.6255,9.0,2481,263,feet,jsons/v1_VE250_randls_39_rotated.json,530051,683782,29,Man
107,963837,DepthScenes,duration_manipulation_targetAtFixation,jsons/v1_VE250_randls_39_rotated.json,http://54.235.29.9/FacialAge/BNav_EC2/DepthDuration/v2_depth_duration_MTurk/v2_DepthDuration_HTML.html#98,98,3440,1289,3440,1440,8-20-2022,10-29-59,108,depth_duration_stimuli/001571_2014-06-20_17-21-32_260595134347_rgbf000089-resize_1/001571_2014-06-20_17-21-32_260595134347_rgbf000089-resize_1-target.png,250,1.86,3.0,3742,261,feet,jsons/v1_VE250_randls_39_rotated.json,530051,683782,29,Man
108,963837,DepthScenes,duration_manipulation_targetAtFixation,jsons/v1_VE250_randls_39_rotated.json,http://54.235.29.9/FacialAge/BNav_EC2/DepthDuration/v2_depth_duration_MTurk/v2_DepthDuration_HTML.html#98,98,3440,1289,3440,1440,8-20-2022,10-29-59,109,depth_duration_stimuli/002272_2014-06-28_18-53-56_260595134347_rgbf000067-resize_2/002272_2014-06-28_18-53-56_260595134347_rgbf000067-resize_2-target.png,250,1.138,2.0,2207,260,feet,jsons/v1_VE250_randls_39_rotated.json,530051,683782,29,Man
109,963837,DepthScenes,duration_manipulation_targetAtFixation,jsons/v1_VE250_randls_39_rotated.json,http://54.235.29.9/FacialAge/BNav_EC2/DepthDuration/v2_depth_duration_MTurk/v2_DepthDuration_HTML.html#98,98,3440,1289,3440,1440,8-20-2022,10-29-59,110,depth_duration_stimuli/003587_2014-05-23_16-48-02_094959634447_rgbf002384-resize_2/003587_2014-05-23_16-48-02_094959634447_rgbf002384-resize_2-target.png,250,1.357,2.0,1490,239,feet,jsons/v1_VE250_randls_39_rotated.json,530051,683782,29,Man
110,963837,DepthScenes,duration_manipulation_targetAtFixation,jsons/v1_VE250_randls_39_rotated.json,http://54.235.29.9/FacialAge/BNav_EC2/DepthDuration/v2_depth_duration_MTurk/v2_DepthDuration_HTML.html#98,98,3440,1289,3440,1440,8-20-2022,10-29-59,111,depth_duration_stimuli/001167_2014-06-17_15-38-07_260595134347_rgbf000108-resize_0/001167_2014-06-17_15-38-07_260595134347_rgbf000108-resize_0-target.png,250,1.8505,3.0,1584,253,feet,jsons/v1_VE250_randls_39_rotated.json,530051,683782,29,Man
111,963837,DepthScenes,duration_manipulation_targetAtFixation,jsons/v1_VE250_randls_39_rotated.json,http://54.235.29.9/FacialAge/BNav_EC2/DepthDuration/v2_depth_duration_MTurk/v2_DepthDuration_HTML.html#98,98,3440,1289,3440,1440,8-20-2022,10-29-59,112,depth_duration_stimuli/001650_2014-06-20_12-09-00_260595134347_rgbf000087-resize_3/001650_2014-06-20_12-09-00_260595134347_rgbf000087-resize_3-target.png,250,1.9505,2.0,3916,261,feet,jsons/v1_VE250_randls_39_rotated.json,530051,683782,29,Man
112,963837,DepthScenes,duration_manipulation_targetAtFixation,jsons/v1_VE250_randls_39_rotated.json,http://54.235.29.9/FacialAge/BNav_EC2/DepthDuration/v2_depth_duration_MTurk/v2_DepthDuration_HTML.html#98,98,3440,1289,3440,1440,8-20-2022,10-29-59,113,depth_duration_stimuli/000682_2014-06-08_23-14-58_260595134347_rgbf000041-resize_5/000682_2014-06-08_23-14-58_260595134347_rgbf000041-resize_5-target.png,250,2.7239999999999998,6.5,3958,245,feet,jsons/v1_VE250_randls_39_rotated.json,530051,683782,29,Man
113,963837,DepthScenes,duration_manipulation_targetAtFixation,jsons/v1_VE250_randls_39_rotated.json,http://54.235.29.9/FacialAge/BNav_EC2/DepthDuration/v2_depth_duration_MTurk/v2_DepthDuration_HTML.html#98,98,3440,1289,3440,1440,8-20-2022,10-29-59,114,depth_duration_stimuli/000709_2014-06-08_13-51-55_260595134347_rgbf000068-resize_3/000709_2014-06-08_13-51-55_260595134347_rgbf000068-resize_3-target.png,250,1.8030000000000002,5.5,2814,246,feet,jsons/v1_VE250_randls_39_rotated.json,530051,683782,29,Man
114,963837,DepthScenes,duration_manipulation_targetAtFixation,jsons/v1_VE250_randls_39_rotated.json,http://54.235.29.9/FacialAge/BNav_EC2/DepthDuration/v2_depth_duration_MTurk/v2_DepthDuration_HTML.html#98,98,3440,1289,3440,1440,8-20-2022,10-29-59,115,depth_duration_stimuli/002057_2014-06-24_21-00-13_260595134347_rgbf000120-resize_1/002057_2014-06-24_21-00-13_260595134347_rgbf000120-resize_1-target.png,250,2.967,7.0,2312,261,feet,jsons/v1_VE250_randls_39_rotated.json,530051,683782,29,Man
115,963837,DepthScenes,duration_manipulation_targetAtFixation,jsons/v1_VE250_randls_39_rotated.json,http://54.235.29.9/FacialAge/BNav_EC2/DepthDuration/v2_depth_duration_MTurk/v2_DepthDuration_HTML.html#98,98,3440,1289,3440,1440,8-20-2022,10-29-59,116,depth_duration_stimuli/002414_2014-06-28_20-24-58_260595134347_rgbf000067-resize_4/002414_2014-06-28_20-24-58_260595134347_rgbf000067-resize_4-target.png,250,4.363,8.0,1832,249,feet,jsons/v1_VE250_randls_39_rotated.json,530051,683782,29,Man
116,963837,DepthScenes,duration_manipulation_targetAtFixation,jsons/v1_VE250_randls_39_rotated.json,http://54.235.29.9/FacialAge/BNav_EC2/DepthDuration/v2_depth_duration_MTurk/v2_DepthDuration_HTML.html#98,98,3440,1289,3440,1440,8-20-2022,10-29-59,117,depth_duration_stimuli/000773_2014-06-08_22-24-54_260595134347_rgbf000093-resize_1/000773_2014-06-08_22-24-54_260595134347_rgbf000093-resize_1-target.png,250,4.973,8.5,3026,246,feet,jsons/v1_VE250_randls_39_rotated.json,530051,683782,29,Man
117,963837,DepthScenes,duration_manipulation_targetAtFixation,jsons/v1_VE250_randls_39_rotated.json,http://54.235.29.9/FacialAge/BNav_EC2/DepthDuration/v2_depth_duration_MTurk/v2_DepthDuration_HTML.html#98,98,3440,1289,3440,1440,8-20-2022,10-29-59,118,depth_duration_stimuli/000191_2014-05-12_17-07-38_260595134347_rgbf000199-resize_0/000191_2014-05-12_17-07-38_260595134347_rgbf000199-resize_0-target.png,250,3.7995,0.0,2652,245,feet,jsons/v1_VE250_randls_39_rotated.json,530051,683782,29,Man
118,963837,DepthScenes,duration_manipulation_targetAtFixation,jsons/v1_VE250_randls_39_rotated.json,http://54.235.29.9/FacialAge/BNav_EC2/DepthDuration/v2_depth_duration_MTurk/v2_DepthDuration_HTML.html#98,98,3440,1289,3440,1440,8-20-2022,10-29-59,119,depth_duration_stimuli/000493_2014-06-09_21-01-18_260595134347_rgbf000196-resize_3/000493_2014-06-09_21-01-18_260595134347_rgbf000196-resize_3-target.png,250,3.44,6.0,2815,261,feet,jsons/v1_VE250_randls_39_rotated.json,530051,683782,29,Man
119,963837,DepthScenes,duration_manipulation_targetAtFixation,jsons/v1_VE250_randls_39_rotated.json,http://54.235.29.9/FacialAge/BNav_EC2/DepthDuration/v2_depth_duration_MTurk/v2_DepthDuration_HTML.html#98,98,3440,1289,3440,1440,8-20-2022,10-29-59,120,depth_duration_stimuli/000787_2014-06-08_22-33-53_260595134347_rgbf000175-resize_1/000787_2014-06-08_22-33-53_260595134347_rgbf000175-resize-original.jpg,250,4.784,0.0,1739,246,feet,jsons/v1_VE250_randls_39_rotated.json,530051,683782,29,Man
120,963837,DepthScenes,duration_manipulation_targetAtFixation,jsons/v1_VE250_randls_39_rotated.json,http://54.235.29.9/FacialAge/BNav_EC2/DepthDuration/v2_depth_duration_MTurk/v2_DepthDuration_HTML.html#98,98,3440,1289,3440,1440,8-20-2022,10-29-59,121,depth_duration_stimuli/000927_2014-06-09_16-32-30_260595134347_rgbf000123-resize_3/000927_2014-06-09_16-32-30_260595134347_rgbf000123-resize_3-target.png,250,2.6785,6.0,2327,246,feet,jsons/v1_VE250_randls_39_rotated.json,530051,683782,29,Man
121,963837,DepthScenes,duration_manipulation_targetAtFixation,jsons/v1_VE250_randls_39_rotated.json,http://54.235.29.9/FacialAge/BNav_EC2/DepthDuration/v2_depth_duration_MTurk/v2_DepthDuration_HTML.html#98,98,3440,1289,3440,1440,8-20-2022,10-29-59,122,depth_duration_stimuli/001110_2014-06-15_17-25-28_260595134347_rgbf000150-resize_1/001110_2014-06-15_17-25-28_260595134347_rgbf000150-resize_1-target.png,250,1.7115,4.0,2726,262,feet,jsons/v1_VE250_randls_39_rotated.json,530051,683782,29,Man
122,963837,DepthScenes,duration_manipulation_targetAtFixation,jsons/v1_VE250_randls_39_rotated.json,http://54.235.29.9/FacialAge/BNav_EC2/DepthDuration/v2_depth_duration_MTurk/v2_DepthDuration_HTML.html#98,98,3440,1289,3440,1440,8-20-2022,10-29-59,123,depth_duration_stimuli/000103_2014-05-14_22-01-17_260595134347_rgbf000152-resize_5/000103_2014-05-14_22-01-17_260595134347_rgbf000152-resize_5-target.png,250,1.993,6.0,2068,249,feet,jsons/v1_VE250_randls_39_rotated.json,530051,683782,29,Man
123,963837,DepthScenes,duration_manipulation_targetAtFixation,jsons/v1_VE250_randls_39_rotated.json,http://54.235.29.9/FacialAge/BNav_EC2/DepthDuration/v2_depth_duration_MTurk/v2_DepthDuration_HTML.html#98,98,3440,1289,3440,1440,8-20-2022,10-29-59,124,depth_duration_stimuli/001555_2014-06-20_17-12-10_260595134347_rgbf000065-resize_4/001555_2014-06-20_17-12-10_260595134347_rgbf000065-resize_4-target.png,250,1.633,2.5,4147,245,feet,jsons/v1_VE250_randls_39_rotated.json,530051,683782,29,Man
124,963837,DepthScenes,duration_manipulation_targetAtFixation,jsons/v1_VE250_randls_39_rotated.json,http://54.235.29.9/FacialAge/BNav_EC2/DepthDuration/v2_depth_duration_MTurk/v2_DepthDuration_HTML.html#98,98,3440,1289,3440,1440,8-20-2022,10-29-59,125,depth_duration_stimuli/001100_2014-06-15_17-46-26_260595134347_rgbf000225-resize_2/001100_2014-06-15_17-46-26_260595134347_rgbf000225-resize_2-target.png,250,2.24,2.0,2221,246,feet,jsons/v1_VE250_randls_39_rotated.json,530051,683782,29,Man
125,963837,DepthScenes,duration_manipulation_targetAtFixation,jsons/v1_VE250_randls_39_rotated.json,http://54.235.29.9/FacialAge/BNav_EC2/DepthDuration/v2_depth_duration_MTurk/v2_DepthDuration_HTML.html#98,98,3440,1289,3440,1440,8-20-2022,10-29-59,126,depth_duration_stimuli/002784_2014-06-22_19-26-30_094959634447_rgbf000083-resize_3/002784_2014-06-22_19-26-30_094959634447_rgbf000083-resize_3-target.png,250,1.8046666666667,5.0,2166,245,feet,jsons/v1_VE250_randls_39_rotated.json,530051,683782,29,Man
126,963837,DepthScenes,duration_manipulation_targetAtFixation,jsons/v1_VE250_randls_39_rotated.json,http://54.235.29.9/FacialAge/BNav_EC2/DepthDuration/v2_depth_duration_MTurk/v2_DepthDuration_HTML.html#98,98,3440,1289,3440,1440,8-20-2022,10-29-59,127,depth_duration_stimuli/003129_2014-05-12_10-48-10_094959634447_rgbf000100-resize_0/003129_2014-05-12_10-48-10_094959634447_rgbf000100-resize_0-target.png,250,4.9305,9.0,2161,246,feet,jsons/v1_VE250_randls_39_rotated.json,530051,683782,29,Man
127,963837,DepthScenes,duration_manipulation_targetAtFixation,jsons/v1_VE250_randls_39_rotated.json,http://54.235.29.9/FacialAge/BNav_EC2/DepthDuration/v2_depth_duration_MTurk/v2_DepthDuration_HTML.html#98,98,3440,1289,3440,1440,8-20-2022,10-29-59,128,depth_duration_stimuli/000414_2014-06-04_19-49-13_260595134347_rgbf000044-resize_0/000414_2014-06-04_19-49-13_260595134347_rgbf000044-resize_0-target.png,250,4.329,8.0,2364,246,feet,jsons/v1_VE250_randls_39_rotated.json,530051,683782,29,Man
128,963837,DepthScenes,duration_manipulation_targetAtFixation,jsons/v1_VE250_randls_39_rotated.json,http://54.235.29.9/FacialAge/BNav_EC2/DepthDuration/v2_depth_duration_MTurk/v2_DepthDuration_HTML.html#98,98,3440,1289,3440,1440,8-20-2022,10-29-59,129,depth_duration_stimuli/000549_2014-06-08_22-10-24_260595134347_rgbf000247-resize_3/000549_2014-06-08_22-10-24_260595134347_rgbf000247-resize_3-target.png,250,1.841,3.0,3332,255,feet,jsons/v1_VE250_randls_39_rotated.json,530051,683782,29,Man
129,963837,DepthScenes,duration_manipulation_targetAtFixation,jsons/v1_VE250_randls_39_rotated.json,http://54.235.29.9/FacialAge/BNav_EC2/DepthDuration/v2_depth_duration_MTurk/v2_DepthDuration_HTML.html#98,98,3440,1289,3440,1440,8-20-2022,10-29-59,130,depth_duration_stimuli/001055_2014-06-08_18-45-35_260595134347_rgbf000111-resize_4/001055_2014-06-08_18-45-35_260595134347_rgbf000111-resize_4-target.png,250,2.4290000000000003,9.0,2588,262,feet,jsons/v1_VE250_randls_39_rotated.json,530051,683782,29,Man
130,963837,DepthScenes,duration_manipulation_targetAtFixation,jsons/v1_VE250_randls_39_rotated.json,http://54.235.29.9/FacialAge/BNav_EC2/DepthDuration/v2_depth_duration_MTurk/v2_DepthDuration_HTML.html#98,98,3440,1289,3440,1440,8-20-2022,10-29-59,131,depth_duration_stimuli/001392_2014-06-19_16-07-59_260595134347_rgbf000046-resize_1/001392_2014-06-19_16-07-59_260595134347_rgbf000046-resize_1-target.png,250,4.135,8.0,1544,245,feet,jsons/v1_VE250_randls_39_rotated.json,530051,683782,29,Man
131,963837,DepthScenes,duration_manipulation_targetAtFixation,jsons/v1_VE250_randls_39_rotated.json,http://54.235.29.9/FacialAge/BNav_EC2/DepthDuration/v2_depth_duration_MTurk/v2_DepthDuration_HTML.html#98,98,3440,1289,3440,1440,8-20-2022,10-29-59,132,depth_duration_stimuli/001570_2014-06-20_17-21-09_260595134347_rgbf000135-resize_4/001570_2014-06-20_17-21-09_260595134347_rgbf000135-resize_4-target.png,250,4.467,9.0,1556,261,feet,jsons/v1_VE250_randls_39_rotated.json,530051,683782,29,Man
132,963837,DepthScenes,duration_manipulation_targetAtFixation,jsons/v1_VE250_randls_39_rotated.json,http://54.235.29.9/FacialAge/BNav_EC2/DepthDuration/v2_depth_duration_MTurk/v2_DepthDuration_HTML.html#98,98,3440,1289,3440,1440,8-20-2022,10-29-59,133,depth_duration_stimuli/002678_2014-06-13_16-15-32_094959634447_rgbf000151-resize_6/002678_2014-06-13_16-15-32_094959634447_rgbf000151-resize_6-target.png,250,2.1830000000000003,6.0,1826,260,feet,jsons/v1_VE250_randls_39_rotated.json,530051,683782,29,Man
133,963837,DepthScenes,duration_manipulation_targetAtFixation,jsons/v1_VE250_randls_39_rotated.json,http://54.235.29.9/FacialAge/BNav_EC2/DepthDuration/v2_depth_duration_MTurk/v2_DepthDuration_HTML.html#98,98,3440,1289,3440,1440,8-20-2022,10-29-59,134,depth_duration_stimuli/000368_2014-06-09_15-53-01_260595134347_rgbf000155-resize_2/000368_2014-06-09_15-53-01_260595134347_rgbf000155-resize_2-target.png,250,2.4859999999999998,5.0,1596,245,feet,jsons/v1_VE250_randls_39_rotated.json,530051,683782,29,Man
134,963837,DepthScenes,duration_manipulation_targetAtFixation,jsons/v1_VE250_randls_39_rotated.json,http://54.235.29.9/FacialAge/BNav_EC2/DepthDuration/v2_depth_duration_MTurk/v2_DepthDuration_HTML.html#98,98,3440,1289,3440,1440,8-20-2022,10-29-59,135,depth_duration_stimuli/000375_2014-06-08_11-17-29_260595134347_rgbf000133-resize_2/000375_2014-06-08_11-17-29_260595134347_rgbf000133-resize-original.jpg,250,4.718,0.0,1479,244,feet,jsons/v1_VE250_randls_39_rotated.json,530051,683782,29,Man
135,963837,DepthScenes,duration_manipulation_targetAtFixation,jsons/v1_VE250_randls_39_rotated.json,http://54.235.29.9/FacialAge/BNav_EC2/DepthDuration/v2_depth_duration_MTurk/v2_DepthDuration_HTML.html#98,98,3440,1289,3440,1440,8-20-2022,10-29-59,136,depth_duration_stimuli/002323_2014-06-28_20-01-54_260595134347_rgbf000051-resize_4/002323_2014-06-28_20-01-54_260595134347_rgbf000051-resize_4-target.png,250,3.7310000000000003,8.0,4314,261,feet,jsons/v1_VE250_randls_39_rotated.json,530051,683782,29,Man
136,963837,DepthScenes,duration_manipulation_targetAtFixation,jsons/v1_VE250_randls_39_rotated.json,http://54.235.29.9/FacialAge/BNav_EC2/DepthDuration/v2_depth_duration_MTurk/v2_DepthDuration_HTML.html#98,98,3440,1289,3440,1440,8-20-2022,10-29-59,137,depth_duration_stimuli/000917_2014-06-09_22-45-29_260595134347_rgbf000149-resize_3/000917_2014-06-09_22-45-29_260595134347_rgbf000149-resize_3-target.png,250,4.1865,0.0,2785,246,feet,jsons/v1_VE250_randls_39_rotated.json,530051,683782,29,Man
137,963837,DepthScenes,duration_manipulation_targetAtFixation,jsons/v1_VE250_randls_39_rotated.json,http://54.235.29.9/FacialAge/BNav_EC2/DepthDuration/v2_depth_duration_MTurk/v2_DepthDuration_HTML.html#98,98,3440,1289,3440,1440,8-20-2022,10-29-59,138,depth_duration_stimuli/001214_2014-06-17_16-13-55_260595134347_rgbf000111-resize_0/001214_2014-06-17_16-13-55_260595134347_rgbf000111-resize_0-target.png,250,2.6505,5.0,2916,246,feet,jsons/v1_VE250_randls_39_rotated.json,530051,683782,29,Man
138,963837,DepthScenes,duration_manipulation_targetAtFixation,jsons/v1_VE250_randls_39_rotated.json,http://54.235.29.9/FacialAge/BNav_EC2/DepthDuration/v2_depth_duration_MTurk/v2_DepthDuration_HTML.html#98,98,3440,1289,3440,1440,8-20-2022,10-29-59,139,depth_duration_stimuli/000810_2014-06-08_17-20-01_260595134347_rgbf000105-resize_0/000810_2014-06-08_17-20-01_260595134347_rgbf000105-resize_0-target.png,250,1.4865,6.0,2454,261,feet,jsons/v1_VE250_randls_39_rotated.json,530051,683782,29,Man
139,963837,DepthScenes,duration_manipulation_targetAtFixation,jsons/v1_VE250_randls_39_rotated.json,http://54.235.29.9/FacialAge/BNav_EC2/DepthDuration/v2_depth_duration_MTurk/v2_DepthDuration_HTML.html#98,98,3440,1289,3440,1440,8-20-2022,10-29-59,140,depth_duration_stimuli/002545_2014-06-24_13-38-53_094959634447_rgbf000080-resize_4/002545_2014-06-24_13-38-53_094959634447_rgbf000080-resize_4-target.png,250,1.9205,6.5,4759,246,feet,jsons/v1_VE250_randls_39_rotated.json,530051,683782,29,Man
140,963837,DepthScenes,duration_manipulation_targetAtFixation,jsons/v1_VE250_randls_39_rotated.json,http://54.235.29.9/FacialAge/BNav_EC2/DepthDuration/v2_depth_duration_MTurk/v2_DepthDuration_HTML.html#98,98,3440,1289,3440,1440,8-20-2022,10-29-59,141,depth_duration_stimuli/001092_2014-06-15_17-34-58_260595134347_rgbf000171-resize_3/001092_2014-06-15_17-34-58_260595134347_rgbf000171-resize_3-target.png,250,2.6935,6.0,3199,261,feet,jsons/v1_VE250_randls_39_rotated.json,530051,683782,29,Man
141,963837,DepthScenes,duration_manipulation_targetAtFixation,jsons/v1_VE250_randls_39_rotated.json,http://54.235.29.9/FacialAge/BNav_EC2/DepthDuration/v2_depth_duration_MTurk/v2_DepthDuration_HTML.html#98,98,3440,1289,3440,1440,8-20-2022,10-29-59,142,depth_duration_stimuli/001828_2014-06-26_21-40-03_260595134347_rgbf000024-resize_0/001828_2014-06-26_21-40-03_260595134347_rgbf000024-resize_0-target.png,250,4.8260000000000005,8.5,3267,251,feet,jsons/v1_VE250_randls_39_rotated.json,530051,683782,29,Man
142,963837,DepthScenes,duration_manipulation_targetAtFixation,jsons/v1_VE250_randls_39_rotated.json,http://54.235.29.9/FacialAge/BNav_EC2/DepthDuration/v2_depth_duration_MTurk/v2_DepthDuration_HTML.html#98,98,3440,1289,3440,1440,8-20-2022,10-29-59,143,depth_duration_stimuli/000009_2014-05-26_14-32-05_260595134347_rgbf000034-resize_3/000009_2014-05-26_14-32-05_260595134347_rgbf000034-resize_3-target.png,250,3.8715,9.5,3123,240,feet,jsons/v1_VE250_randls_39_rotated.json,530051,683782,29,Man
143,963837,DepthScenes,duration_manipulation_targetAtFixation,jsons/v1_VE250_randls_39_rotated.json,http://54.235.29.9/FacialAge/BNav_EC2/DepthDuration/v2_depth_duration_MTurk/v2_DepthDuration_HTML.html#98,98,3440,1289,3440,1440,8-20-2022,10-29-59,144,depth_duration_stimuli/002875_2014-06-01_15-19-00_094959634447_rgbf000151-resize_1/002875_2014-06-01_15-19-00_094959634447_rgbf000151-resize_1-target.png,250,1.9675,6.0,2599,263,feet,jsons/v1_VE250_randls_39_rotated.json,530051,683782,29,Man
144,963837,DepthScenes,duration_manipulation_targetAtFixation,jsons/v1_VE250_randls_39_rotated.json,http://54.235.29.9/FacialAge/BNav_EC2/DepthDuration/v2_depth_duration_MTurk/v2_DepthDuration_HTML.html#98,98,3440,1289,3440,1440,8-20-2022,10-29-59,145,depth_duration_stimuli/001011_2014-06-08_23-18-54_260595134347_rgbf000044-resize_4/001011_2014-06-08_23-18-54_260595134347_rgbf000044-resize_4-target.png,250,2.4730000000000003,8.0,2773,252,feet,jsons/v1_VE250_randls_39_rotated.json,530051,683782,29,Man
145,963837,DepthScenes,duration_manipulation_targetAtFixation,jsons/v1_VE250_randls_39_rotated.json,http://54.235.29.9/FacialAge/BNav_EC2/DepthDuration/v2_depth_duration_MTurk/v2_DepthDuration_HTML.html#98,98,3440,1289,3440,1440,8-20-2022,10-29-59,146,depth_duration_stimuli/001447_2014-06-19_17-00-32_260595134347_rgbf000082-resize_5/001447_2014-06-19_17-00-32_260595134347_rgbf000082-resize_5-target.png,250,4.13775,7.0,1825,240,feet,jsons/v1_VE250_randls_39_rotated.json,530051,683782,29,Man
146,963837,DepthScenes,duration_manipulation_targetAtFixation,jsons/v1_VE250_randls_39_rotated.json,http://54.235.29.9/FacialAge/BNav_EC2/DepthDuration/v2_depth_duration_MTurk/v2_DepthDuration_HTML.html#98,98,3440,1289,3440,1440,8-20-2022,10-29-59,147,depth_duration_stimuli/000447_2014-06-08_16-15-46_260595134347_rgbf000130-resize_1/000447_2014-06-08_16-15-46_260595134347_rgbf000130-resize_1-target.png,250,4.479,8.0,1581,245,feet,jsons/v1_VE250_randls_39_rotated.json,530051,683782,29,Man
147,963837,DepthScenes,duration_manipulation_targetAtFixation,jsons/v1_VE250_randls_39_rotated.json,http://54.235.29.9/FacialAge/BNav_EC2/DepthDuration/v2_depth_duration_MTurk/v2_DepthDuration_HTML.html#98,98,3440,1289,3440,1440,8-20-2022,10-29-59,148,depth_duration_stimuli/003490_2014-05-21_15-50-11_094959634447_rgbf000101-resize_3/003490_2014-05-21_15-50-11_094959634447_rgbf000101-resize_3-target.png,250,3.6445,8.0,2864,242,feet,jsons/v1_VE250_randls_39_rotated.json,530051,683782,29,Man
148,963837,DepthScenes,duration_manipulation_targetAtFixation,jsons/v1_VE250_randls_39_rotated.json,http://54.235.29.9/FacialAge/BNav_EC2/DepthDuration/v2_depth_duration_MTurk/v2_DepthDuration_HTML.html#98,98,3440,1289,3440,1440,8-20-2022,10-29-59,149,depth_duration_stimuli/001175_2014-06-17_15-45-55_260595134347_rgbf000129-resize_4/001175_2014-06-17_15-45-55_260595134347_rgbf000129-resize_4-target.png,250,4.255,9.0,1927,264,feet,jsons/v1_VE250_randls_39_rotated.json,530051,683782,29,Man
149,963837,DepthScenes,duration_manipulation_targetAtFixation,jsons/v1_VE250_randls_39_rotated.json,http://54.235.29.9/FacialAge/BNav_EC2/DepthDuration/v2_depth_duration_MTurk/v2_DepthDuration_HTML.html#98,98,3440,1289,3440,1440,8-20-2022,10-29-59,150,depth_duration_stimuli/000943_2014-06-09_19-31-07_260595134347_rgbf000128-resize_1/000943_2014-06-09_19-31-07_260595134347_rgbf000128-resize_1-target.png,250,1.9765,4.0,2348,254,feet,jsons/v1_VE250_randls_39_rotated.json,530051,683782,29,Man
150,963837,DepthScenes,duration_manipulation_targetAtFixation,jsons/v1_VE250_randls_39_rotated.json,http://54.235.29.9/FacialAge/BNav_EC2/DepthDuration/v2_depth_duration_MTurk/v2_DepthDuration_HTML.html#98,98,3440,1289,3440,1440,8-20-2022,10-29-59,151,depth_duration_stimuli/003070_2014-06-15_14-58-27_094959634447_rgbf000150-resize_3/003070_2014-06-15_14-58-27_094959634447_rgbf000150-resize_3-target.png,250,2.9415,6.0,3016,261,feet,jsons/v1_VE250_randls_39_rotated.json,530051,683782,29,Man
151,963837,DepthScenes,duration_manipulation_targetAtFixation,jsons/v1_VE250_randls_39_rotated.json,http://54.235.29.9/FacialAge/BNav_EC2/DepthDuration/v2_depth_duration_MTurk/v2_DepthDuration_HTML.html#98,98,3440,1289,3440,1440,8-20-2022,10-29-59,152,depth_duration_stimuli/000569_2014-06-09_22-51-47_260595134347_rgbf000141-resize_3/000569_2014-06-09_22-51-47_260595134347_rgbf000141-resize-original.jpg,250,4.512,0.0,2030,262,feet,jsons/v1_VE250_randls_39_rotated.json,530051,683782,29,Man
152,963837,DepthScenes,duration_manipulation_targetAtFixation,jsons/v1_VE250_randls_39_rotated.json,http://54.235.29.9/FacialAge/BNav_EC2/DepthDuration/v2_depth_duration_MTurk/v2_DepthDuration_HTML.html#98,98,3440,1289,3440,1440,8-20-2022,10-29-59,153,depth_duration_stimuli/001032_2014-06-08_13-23-17_260595134347_rgbf000021-resize_3/001032_2014-06-08_13-23-17_260595134347_rgbf000021-resize_3-target.png,250,3.2725,7.0,3207,246,feet,jsons/v1_VE250_randls_39_rotated.json,530051,683782,29,Man
153,963837,DepthScenes,duration_manipulation_targetAtFixation,jsons/v1_VE250_randls_39_rotated.json,http://54.235.29.9/FacialAge/BNav_EC2/DepthDuration/v2_depth_duration_MTurk/v2_DepthDuration_HTML.html#98,98,3440,1289,3440,1440,8-20-2022,10-29-59,154,depth_duration_stimuli/001059_2014-06-08_21-53-27_260595134347_rgbf000061-resize_4/001059_2014-06-08_21-53-27_260595134347_rgbf000061-resize_4-target.png,250,2.4185,5.0,1891,238,feet,jsons/v1_VE250_randls_39_rotated.json,530051,683782,29,Man
154,963837,DepthScenes,duration_manipulation_targetAtFixation,jsons/v1_VE250_randls_39_rotated.json,http://54.235.29.9/FacialAge/BNav_EC2/DepthDuration/v2_depth_duration_MTurk/v2_DepthDuration_HTML.html#98,98,3440,1289,3440,1440,8-20-2022,10-29-59,155,depth_duration_stimuli/002444_2014-06-28_20-32-08_260595134347_rgbf000027-resize_0/002444_2014-06-28_20-32-08_260595134347_rgbf000027-resize_0-target.png,250,4.388999999999999,6.0,1551,246,feet,jsons/v1_VE250_randls_39_rotated.json,530051,683782,29,Man
155,963837,DepthScenes,duration_manipulation_targetAtFixation,jsons/v1_VE250_randls_39_rotated.json,http://54.235.29.9/FacialAge/BNav_EC2/DepthDuration/v2_depth_duration_MTurk/v2_DepthDuration_HTML.html#98,98,3440,1289,3440,1440,8-20-2022,10-29-59,156,depth_duration_stimuli/000436_2014-06-09_22-25-11_260595134347_rgbf000137-resize_1/000436_2014-06-09_22-25-11_260595134347_rgbf000137-resize_1-target.png,250,4.0705,7.0,2062,246,feet,jsons/v1_VE250_randls_39_rotated.json,530051,683782,29,Man
156,963837,DepthScenes,duration_manipulation_targetAtFixation,jsons/v1_VE250_randls_39_rotated.json,http://54.235.29.9/FacialAge/BNav_EC2/DepthDuration/v2_depth_duration_MTurk/v2_DepthDuration_HTML.html#98,98,3440,1289,3440,1440,8-20-2022,10-29-59,157,depth_duration_stimuli/002344_2014-06-28_20-06-29_260595134347_rgbf000030-resize_1/002344_2014-06-28_20-06-29_260595134347_rgbf000030-resize_1-target.png,250,1.5795,2.0,3226,251,feet,jsons/v1_VE250_randls_39_rotated.json,530051,683782,29,Man
157,963837,DepthScenes,duration_manipulation_targetAtFixation,jsons/v1_VE250_randls_39_rotated.json,http://54.235.29.9/FacialAge/BNav_EC2/DepthDuration/v2_depth_duration_MTurk/v2_DepthDuration_HTML.html#98,98,3440,1289,3440,1440,8-20-2022,10-29-59,158,depth_duration_stimuli/002725_2014-06-22_11-47-51_094959634447_rgbf000070-resize_1/002725_2014-06-22_11-47-51_094959634447_rgbf000070-resize_1-target.png,250,2.195,3.0,3377,247,feet,jsons/v1_VE250_randls_39_rotated.json,530051,683782,29,Man
158,963837,DepthScenes,duration_manipulation_targetAtFixation,jsons/v1_VE250_randls_39_rotated.json,http://54.235.29.9/FacialAge/BNav_EC2/DepthDuration/v2_depth_duration_MTurk/v2_DepthDuration_HTML.html#98,98,3440,1289,3440,1440,8-20-2022,10-29-59,159,depth_duration_stimuli/000556_2014-06-09_22-42-56_260595134347_rgbf000214-resize_1/000556_2014-06-09_22-42-56_260595134347_rgbf000214-resize_1-target.png,250,4.8415,6.0,5687,244,feet,jsons/v1_VE250_randls_39_rotated.json,530051,683782,29,Man
159,963837,DepthScenes,duration_manipulation_targetAtFixation,jsons/v1_VE250_randls_39_rotated.json,http://54.235.29.9/FacialAge/BNav_EC2/DepthDuration/v2_depth_duration_MTurk/v2_DepthDuration_HTML.html#98,98,3440,1289,3440,1440,8-20-2022,10-29-59,160,depth_duration_stimuli/001158_2014-06-17_15-32-16_260595134347_rgbf000138-resize_2/001158_2014-06-17_15-32-16_260595134347_rgbf000138-resize_2-target.png,250,4.5315,7.5,6478,246,feet,jsons/v1_VE250_randls_39_rotated.json,530051,683782,29,Man
160,963837,DepthScenes,duration_manipulation_targetAtFixation,jsons/v1_VE250_randls_39_rotated.json,http://54.235.29.9/FacialAge/BNav_EC2/DepthDuration/v2_depth_duration_MTurk/v2_DepthDuration_HTML.html#98,98,3440,1289,3440,1440,8-20-2022,10-29-59,161,depth_duration_stimuli/001617_2014-06-20_11-35-32_260595134347_rgbf000066-resize_1/001617_2014-06-20_11-35-32_260595134347_rgbf000066-resize_1-target.png,250,3.7910000000000004,8.0,2453,260,feet,jsons/v1_VE250_randls_39_rotated.json,530051,683782,29,Man
161,963837,DepthScenes,duration_manipulation_targetAtFixation,jsons/v1_VE250_randls_39_rotated.json,http://54.235.29.9/FacialAge/BNav_EC2/DepthDuration/v2_depth_duration_MTurk/v2_DepthDuration_HTML.html#98,98,3440,1289,3440,1440,8-20-2022,10-29-59,162,depth_duration_stimuli/001806_2014-06-26_20-50-20_260595134347_rgbf000091-resize_1/001806_2014-06-26_20-50-20_260595134347_rgbf000091-resize_1-target.png,250,2.7305,3.0,2334,245,feet,jsons/v1_VE250_randls_39_rotated.json,530051,683782,29,Man
162,963837,DepthScenes,duration_manipulation_targetAtFixation,jsons/v1_VE250_randls_39_rotated.json,http://54.235.29.9/FacialAge/BNav_EC2/DepthDuration/v2_depth_duration_MTurk/v2_DepthDuration_HTML.html#98,98,3440,1289,3440,1440,8-20-2022,10-29-59,163,depth_duration_stimuli/002209_2014-06-28_18-36-10_260595134347_rgbf000051-resize_1/002209_2014-06-28_18-36-10_260595134347_rgbf000051-resize_1-target.png,250,2.057,5.0,2177,245,feet,jsons/v1_VE250_randls_39_rotated.json,530051,683782,29,Man
163,963837,DepthScenes,duration_manipulation_targetAtFixation,jsons/v1_VE250_randls_39_rotated.json,http://54.235.29.9/FacialAge/BNav_EC2/DepthDuration/v2_depth_duration_MTurk/v2_DepthDuration_HTML.html#98,98,3440,1289,3440,1440,8-20-2022,10-29-59,164,depth_duration_stimuli/002763_2014-06-22_19-13-10_094959634447_rgbf000075-resize_4/002763_2014-06-22_19-13-10_094959634447_rgbf000075-resize_4-target.png,250,1.68375,6.0,1859,258,feet,jsons/v1_VE250_randls_39_rotated.json,530051,683782,29,Man
