,subjID,experimentName,versionName,sequenceName,url,selected_row,windowWidth,windowHeight,screenWidth,screenHeight,startDate,startTime,trial,stimulus,duration,actual_depth,depth_estimate,trial_RT,log_sceneDuration,unitSelection,seq_filepath,experimentTime,totalTime,age,gender
0,964443,DepthScenes,duration_manipulation_targetAtFixation,jsons/v1_VE1000_randls_23_rotated.json,http://54.235.29.9/FacialAge/BNav_EC2/DepthDuration/v2_depth_duration_MTurk/v2_DepthDuration_HTML.html#61,61,1366,768,1366,768,8-22-2022,8-2-15,1,depth_duration_stimuli/002637_2014-06-24_14-51-13_094959634447_rgbf000066-resize_4/002637_2014-06-24_14-51-13_094959634447_rgbf000066-resize_4-target.png,1000,1.9955,1,5534,1005,meters,jsons/v1_VE1000_randls_23_rotated.json,617691,902981,30,Woman
1,964443,DepthScenes,duration_manipulation_targetAtFixation,jsons/v1_VE1000_randls_23_rotated.json,http://54.235.29.9/FacialAge/BNav_EC2/DepthDuration/v2_depth_duration_MTurk/v2_DepthDuration_HTML.html#61,61,1366,768,1366,768,8-22-2022,8-2-15,2,depth_duration_stimuli/003534_2014-05-22_15-06-10_094959634447_rgbf000102-resize_4/003534_2014-05-22_15-06-10_094959634447_rgbf000102-resize_4-target.png,1000,1.426,1,3426,995,meters,jsons/v1_VE1000_randls_23_rotated.json,617691,902981,30,Woman
2,964443,DepthScenes,duration_manipulation_targetAtFixation,jsons/v1_VE1000_randls_23_rotated.json,http://54.235.29.9/FacialAge/BNav_EC2/DepthDuration/v2_depth_duration_MTurk/v2_DepthDuration_HTML.html#61,61,1366,768,1366,768,8-22-2022,8-2-15,3,depth_duration_stimuli/000502_2014-06-08_23-02-32_260595134347_rgbf000063-resize_4/000502_2014-06-08_23-02-32_260595134347_rgbf000063-resize_4-target.png,1000,2.431,2,3634,1000,meters,jsons/v1_VE1000_randls_23_rotated.json,617691,902981,30,Woman
3,964443,DepthScenes,duration_manipulation_targetAtFixation,jsons/v1_VE1000_randls_23_rotated.json,http://54.235.29.9/FacialAge/BNav_EC2/DepthDuration/v2_depth_duration_MTurk/v2_DepthDuration_HTML.html#61,61,1366,768,1366,768,8-22-2022,8-2-15,4,depth_duration_stimuli/001199_2014-06-17_16-03-48_260595134347_rgbf000077-resize_0/001199_2014-06-17_16-03-48_260595134347_rgbf000077-resize_0-target.png,1000,3.4375,1,3316,999,meters,jsons/v1_VE1000_randls_23_rotated.json,617691,902981,30,Woman
4,964443,DepthScenes,duration_manipulation_targetAtFixation,jsons/v1_VE1000_randls_23_rotated.json,http://54.235.29.9/FacialAge/BNav_EC2/DepthDuration/v2_depth_duration_MTurk/v2_DepthDuration_HTML.html#61,61,1366,768,1366,768,8-22-2022,8-2-15,5,depth_duration_stimuli/001584_2014-06-20_11-07-43_260595134347_rgbf000002-resize_1/001584_2014-06-20_11-07-43_260595134347_rgbf000002-resize_1-target.png,1000,3.53,1,3075,987,meters,jsons/v1_VE1000_randls_23_rotated.json,617691,902981,30,Woman
5,964443,DepthScenes,duration_manipulation_targetAtFixation,jsons/v1_VE1000_randls_23_rotated.json,http://54.235.29.9/FacialAge/BNav_EC2/DepthDuration/v2_depth_duration_MTurk/v2_DepthDuration_HTML.html#61,61,1366,768,1366,768,8-22-2022,8-2-15,6,depth_duration_stimuli/003621_2014-05-23_18-06-08_094959634447_rgbf000101-resize_1/003621_2014-05-23_18-06-08_094959634447_rgbf000101-resize_1-target.png,1000,3.9835,1,2858,999,meters,jsons/v1_VE1000_randls_23_rotated.json,617691,902981,30,Woman
6,964443,DepthScenes,duration_manipulation_targetAtFixation,jsons/v1_VE1000_randls_23_rotated.json,http://54.235.29.9/FacialAge/BNav_EC2/DepthDuration/v2_depth_duration_MTurk/v2_DepthDuration_HTML.html#61,61,1366,768,1366,768,8-22-2022,8-2-15,7,depth_duration_stimuli/001392_2014-06-19_16-07-59_260595134347_rgbf000046-resize_1/001392_2014-06-19_16-07-59_260595134347_rgbf000046-resize_1-target.png,1000,4.135,1,2903,999,meters,jsons/v1_VE1000_randls_23_rotated.json,617691,902981,30,Woman
7,964443,DepthScenes,duration_manipulation_targetAtFixation,jsons/v1_VE1000_randls_23_rotated.json,http://54.235.29.9/FacialAge/BNav_EC2/DepthDuration/v2_depth_duration_MTurk/v2_DepthDuration_HTML.html#61,61,1366,768,1366,768,8-22-2022,8-2-15,8,depth_duration_stimuli/001570_2014-06-20_17-21-09_260595134347_rgbf000135-resize_4/001570_2014-06-20_17-21-09_260595134347_rgbf000135-resize_4-target.png,1000,4.467,1,2919,1022,meters,jsons/v1_VE1000_randls_23_rotated.json,617691,902981,30,Woman
8,964443,DepthScenes,duration_manipulation_targetAtFixation,jsons/v1_VE1000_randls_23_rotated.json,http://54.235.29.9/FacialAge/BNav_EC2/DepthDuration/v2_depth_duration_MTurk/v2_DepthDuration_HTML.html#61,61,1366,768,1366,768,8-22-2022,8-2-15,9,depth_duration_stimuli/001815_2014-06-26_20-52-55_260595134347_rgbf000020-resize_0/001815_2014-06-26_20-52-55_260595134347_rgbf000020-resize_0-target.png,1000,3.3865,1,2853,989,meters,jsons/v1_VE1000_randls_23_rotated.json,617691,902981,30,Woman
9,964443,DepthScenes,duration_manipulation_targetAtFixation,jsons/v1_VE1000_randls_23_rotated.json,http://54.235.29.9/FacialAge/BNav_EC2/DepthDuration/v2_depth_duration_MTurk/v2_DepthDuration_HTML.html#61,61,1366,768,1366,768,8-22-2022,8-2-15,10,depth_duration_stimuli/001808_2014-06-26_20-50-58_260595134347_rgbf000029-resize_1/001808_2014-06-26_20-50-58_260595134347_rgbf000029-resize_1-target.png,1000,4.249,1,2854,999,meters,jsons/v1_VE1000_randls_23_rotated.json,617691,902981,30,Woman
10,964443,DepthScenes,duration_manipulation_targetAtFixation,jsons/v1_VE1000_randls_23_rotated.json,http://54.235.29.9/FacialAge/BNav_EC2/DepthDuration/v2_depth_duration_MTurk/v2_DepthDuration_HTML.html#61,61,1366,768,1366,768,8-22-2022,8-2-15,11,depth_duration_stimuli/002995_2014-06-15_12-31-26_094959634447_rgbf000150-resize_1/002995_2014-06-15_12-31-26_094959634447_rgbf000150-resize_1-target.png,1000,3.8360000000000003,1,2833,997,meters,jsons/v1_VE1000_randls_23_rotated.json,617691,902981,30,Woman
11,964443,DepthScenes,duration_manipulation_targetAtFixation,jsons/v1_VE1000_randls_23_rotated.json,http://54.235.29.9/FacialAge/BNav_EC2/DepthDuration/v2_depth_duration_MTurk/v2_DepthDuration_HTML.html#61,61,1366,768,1366,768,8-22-2022,8-2-15,12,depth_duration_stimuli/002748_2014-06-22_19-07-22_094959634447_rgbf000078-resize_1/002748_2014-06-22_19-07-22_094959634447_rgbf000078-resize_1-target.png,1000,4.6705,1,2861,991,meters,jsons/v1_VE1000_randls_23_rotated.json,617691,902981,30,Woman
12,964443,DepthScenes,duration_manipulation_targetAtFixation,jsons/v1_VE1000_randls_23_rotated.json,http://54.235.29.9/FacialAge/BNav_EC2/DepthDuration/v2_depth_duration_MTurk/v2_DepthDuration_HTML.html#61,61,1366,768,1366,768,8-22-2022,8-2-15,13,depth_duration_stimuli/000549_2014-06-08_22-10-24_260595134347_rgbf000247-resize_3/000549_2014-06-08_22-10-24_260595134347_rgbf000247-resize_3-target.png,1000,1.841,1,2748,997,meters,jsons/v1_VE1000_randls_23_rotated.json,617691,902981,30,Woman
13,964443,DepthScenes,duration_manipulation_targetAtFixation,jsons/v1_VE1000_randls_23_rotated.json,http://54.235.29.9/FacialAge/BNav_EC2/DepthDuration/v2_depth_duration_MTurk/v2_DepthDuration_HTML.html#61,61,1366,768,1366,768,8-22-2022,8-2-15,14,depth_duration_stimuli/001055_2014-06-08_18-45-35_260595134347_rgbf000111-resize_4/001055_2014-06-08_18-45-35_260595134347_rgbf000111-resize_4-target.png,1000,2.4290000000000003,1,2945,1000,meters,jsons/v1_VE1000_randls_23_rotated.json,617691,902981,30,Woman
14,964443,DepthScenes,duration_manipulation_targetAtFixation,jsons/v1_VE1000_randls_23_rotated.json,http://54.235.29.9/FacialAge/BNav_EC2/DepthDuration/v2_depth_duration_MTurk/v2_DepthDuration_HTML.html#61,61,1366,768,1366,768,8-22-2022,8-2-15,15,depth_duration_stimuli/001571_2014-06-20_17-21-32_260595134347_rgbf000089-resize_1/001571_2014-06-20_17-21-32_260595134347_rgbf000089-resize_1-target.png,1000,1.86,1,2743,994,meters,jsons/v1_VE1000_randls_23_rotated.json,617691,902981,30,Woman
15,964443,DepthScenes,duration_manipulation_targetAtFixation,jsons/v1_VE1000_randls_23_rotated.json,http://54.235.29.9/FacialAge/BNav_EC2/DepthDuration/v2_depth_duration_MTurk/v2_DepthDuration_HTML.html#61,61,1366,768,1366,768,8-22-2022,8-2-15,16,depth_duration_stimuli/002272_2014-06-28_18-53-56_260595134347_rgbf000067-resize_2/002272_2014-06-28_18-53-56_260595134347_rgbf000067-resize_2-target.png,1000,1.138,1,2706,990,meters,jsons/v1_VE1000_randls_23_rotated.json,617691,902981,30,Woman
16,964443,DepthScenes,duration_manipulation_targetAtFixation,jsons/v1_VE1000_randls_23_rotated.json,http://54.235.29.9/FacialAge/BNav_EC2/DepthDuration/v2_depth_duration_MTurk/v2_DepthDuration_HTML.html#61,61,1366,768,1366,768,8-22-2022,8-2-15,17,depth_duration_stimuli/001516_2014-06-20_16-25-09_260595134347_rgbf000076-resize_2/001516_2014-06-20_16-25-09_260595134347_rgbf000076-resize_2-target.png,1000,1.7445,2,2947,981,meters,jsons/v1_VE1000_randls_23_rotated.json,617691,902981,30,Woman
17,964443,DepthScenes,duration_manipulation_targetAtFixation,jsons/v1_VE1000_randls_23_rotated.json,http://54.235.29.9/FacialAge/BNav_EC2/DepthDuration/v2_depth_duration_MTurk/v2_DepthDuration_HTML.html#61,61,1366,768,1366,768,8-22-2022,8-2-15,18,depth_duration_stimuli/002118_2014-06-25_20-32-08_260595134347_rgbf000078-resize_1/002118_2014-06-25_20-32-08_260595134347_rgbf000078-resize_1-target.png,1000,2.6460000000000004,1,3016,999,meters,jsons/v1_VE1000_randls_23_rotated.json,617691,902981,30,Woman
18,964443,DepthScenes,duration_manipulation_targetAtFixation,jsons/v1_VE1000_randls_23_rotated.json,http://54.235.29.9/FacialAge/BNav_EC2/DepthDuration/v2_depth_duration_MTurk/v2_DepthDuration_HTML.html#61,61,1366,768,1366,768,8-22-2022,8-2-15,19,depth_duration_stimuli/001498_2014-06-19_17-45-14_260595134347_rgbf000129-resize_4/001498_2014-06-19_17-45-14_260595134347_rgbf000129-resize-original.jpg,1000,1.4075,0,3788,997,meters,jsons/v1_VE1000_randls_23_rotated.json,617691,902981,30,Woman
19,964443,DepthScenes,duration_manipulation_targetAtFixation,jsons/v1_VE1000_randls_23_rotated.json,http://54.235.29.9/FacialAge/BNav_EC2/DepthDuration/v2_depth_duration_MTurk/v2_DepthDuration_HTML.html#61,61,1366,768,1366,768,8-22-2022,8-2-15,20,depth_duration_stimuli/000866_2014-06-09_20-45-42_260595134347_rgbf000139-resize_1/000866_2014-06-09_20-45-42_260595134347_rgbf000139-resize_1-target.png,1000,3.2155,1,3352,991,meters,jsons/v1_VE1000_randls_23_rotated.json,617691,902981,30,Woman
20,964443,DepthScenes,duration_manipulation_targetAtFixation,jsons/v1_VE1000_randls_23_rotated.json,http://54.235.29.9/FacialAge/BNav_EC2/DepthDuration/v2_depth_duration_MTurk/v2_DepthDuration_HTML.html#61,61,1366,768,1366,768,8-22-2022,8-2-15,21,depth_duration_stimuli/002989_2014-06-15_12-25-03_094959634447_rgbf000150-resize_3/002989_2014-06-15_12-25-03_094959634447_rgbf000150-resize_3-target.png,1000,4.1975,1,2676,1001,meters,jsons/v1_VE1000_randls_23_rotated.json,617691,902981,30,Woman
21,964443,DepthScenes,duration_manipulation_targetAtFixation,jsons/v1_VE1000_randls_23_rotated.json,http://54.235.29.9/FacialAge/BNav_EC2/DepthDuration/v2_depth_duration_MTurk/v2_DepthDuration_HTML.html#61,61,1366,768,1366,768,8-22-2022,8-2-15,22,depth_duration_stimuli/000691_2014-06-08_13-08-50_260595134347_rgbf000132-resize_3/000691_2014-06-08_13-08-50_260595134347_rgbf000132-resize_3-target.png,1000,4.1530000000000005,1,2773,1014,meters,jsons/v1_VE1000_randls_23_rotated.json,617691,902981,30,Woman
22,964443,DepthScenes,duration_manipulation_targetAtFixation,jsons/v1_VE1000_randls_23_rotated.json,http://54.235.29.9/FacialAge/BNav_EC2/DepthDuration/v2_depth_duration_MTurk/v2_DepthDuration_HTML.html#61,61,1366,768,1366,768,8-22-2022,8-2-15,23,depth_duration_stimuli/002213_2014-06-28_18-37-58_260595134347_rgbf000055-resize_1/002213_2014-06-28_18-37-58_260595134347_rgbf000055-resize_1-target.png,1000,3.62,1,2832,995,meters,jsons/v1_VE1000_randls_23_rotated.json,617691,902981,30,Woman
23,964443,DepthScenes,duration_manipulation_targetAtFixation,jsons/v1_VE1000_randls_23_rotated.json,http://54.235.29.9/FacialAge/BNav_EC2/DepthDuration/v2_depth_duration_MTurk/v2_DepthDuration_HTML.html#61,61,1366,768,1366,768,8-22-2022,8-2-15,24,depth_duration_stimuli/001136_2014-06-17_15-19-41_260595134347_rgbf000076-resize_3/001136_2014-06-17_15-19-41_260595134347_rgbf000076-resize_3-target.png,1000,1.8655,1,2724,1003,meters,jsons/v1_VE1000_randls_23_rotated.json,617691,902981,30,Woman
24,964443,DepthScenes,duration_manipulation_targetAtFixation,jsons/v1_VE1000_randls_23_rotated.json,http://54.235.29.9/FacialAge/BNav_EC2/DepthDuration/v2_depth_duration_MTurk/v2_DepthDuration_HTML.html#61,61,1366,768,1366,768,8-22-2022,8-2-15,25,depth_duration_stimuli/001164_2014-06-17_15-35-46_260595134347_rgbf000085-resize_3/001164_2014-06-17_15-35-46_260595134347_rgbf000085-resize_3-target.png,1000,2.354,1,2862,993,meters,jsons/v1_VE1000_randls_23_rotated.json,617691,902981,30,Woman
25,964443,DepthScenes,duration_manipulation_targetAtFixation,jsons/v1_VE1000_randls_23_rotated.json,http://54.235.29.9/FacialAge/BNav_EC2/DepthDuration/v2_depth_duration_MTurk/v2_DepthDuration_HTML.html#61,61,1366,768,1366,768,8-22-2022,8-2-15,26,depth_duration_stimuli/000103_2014-05-14_22-01-17_260595134347_rgbf000152-resize_5/000103_2014-05-14_22-01-17_260595134347_rgbf000152-resize_5-target.png,1000,1.993,1,2839,999,meters,jsons/v1_VE1000_randls_23_rotated.json,617691,902981,30,Woman
26,964443,DepthScenes,duration_manipulation_targetAtFixation,jsons/v1_VE1000_randls_23_rotated.json,http://54.235.29.9/FacialAge/BNav_EC2/DepthDuration/v2_depth_duration_MTurk/v2_DepthDuration_HTML.html#61,61,1366,768,1366,768,8-22-2022,8-2-15,27,depth_duration_stimuli/001555_2014-06-20_17-12-10_260595134347_rgbf000065-resize_4/001555_2014-06-20_17-12-10_260595134347_rgbf000065-resize_4-target.png,1000,1.633,1,2980,993,meters,jsons/v1_VE1000_randls_23_rotated.json,617691,902981,30,Woman
27,964443,DepthScenes,duration_manipulation_targetAtFixation,jsons/v1_VE1000_randls_23_rotated.json,http://54.235.29.9/FacialAge/BNav_EC2/DepthDuration/v2_depth_duration_MTurk/v2_DepthDuration_HTML.html#61,61,1366,768,1366,768,8-22-2022,8-2-15,28,depth_duration_stimuli/002467_2014-06-28_20-38-07_260595134347_rgbf000026-resize_2/002467_2014-06-28_20-38-07_260595134347_rgbf000026-resize_2-target.png,1000,4.742,1,2827,1000,meters,jsons/v1_VE1000_randls_23_rotated.json,617691,902981,30,Woman
28,964443,DepthScenes,duration_manipulation_targetAtFixation,jsons/v1_VE1000_randls_23_rotated.json,http://54.235.29.9/FacialAge/BNav_EC2/DepthDuration/v2_depth_duration_MTurk/v2_DepthDuration_HTML.html#61,61,1366,768,1366,768,8-22-2022,8-2-15,29,depth_duration_stimuli/002570_2014-06-24_13-59-54_094959634447_rgbf000059-resize_0/002570_2014-06-24_13-59-54_094959634447_rgbf000059-resize_0-target.png,1000,4.037,1,2673,951,meters,jsons/v1_VE1000_randls_23_rotated.json,617691,902981,30,Woman
29,964443,DepthScenes,duration_manipulation_targetAtFixation,jsons/v1_VE1000_randls_23_rotated.json,http://54.235.29.9/FacialAge/BNav_EC2/DepthDuration/v2_depth_duration_MTurk/v2_DepthDuration_HTML.html#61,61,1366,768,1366,768,8-22-2022,8-2-15,30,depth_duration_stimuli/002072_2014-06-24_21-48-06_260595134347_rgbf000115-resize_0/002072_2014-06-24_21-48-06_260595134347_rgbf000115-resize-original.jpg,1000,4.702,0,3417,993,meters,jsons/v1_VE1000_randls_23_rotated.json,617691,902981,30,Woman
30,964443,DepthScenes,duration_manipulation_targetAtFixation,jsons/v1_VE1000_randls_23_rotated.json,http://54.235.29.9/FacialAge/BNav_EC2/DepthDuration/v2_depth_duration_MTurk/v2_DepthDuration_HTML.html#61,61,1366,768,1366,768,8-22-2022,8-2-15,31,depth_duration_stimuli/000749_2014-06-08_21-55-06_260595134347_rgbf000070-resize_2/000749_2014-06-08_21-55-06_260595134347_rgbf000070-resize_2-target.png,1000,2.331,1,3079,985,meters,jsons/v1_VE1000_randls_23_rotated.json,617691,902981,30,Woman
31,964443,DepthScenes,duration_manipulation_targetAtFixation,jsons/v1_VE1000_randls_23_rotated.json,http://54.235.29.9/FacialAge/BNav_EC2/DepthDuration/v2_depth_duration_MTurk/v2_DepthDuration_HTML.html#61,61,1366,768,1366,768,8-22-2022,8-2-15,32,depth_duration_stimuli/002788_2014-06-22_19-36-03_094959634447_rgbf000088-resize_2/002788_2014-06-22_19-36-03_094959634447_rgbf000088-resize_2-target.png,1000,1.6465,1,2726,1004,meters,jsons/v1_VE1000_randls_23_rotated.json,617691,902981,30,Woman
32,964443,DepthScenes,duration_manipulation_targetAtFixation,jsons/v1_VE1000_randls_23_rotated.json,http://54.235.29.9/FacialAge/BNav_EC2/DepthDuration/v2_depth_duration_MTurk/v2_DepthDuration_HTML.html#61,61,1366,768,1366,768,8-22-2022,8-2-15,33,depth_duration_stimuli/002568_2014-06-24_13-59-21_094959634447_rgbf000062-resize_4/002568_2014-06-24_13-59-21_094959634447_rgbf000062-resize_4-target.png,1000,3.015,1,2586,1002,meters,jsons/v1_VE1000_randls_23_rotated.json,617691,902981,30,Woman
33,964443,DepthScenes,duration_manipulation_targetAtFixation,jsons/v1_VE1000_randls_23_rotated.json,http://54.235.29.9/FacialAge/BNav_EC2/DepthDuration/v2_depth_duration_MTurk/v2_DepthDuration_HTML.html#61,61,1366,768,1366,768,8-22-2022,8-2-15,34,depth_duration_stimuli/003492_2014-05-21_15-50-55_094959634447_rgbf000828-resize_1/003492_2014-05-21_15-50-55_094959634447_rgbf000828-resize_1-target.png,1000,4.06875,1,2777,997,meters,jsons/v1_VE1000_randls_23_rotated.json,617691,902981,30,Woman
34,964443,DepthScenes,duration_manipulation_targetAtFixation,jsons/v1_VE1000_randls_23_rotated.json,http://54.235.29.9/FacialAge/BNav_EC2/DepthDuration/v2_depth_duration_MTurk/v2_DepthDuration_HTML.html#61,61,1366,768,1366,768,8-22-2022,8-2-15,35,depth_duration_stimuli/000854_2014-06-09_19-43-13_260595134347_rgbf000066-resize_0/000854_2014-06-09_19-43-13_260595134347_rgbf000066-resize_0-target.png,1000,3.068,1,2631,999,meters,jsons/v1_VE1000_randls_23_rotated.json,617691,902981,30,Woman
35,964443,DepthScenes,duration_manipulation_targetAtFixation,jsons/v1_VE1000_randls_23_rotated.json,http://54.235.29.9/FacialAge/BNav_EC2/DepthDuration/v2_depth_duration_MTurk/v2_DepthDuration_HTML.html#61,61,1366,768,1366,768,8-22-2022,8-2-15,36,depth_duration_stimuli/000758_2014-06-08_22-05-08_260595134347_rgbf000085-resize_0/000758_2014-06-08_22-05-08_260595134347_rgbf000085-resize_0-target.png,1000,3.3810000000000002,1,2706,1010,meters,jsons/v1_VE1000_randls_23_rotated.json,617691,902981,30,Woman
36,964443,DepthScenes,duration_manipulation_targetAtFixation,jsons/v1_VE1000_randls_23_rotated.json,http://54.235.29.9/FacialAge/BNav_EC2/DepthDuration/v2_depth_duration_MTurk/v2_DepthDuration_HTML.html#61,61,1366,768,1366,768,8-22-2022,8-2-15,37,depth_duration_stimuli/002678_2014-06-13_16-15-32_094959634447_rgbf000151-resize_6/002678_2014-06-13_16-15-32_094959634447_rgbf000151-resize_6-target.png,1000,2.1830000000000003,1,2922,996,meters,jsons/v1_VE1000_randls_23_rotated.json,617691,902981,30,Woman
37,964443,DepthScenes,duration_manipulation_targetAtFixation,jsons/v1_VE1000_randls_23_rotated.json,http://54.235.29.9/FacialAge/BNav_EC2/DepthDuration/v2_depth_duration_MTurk/v2_DepthDuration_HTML.html#61,61,1366,768,1366,768,8-22-2022,8-2-15,38,depth_duration_stimuli/000368_2014-06-09_15-53-01_260595134347_rgbf000155-resize_2/000368_2014-06-09_15-53-01_260595134347_rgbf000155-resize_2-target.png,1000,2.4859999999999998,1,3575,1001,meters,jsons/v1_VE1000_randls_23_rotated.json,617691,902981,30,Woman
38,964443,DepthScenes,duration_manipulation_targetAtFixation,jsons/v1_VE1000_randls_23_rotated.json,http://54.235.29.9/FacialAge/BNav_EC2/DepthDuration/v2_depth_duration_MTurk/v2_DepthDuration_HTML.html#61,61,1366,768,1366,768,8-22-2022,8-2-15,39,depth_duration_stimuli/000742_2014-06-08_18-48-09_260595134347_rgbf000164-resize_4/000742_2014-06-08_18-48-09_260595134347_rgbf000164-resize_4-target.png,1000,4.632,1,4982,989,meters,jsons/v1_VE1000_randls_23_rotated.json,617691,902981,30,Woman
39,964443,DepthScenes,duration_manipulation_targetAtFixation,jsons/v1_VE1000_randls_23_rotated.json,http://54.235.29.9/FacialAge/BNav_EC2/DepthDuration/v2_depth_duration_MTurk/v2_DepthDuration_HTML.html#61,61,1366,768,1366,768,8-22-2022,8-2-15,40,depth_duration_stimuli/001066_2014-06-08_22-03-20_260595134347_rgbf000066-resize_4/001066_2014-06-08_22-03-20_260595134347_rgbf000066-resize_4-target.png,1000,4.2330000000000005,1,5236,994,meters,jsons/v1_VE1000_randls_23_rotated.json,617691,902981,30,Woman
40,964443,DepthScenes,duration_manipulation_targetAtFixation,jsons/v1_VE1000_randls_23_rotated.json,http://54.235.29.9/FacialAge/BNav_EC2/DepthDuration/v2_depth_duration_MTurk/v2_DepthDuration_HTML.html#61,61,1366,768,1366,768,8-22-2022,8-2-15,41,depth_duration_stimuli/001032_2014-06-08_13-23-17_260595134347_rgbf000021-resize_3/001032_2014-06-08_13-23-17_260595134347_rgbf000021-resize_3-target.png,1000,3.2725,1,3032,996,meters,jsons/v1_VE1000_randls_23_rotated.json,617691,902981,30,Woman
41,964443,DepthScenes,duration_manipulation_targetAtFixation,jsons/v1_VE1000_randls_23_rotated.json,http://54.235.29.9/FacialAge/BNav_EC2/DepthDuration/v2_depth_duration_MTurk/v2_DepthDuration_HTML.html#61,61,1366,768,1366,768,8-22-2022,8-2-15,42,depth_duration_stimuli/001059_2014-06-08_21-53-27_260595134347_rgbf000061-resize_4/001059_2014-06-08_21-53-27_260595134347_rgbf000061-resize_4-target.png,1000,2.4185,1,3002,1007,meters,jsons/v1_VE1000_randls_23_rotated.json,617691,902981,30,Woman
42,964443,DepthScenes,duration_manipulation_targetAtFixation,jsons/v1_VE1000_randls_23_rotated.json,http://54.235.29.9/FacialAge/BNav_EC2/DepthDuration/v2_depth_duration_MTurk/v2_DepthDuration_HTML.html#61,61,1366,768,1366,768,8-22-2022,8-2-15,43,depth_duration_stimuli/000635_2014-06-08_16-38-42_260595134347_rgbf000106-resize_1/000635_2014-06-08_16-38-42_260595134347_rgbf000106-resize_1-target.png,1000,2.074,1,2697,999,meters,jsons/v1_VE1000_randls_23_rotated.json,617691,902981,30,Woman
43,964443,DepthScenes,duration_manipulation_targetAtFixation,jsons/v1_VE1000_randls_23_rotated.json,http://54.235.29.9/FacialAge/BNav_EC2/DepthDuration/v2_depth_duration_MTurk/v2_DepthDuration_HTML.html#61,61,1366,768,1366,768,8-22-2022,8-2-15,44,depth_duration_stimuli/002279_2014-06-28_18-55-32_260595134347_rgbf000040-resize_5/002279_2014-06-28_18-55-32_260595134347_rgbf000040-resize_5-target.png,1000,1.5043333333333,1,2684,1007,meters,jsons/v1_VE1000_randls_23_rotated.json,617691,902981,30,Woman
44,964443,DepthScenes,duration_manipulation_targetAtFixation,jsons/v1_VE1000_randls_23_rotated.json,http://54.235.29.9/FacialAge/BNav_EC2/DepthDuration/v2_depth_duration_MTurk/v2_DepthDuration_HTML.html#61,61,1366,768,1366,768,8-22-2022,8-2-15,45,depth_duration_stimuli/002340_2014-06-28_20-05-46_260595134347_rgbf000113-resize_0/002340_2014-06-28_20-05-46_260595134347_rgbf000113-resize_0-target.png,1000,2.4735,1,2821,999,meters,jsons/v1_VE1000_randls_23_rotated.json,617691,902981,30,Woman
45,964443,DepthScenes,duration_manipulation_targetAtFixation,jsons/v1_VE1000_randls_23_rotated.json,http://54.235.29.9/FacialAge/BNav_EC2/DepthDuration/v2_depth_duration_MTurk/v2_DepthDuration_HTML.html#61,61,1366,768,1366,768,8-22-2022,8-2-15,46,depth_duration_stimuli/001016_2014-06-09_16-16-10_260595134347_rgbf000112-resize_5/001016_2014-06-09_16-16-10_260595134347_rgbf000112-resize_5-target.png,1000,1.6565,1,2843,1002,meters,jsons/v1_VE1000_randls_23_rotated.json,617691,902981,30,Woman
46,964443,DepthScenes,duration_manipulation_targetAtFixation,jsons/v1_VE1000_randls_23_rotated.json,http://54.235.29.9/FacialAge/BNav_EC2/DepthDuration/v2_depth_duration_MTurk/v2_DepthDuration_HTML.html#61,61,1366,768,1366,768,8-22-2022,8-2-15,47,depth_duration_stimuli/001132_2014-06-17_14-48-54_260595134347_rgbf000100-resize_2/001132_2014-06-17_14-48-54_260595134347_rgbf000100-resize_2-target.png,1000,3.753,1,2895,1005,meters,jsons/v1_VE1000_randls_23_rotated.json,617691,902981,30,Woman
47,964443,DepthScenes,duration_manipulation_targetAtFixation,jsons/v1_VE1000_randls_23_rotated.json,http://54.235.29.9/FacialAge/BNav_EC2/DepthDuration/v2_depth_duration_MTurk/v2_DepthDuration_HTML.html#61,61,1366,768,1366,768,8-22-2022,8-2-15,48,depth_duration_stimuli/001133_2014-06-17_14-49-16_260595134347_rgbf000100-resize_0/001133_2014-06-17_14-49-16_260595134347_rgbf000100-resize_0-target.png,1000,4.2115,1,2889,991,meters,jsons/v1_VE1000_randls_23_rotated.json,617691,902981,30,Woman
48,964443,DepthScenes,duration_manipulation_targetAtFixation,jsons/v1_VE1000_randls_23_rotated.json,http://54.235.29.9/FacialAge/BNav_EC2/DepthDuration/v2_depth_duration_MTurk/v2_DepthDuration_HTML.html#61,61,1366,768,1366,768,8-22-2022,8-2-15,49,depth_duration_stimuli/001170_2014-06-17_15-43-44_260595134347_rgbf000096-resize_6/001170_2014-06-17_15-43-44_260595134347_rgbf000096-resize-original.jpg,1000,1.1909999999999998,0,3553,995,meters,jsons/v1_VE1000_randls_23_rotated.json,617691,902981,30,Woman
49,964443,DepthScenes,duration_manipulation_targetAtFixation,jsons/v1_VE1000_randls_23_rotated.json,http://54.235.29.9/FacialAge/BNav_EC2/DepthDuration/v2_depth_duration_MTurk/v2_DepthDuration_HTML.html#61,61,1366,768,1366,768,8-22-2022,8-2-15,50,depth_duration_stimuli/001094_2014-06-15_17-36-00_260595134347_rgbf000205-resize_0/001094_2014-06-15_17-36-00_260595134347_rgbf000205-resize_0-target.png,1000,4.2175,1,4898,975,meters,jsons/v1_VE1000_randls_23_rotated.json,617691,902981,30,Woman
50,964443,DepthScenes,duration_manipulation_targetAtFixation,jsons/v1_VE1000_randls_23_rotated.json,http://54.235.29.9/FacialAge/BNav_EC2/DepthDuration/v2_depth_duration_MTurk/v2_DepthDuration_HTML.html#61,61,1366,768,1366,768,8-22-2022,8-2-15,51,depth_duration_stimuli/000692_2014-06-08_13-09-42_260595134347_rgbf000199-resize_2/000692_2014-06-08_13-09-42_260595134347_rgbf000199-resize_2-target.png,1000,3.661,1,2894,1002,meters,jsons/v1_VE1000_randls_23_rotated.json,617691,902981,30,Woman
51,964443,DepthScenes,duration_manipulation_targetAtFixation,jsons/v1_VE1000_randls_23_rotated.json,http://54.235.29.9/FacialAge/BNav_EC2/DepthDuration/v2_depth_duration_MTurk/v2_DepthDuration_HTML.html#61,61,1366,768,1366,768,8-22-2022,8-2-15,52,depth_duration_stimuli/001214_2014-06-17_16-13-55_260595134347_rgbf000111-resize_0/001214_2014-06-17_16-13-55_260595134347_rgbf000111-resize_0-target.png,1000,2.6505,1,2901,990,meters,jsons/v1_VE1000_randls_23_rotated.json,617691,902981,30,Woman
52,964443,DepthScenes,duration_manipulation_targetAtFixation,jsons/v1_VE1000_randls_23_rotated.json,http://54.235.29.9/FacialAge/BNav_EC2/DepthDuration/v2_depth_duration_MTurk/v2_DepthDuration_HTML.html#61,61,1366,768,1366,768,8-22-2022,8-2-15,53,depth_duration_stimuli/000810_2014-06-08_17-20-01_260595134347_rgbf000105-resize_0/000810_2014-06-08_17-20-01_260595134347_rgbf000105-resize_0-target.png,1000,1.4865,1,2745,1013,meters,jsons/v1_VE1000_randls_23_rotated.json,617691,902981,30,Woman
53,964443,DepthScenes,duration_manipulation_targetAtFixation,jsons/v1_VE1000_randls_23_rotated.json,http://54.235.29.9/FacialAge/BNav_EC2/DepthDuration/v2_depth_duration_MTurk/v2_DepthDuration_HTML.html#61,61,1366,768,1366,768,8-22-2022,8-2-15,54,depth_duration_stimuli/001100_2014-06-15_17-46-26_260595134347_rgbf000225-resize_2/001100_2014-06-15_17-46-26_260595134347_rgbf000225-resize_2-target.png,1000,2.24,1,2749,991,meters,jsons/v1_VE1000_randls_23_rotated.json,617691,902981,30,Woman
54,964443,DepthScenes,duration_manipulation_targetAtFixation,jsons/v1_VE1000_randls_23_rotated.json,http://54.235.29.9/FacialAge/BNav_EC2/DepthDuration/v2_depth_duration_MTurk/v2_DepthDuration_HTML.html#61,61,1366,768,1366,768,8-22-2022,8-2-15,55,depth_duration_stimuli/002784_2014-06-22_19-26-30_094959634447_rgbf000083-resize_3/002784_2014-06-22_19-26-30_094959634447_rgbf000083-resize_3-target.png,1000,1.8046666666667,1,2684,1005,meters,jsons/v1_VE1000_randls_23_rotated.json,617691,902981,30,Woman
55,964443,DepthScenes,duration_manipulation_targetAtFixation,jsons/v1_VE1000_randls_23_rotated.json,http://54.235.29.9/FacialAge/BNav_EC2/DepthDuration/v2_depth_duration_MTurk/v2_DepthDuration_HTML.html#61,61,1366,768,1366,768,8-22-2022,8-2-15,56,depth_duration_stimuli/003010_2014-06-15_12-54-35_094959634447_rgbf000112-resize_0/003010_2014-06-15_12-54-35_094959634447_rgbf000112-resize_0-target.png,1000,3.1185,1,2799,1005,meters,jsons/v1_VE1000_randls_23_rotated.json,617691,902981,30,Woman
56,964443,DepthScenes,duration_manipulation_targetAtFixation,jsons/v1_VE1000_randls_23_rotated.json,http://54.235.29.9/FacialAge/BNav_EC2/DepthDuration/v2_depth_duration_MTurk/v2_DepthDuration_HTML.html#61,61,1366,768,1366,768,8-22-2022,8-2-15,57,depth_duration_stimuli/001810_2014-06-26_20-51-35_260595134347_rgbf000040-resize_3/001810_2014-06-26_20-51-35_260595134347_rgbf000040-resize_3-target.png,1000,2.2525,1,2758,1008,meters,jsons/v1_VE1000_randls_23_rotated.json,617691,902981,30,Woman
57,964443,DepthScenes,duration_manipulation_targetAtFixation,jsons/v1_VE1000_randls_23_rotated.json,http://54.235.29.9/FacialAge/BNav_EC2/DepthDuration/v2_depth_duration_MTurk/v2_DepthDuration_HTML.html#61,61,1366,768,1366,768,8-22-2022,8-2-15,58,depth_duration_stimuli/000457_2014-06-08_16-52-43_260595134347_rgbf000199-resize_1/000457_2014-06-08_16-52-43_260595134347_rgbf000199-resize_1-target.png,1000,3.6489999999999996,1,2730,1000,meters,jsons/v1_VE1000_randls_23_rotated.json,617691,902981,30,Woman
58,964443,DepthScenes,duration_manipulation_targetAtFixation,jsons/v1_VE1000_randls_23_rotated.json,http://54.235.29.9/FacialAge/BNav_EC2/DepthDuration/v2_depth_duration_MTurk/v2_DepthDuration_HTML.html#61,61,1366,768,1366,768,8-22-2022,8-2-15,59,depth_duration_stimuli/000929_2014-06-09_16-33-19_260595134347_rgbf000139-resize_0/000929_2014-06-09_16-33-19_260595134347_rgbf000139-resize_0-target.png,1000,2.8680000000000003,1,2775,1004,meters,jsons/v1_VE1000_randls_23_rotated.json,617691,902981,30,Woman
59,964443,DepthScenes,duration_manipulation_targetAtFixation,jsons/v1_VE1000_randls_23_rotated.json,http://54.235.29.9/FacialAge/BNav_EC2/DepthDuration/v2_depth_duration_MTurk/v2_DepthDuration_HTML.html#61,61,1366,768,1366,768,8-22-2022,8-2-15,60,depth_duration_stimuli/001447_2014-06-19_17-00-32_260595134347_rgbf000082-resize_5/001447_2014-06-19_17-00-32_260595134347_rgbf000082-resize_5-target.png,1000,4.13775,1,2811,1000,meters,jsons/v1_VE1000_randls_23_rotated.json,617691,902981,30,Woman
60,964443,DepthScenes,duration_manipulation_targetAtFixation,jsons/v1_VE1000_randls_23_rotated.json,http://54.235.29.9/FacialAge/BNav_EC2/DepthDuration/v2_depth_duration_MTurk/v2_DepthDuration_HTML.html#61,61,1366,768,1366,768,8-22-2022,8-2-15,61,depth_duration_stimuli/000447_2014-06-08_16-15-46_260595134347_rgbf000130-resize_1/000447_2014-06-08_16-15-46_260595134347_rgbf000130-resize_1-target.png,1000,4.479,1,2682,1012,meters,jsons/v1_VE1000_randls_23_rotated.json,617691,902981,30,Woman
61,964443,DepthScenes,duration_manipulation_targetAtFixation,jsons/v1_VE1000_randls_23_rotated.json,http://54.235.29.9/FacialAge/BNav_EC2/DepthDuration/v2_depth_duration_MTurk/v2_DepthDuration_HTML.html#61,61,1366,768,1366,768,8-22-2022,8-2-15,62,depth_duration_stimuli/000483_2014-06-09_20-41-45_260595134347_rgbf000116-resize_4/000483_2014-06-09_20-41-45_260595134347_rgbf000116-resize_4-target.png,1000,1.337,1,2684,1003,meters,jsons/v1_VE1000_randls_23_rotated.json,617691,902981,30,Woman
62,964443,DepthScenes,duration_manipulation_targetAtFixation,jsons/v1_VE1000_randls_23_rotated.json,http://54.235.29.9/FacialAge/BNav_EC2/DepthDuration/v2_depth_duration_MTurk/v2_DepthDuration_HTML.html#61,61,1366,768,1366,768,8-22-2022,8-2-15,63,depth_duration_stimuli/000469_2014-06-09_19-42-10_260595134347_rgbf000081-resize_1/000469_2014-06-09_19-42-10_260595134347_rgbf000081-resize_1-target.png,1000,1.652,1,2669,965,meters,jsons/v1_VE1000_randls_23_rotated.json,617691,902981,30,Woman
63,964443,DepthScenes,duration_manipulation_targetAtFixation,jsons/v1_VE1000_randls_23_rotated.json,http://54.235.29.9/FacialAge/BNav_EC2/DepthDuration/v2_depth_duration_MTurk/v2_DepthDuration_HTML.html#61,61,1366,768,1366,768,8-22-2022,8-2-15,64,depth_duration_stimuli/003490_2014-05-21_15-50-11_094959634447_rgbf000101-resize_3/003490_2014-05-21_15-50-11_094959634447_rgbf000101-resize_3-target.png,1000,3.6445,1,2997,1009,meters,jsons/v1_VE1000_randls_23_rotated.json,617691,902981,30,Woman
64,964443,DepthScenes,duration_manipulation_targetAtFixation,jsons/v1_VE1000_randls_23_rotated.json,http://54.235.29.9/FacialAge/BNav_EC2/DepthDuration/v2_depth_duration_MTurk/v2_DepthDuration_HTML.html#61,61,1366,768,1366,768,8-22-2022,8-2-15,65,depth_duration_stimuli/001175_2014-06-17_15-45-55_260595134347_rgbf000129-resize_4/001175_2014-06-17_15-45-55_260595134347_rgbf000129-resize_4-target.png,1000,4.255,1,2882,995,meters,jsons/v1_VE1000_randls_23_rotated.json,617691,902981,30,Woman
65,964443,DepthScenes,duration_manipulation_targetAtFixation,jsons/v1_VE1000_randls_23_rotated.json,http://54.235.29.9/FacialAge/BNav_EC2/DepthDuration/v2_depth_duration_MTurk/v2_DepthDuration_HTML.html#61,61,1366,768,1366,768,8-22-2022,8-2-15,66,depth_duration_stimuli/001540_2014-06-20_17-01-05_260595134347_rgbf000086-resize_2/001540_2014-06-20_17-01-05_260595134347_rgbf000086-resize-original.jpg,1000,1.459,0,3630,930,meters,jsons/v1_VE1000_randls_23_rotated.json,617691,902981,30,Woman
66,964443,DepthScenes,duration_manipulation_targetAtFixation,jsons/v1_VE1000_randls_23_rotated.json,http://54.235.29.9/FacialAge/BNav_EC2/DepthDuration/v2_depth_duration_MTurk/v2_DepthDuration_HTML.html#61,61,1366,768,1366,768,8-22-2022,8-2-15,67,depth_duration_stimuli/000191_2014-05-12_17-07-38_260595134347_rgbf000199-resize_0/000191_2014-05-12_17-07-38_260595134347_rgbf000199-resize_0-target.png,1000,3.7995,1,2750,987,meters,jsons/v1_VE1000_randls_23_rotated.json,617691,902981,30,Woman
67,964443,DepthScenes,duration_manipulation_targetAtFixation,jsons/v1_VE1000_randls_23_rotated.json,http://54.235.29.9/FacialAge/BNav_EC2/DepthDuration/v2_depth_duration_MTurk/v2_DepthDuration_HTML.html#61,61,1366,768,1366,768,8-22-2022,8-2-15,68,depth_duration_stimuli/000493_2014-06-09_21-01-18_260595134347_rgbf000196-resize_3/000493_2014-06-09_21-01-18_260595134347_rgbf000196-resize_3-target.png,1000,3.44,1,2679,985,meters,jsons/v1_VE1000_randls_23_rotated.json,617691,902981,30,Woman
68,964443,DepthScenes,duration_manipulation_targetAtFixation,jsons/v1_VE1000_randls_23_rotated.json,http://54.235.29.9/FacialAge/BNav_EC2/DepthDuration/v2_depth_duration_MTurk/v2_DepthDuration_HTML.html#61,61,1366,768,1366,768,8-22-2022,8-2-15,69,depth_duration_stimuli/002657_2014-06-13_15-29-54_094959634447_rgbf000150-resize_1/002657_2014-06-13_15-29-54_094959634447_rgbf000150-resize_1-target.png,1000,4.919,1,2585,995,meters,jsons/v1_VE1000_randls_23_rotated.json,617691,902981,30,Woman
69,964443,DepthScenes,duration_manipulation_targetAtFixation,jsons/v1_VE1000_randls_23_rotated.json,http://54.235.29.9/FacialAge/BNav_EC2/DepthDuration/v2_depth_duration_MTurk/v2_DepthDuration_HTML.html#61,61,1366,768,1366,768,8-22-2022,8-2-15,70,depth_duration_stimuli/002375_2014-06-28_20-13-44_260595134347_rgbf000032-resize_1/002375_2014-06-28_20-13-44_260595134347_rgbf000032-resize_1-target.png,1000,4.0175,1,2577,998,meters,jsons/v1_VE1000_randls_23_rotated.json,617691,902981,30,Woman
70,964443,DepthScenes,duration_manipulation_targetAtFixation,jsons/v1_VE1000_randls_23_rotated.json,http://54.235.29.9/FacialAge/BNav_EC2/DepthDuration/v2_depth_duration_MTurk/v2_DepthDuration_HTML.html#61,61,1366,768,1366,768,8-22-2022,8-2-15,71,depth_duration_stimuli/000556_2014-06-09_22-42-56_260595134347_rgbf000214-resize_1/000556_2014-06-09_22-42-56_260595134347_rgbf000214-resize_1-target.png,1000,4.8415,1,3820,1001,meters,jsons/v1_VE1000_randls_23_rotated.json,617691,902981,30,Woman
71,964443,DepthScenes,duration_manipulation_targetAtFixation,jsons/v1_VE1000_randls_23_rotated.json,http://54.235.29.9/FacialAge/BNav_EC2/DepthDuration/v2_depth_duration_MTurk/v2_DepthDuration_HTML.html#61,61,1366,768,1366,768,8-22-2022,8-2-15,72,depth_duration_stimuli/001158_2014-06-17_15-32-16_260595134347_rgbf000138-resize_2/001158_2014-06-17_15-32-16_260595134347_rgbf000138-resize_2-target.png,1000,4.5315,1,3852,1022,meters,jsons/v1_VE1000_randls_23_rotated.json,617691,902981,30,Woman
72,964443,DepthScenes,duration_manipulation_targetAtFixation,jsons/v1_VE1000_randls_23_rotated.json,http://54.235.29.9/FacialAge/BNav_EC2/DepthDuration/v2_depth_duration_MTurk/v2_DepthDuration_HTML.html#61,61,1366,768,1366,768,8-22-2022,8-2-15,73,depth_duration_stimuli/000780_2014-06-08_22-28-29_260595134347_rgbf000126-resize_1/000780_2014-06-08_22-28-29_260595134347_rgbf000126-resize_1-target.png,1000,3.3825,1,2967,986,meters,jsons/v1_VE1000_randls_23_rotated.json,617691,902981,30,Woman
73,964443,DepthScenes,duration_manipulation_targetAtFixation,jsons/v1_VE1000_randls_23_rotated.json,http://54.235.29.9/FacialAge/BNav_EC2/DepthDuration/v2_depth_duration_MTurk/v2_DepthDuration_HTML.html#61,61,1366,768,1366,768,8-22-2022,8-2-15,74,depth_duration_stimuli/002445_2014-06-28_20-32-16_260595134347_rgbf000029-resize_4/002445_2014-06-28_20-32-16_260595134347_rgbf000029-resize_4-target.png,1000,2.5315,1,2737,1079,meters,jsons/v1_VE1000_randls_23_rotated.json,617691,902981,30,Woman
74,964443,DepthScenes,duration_manipulation_targetAtFixation,jsons/v1_VE1000_randls_23_rotated.json,http://54.235.29.9/FacialAge/BNav_EC2/DepthDuration/v2_depth_duration_MTurk/v2_DepthDuration_HTML.html#61,61,1366,768,1366,768,8-22-2022,8-2-15,75,depth_duration_stimuli/002344_2014-06-28_20-06-29_260595134347_rgbf000030-resize_1/002344_2014-06-28_20-06-29_260595134347_rgbf000030-resize_1-target.png,1000,1.5795,1,2694,999,meters,jsons/v1_VE1000_randls_23_rotated.json,617691,902981,30,Woman
75,964443,DepthScenes,duration_manipulation_targetAtFixation,jsons/v1_VE1000_randls_23_rotated.json,http://54.235.29.9/FacialAge/BNav_EC2/DepthDuration/v2_depth_duration_MTurk/v2_DepthDuration_HTML.html#61,61,1366,768,1366,768,8-22-2022,8-2-15,76,depth_duration_stimuli/002725_2014-06-22_11-47-51_094959634447_rgbf000070-resize_1/002725_2014-06-22_11-47-51_094959634447_rgbf000070-resize_1-target.png,1000,2.195,1,2610,1015,meters,jsons/v1_VE1000_randls_23_rotated.json,617691,902981,30,Woman
76,964443,DepthScenes,duration_manipulation_targetAtFixation,jsons/v1_VE1000_randls_23_rotated.json,http://54.235.29.9/FacialAge/BNav_EC2/DepthDuration/v2_depth_duration_MTurk/v2_DepthDuration_HTML.html#61,61,1366,768,1366,768,8-22-2022,8-2-15,77,depth_duration_stimuli/003338_2014-05-20_11-01-23_094959634447_rgbf000051-resize_6/003338_2014-05-20_11-01-23_094959634447_rgbf000051-resize_6-target.png,1000,1.693,1,2794,1003,meters,jsons/v1_VE1000_randls_23_rotated.json,617691,902981,30,Woman
77,964443,DepthScenes,duration_manipulation_targetAtFixation,jsons/v1_VE1000_randls_23_rotated.json,http://54.235.29.9/FacialAge/BNav_EC2/DepthDuration/v2_depth_duration_MTurk/v2_DepthDuration_HTML.html#61,61,1366,768,1366,768,8-22-2022,8-2-15,78,depth_duration_stimuli/002509_2014-06-24_13-19-22_094959634447_rgbf000077-resize_0/002509_2014-06-24_13-19-22_094959634447_rgbf000077-resize_0-target.png,1000,1.3065,1,2711,1000,meters,jsons/v1_VE1000_randls_23_rotated.json,617691,902981,30,Woman
78,964443,DepthScenes,duration_manipulation_targetAtFixation,jsons/v1_VE1000_randls_23_rotated.json,http://54.235.29.9/FacialAge/BNav_EC2/DepthDuration/v2_depth_duration_MTurk/v2_DepthDuration_HTML.html#61,61,1366,768,1366,768,8-22-2022,8-2-15,79,depth_duration_stimuli/002103_2014-06-25_20-00-40_260595134347_rgbf000049-resize_0/002103_2014-06-25_20-00-40_260595134347_rgbf000049-resize_0-target.png,1000,4.105,1,2791,1006,meters,jsons/v1_VE1000_randls_23_rotated.json,617691,902981,30,Woman
79,964443,DepthScenes,duration_manipulation_targetAtFixation,jsons/v1_VE1000_randls_23_rotated.json,http://54.235.29.9/FacialAge/BNav_EC2/DepthDuration/v2_depth_duration_MTurk/v2_DepthDuration_HTML.html#61,61,1366,768,1366,768,8-22-2022,8-2-15,80,depth_duration_stimuli/002039_2014-06-24_20-22-38_260595134347_rgbf000084-resize_1/002039_2014-06-24_20-22-38_260595134347_rgbf000084-resize_1-target.png,1000,4.408,1,2905,1000,meters,jsons/v1_VE1000_randls_23_rotated.json,617691,902981,30,Woman
80,964443,DepthScenes,duration_manipulation_targetAtFixation,jsons/v1_VE1000_randls_23_rotated.json,http://54.235.29.9/FacialAge/BNav_EC2/DepthDuration/v2_depth_duration_MTurk/v2_DepthDuration_HTML.html#61,61,1366,768,1366,768,8-22-2022,8-2-15,81,depth_duration_stimuli/002414_2014-06-28_20-24-58_260595134347_rgbf000067-resize_4/002414_2014-06-28_20-24-58_260595134347_rgbf000067-resize_4-target.png,1000,4.363,1,3025,998,meters,jsons/v1_VE1000_randls_23_rotated.json,617691,902981,30,Woman
81,964443,DepthScenes,duration_manipulation_targetAtFixation,jsons/v1_VE1000_randls_23_rotated.json,http://54.235.29.9/FacialAge/BNav_EC2/DepthDuration/v2_depth_duration_MTurk/v2_DepthDuration_HTML.html#61,61,1366,768,1366,768,8-22-2022,8-2-15,82,depth_duration_stimuli/000773_2014-06-08_22-24-54_260595134347_rgbf000093-resize_1/000773_2014-06-08_22-24-54_260595134347_rgbf000093-resize_1-target.png,1000,4.973,1,2723,999,meters,jsons/v1_VE1000_randls_23_rotated.json,617691,902981,30,Woman
82,964443,DepthScenes,duration_manipulation_targetAtFixation,jsons/v1_VE1000_randls_23_rotated.json,http://54.235.29.9/FacialAge/BNav_EC2/DepthDuration/v2_depth_duration_MTurk/v2_DepthDuration_HTML.html#61,61,1366,768,1366,768,8-22-2022,8-2-15,83,depth_duration_stimuli/002953_2014-06-08_17-32-18_094959634447_rgbf000059-resize_5/002953_2014-06-08_17-32-18_094959634447_rgbf000059-resize_5-target.png,1000,1.551,1,2778,1011,meters,jsons/v1_VE1000_randls_23_rotated.json,617691,902981,30,Woman
83,964443,DepthScenes,duration_manipulation_targetAtFixation,jsons/v1_VE1000_randls_23_rotated.json,http://54.235.29.9/FacialAge/BNav_EC2/DepthDuration/v2_depth_duration_MTurk/v2_DepthDuration_HTML.html#61,61,1366,768,1366,768,8-22-2022,8-2-15,84,depth_duration_stimuli/000878_2014-06-08_22-52-45_260595134347_rgbf000045-resize_2/000878_2014-06-08_22-52-45_260595134347_rgbf000045-resize_2-target.png,1000,2.092,1,2722,1008,meters,jsons/v1_VE1000_randls_23_rotated.json,617691,902981,30,Woman
84,964443,DepthScenes,duration_manipulation_targetAtFixation,jsons/v1_VE1000_randls_23_rotated.json,http://54.235.29.9/FacialAge/BNav_EC2/DepthDuration/v2_depth_duration_MTurk/v2_DepthDuration_HTML.html#61,61,1366,768,1366,768,8-22-2022,8-2-15,85,depth_duration_stimuli/001617_2014-06-20_11-35-32_260595134347_rgbf000066-resize_1/001617_2014-06-20_11-35-32_260595134347_rgbf000066-resize_1-target.png,1000,3.7910000000000004,1,2735,985,meters,jsons/v1_VE1000_randls_23_rotated.json,617691,902981,30,Woman
85,964443,DepthScenes,duration_manipulation_targetAtFixation,jsons/v1_VE1000_randls_23_rotated.json,http://54.235.29.9/FacialAge/BNav_EC2/DepthDuration/v2_depth_duration_MTurk/v2_DepthDuration_HTML.html#61,61,1366,768,1366,768,8-22-2022,8-2-15,86,depth_duration_stimuli/001806_2014-06-26_20-50-20_260595134347_rgbf000091-resize_1/001806_2014-06-26_20-50-20_260595134347_rgbf000091-resize_1-target.png,1000,2.7305,1,2661,1000,meters,jsons/v1_VE1000_randls_23_rotated.json,617691,902981,30,Woman
86,964443,DepthScenes,duration_manipulation_targetAtFixation,jsons/v1_VE1000_randls_23_rotated.json,http://54.235.29.9/FacialAge/BNav_EC2/DepthDuration/v2_depth_duration_MTurk/v2_DepthDuration_HTML.html#61,61,1366,768,1366,768,8-22-2022,8-2-15,87,depth_duration_stimuli/003495_2014-05-21_16-01-51_094959634447_rgbf000100-resize_3/003495_2014-05-21_16-01-51_094959634447_rgbf000100-resize_3-target.png,1000,1.6255,1,2630,1014,meters,jsons/v1_VE1000_randls_23_rotated.json,617691,902981,30,Woman
87,964443,DepthScenes,duration_manipulation_targetAtFixation,jsons/v1_VE1000_randls_23_rotated.json,http://54.235.29.9/FacialAge/BNav_EC2/DepthDuration/v2_depth_duration_MTurk/v2_DepthDuration_HTML.html#61,61,1366,768,1366,768,8-22-2022,8-2-15,88,depth_duration_stimuli/001244_2014-06-17_16-47-45_260595134347_rgbf000030-resize_4/001244_2014-06-17_16-47-45_260595134347_rgbf000030-resize_4-target.png,1000,2.0425,1,2839,988,meters,jsons/v1_VE1000_randls_23_rotated.json,617691,902981,30,Woman
88,964443,DepthScenes,duration_manipulation_targetAtFixation,jsons/v1_VE1000_randls_23_rotated.json,http://54.235.29.9/FacialAge/BNav_EC2/DepthDuration/v2_depth_duration_MTurk/v2_DepthDuration_HTML.html#61,61,1366,768,1366,768,8-22-2022,8-2-15,89,depth_duration_stimuli/002805_2014-06-22_19-54-03_094959634447_rgbf000079-resize_1/002805_2014-06-22_19-54-03_094959634447_rgbf000079-resize_1-target.png,1000,3.1439999999999997,1,2764,998,meters,jsons/v1_VE1000_randls_23_rotated.json,617691,902981,30,Woman
89,964443,DepthScenes,duration_manipulation_targetAtFixation,jsons/v1_VE1000_randls_23_rotated.json,http://54.235.29.9/FacialAge/BNav_EC2/DepthDuration/v2_depth_duration_MTurk/v2_DepthDuration_HTML.html#61,61,1366,768,1366,768,8-22-2022,8-2-15,90,depth_duration_stimuli/000906_2014-06-08_13-35-43_260595134347_rgbf000155-resize_1/000906_2014-06-08_13-35-43_260595134347_rgbf000155-resize_1-target.png,1000,2.8489999999999998,1,2747,1010,meters,jsons/v1_VE1000_randls_23_rotated.json,617691,902981,30,Woman
90,964443,DepthScenes,duration_manipulation_targetAtFixation,jsons/v1_VE1000_randls_23_rotated.json,http://54.235.29.9/FacialAge/BNav_EC2/DepthDuration/v2_depth_duration_MTurk/v2_DepthDuration_HTML.html#61,61,1366,768,1366,768,8-22-2022,8-2-15,91,depth_duration_stimuli/000734_2014-06-08_17-39-11_260595134347_rgbf000128-resize_2/000734_2014-06-08_17-39-11_260595134347_rgbf000128-resize_2-target.png,1000,4.098,2,2859,994,meters,jsons/v1_VE1000_randls_23_rotated.json,617691,902981,30,Woman
91,964443,DepthScenes,duration_manipulation_targetAtFixation,jsons/v1_VE1000_randls_23_rotated.json,http://54.235.29.9/FacialAge/BNav_EC2/DepthDuration/v2_depth_duration_MTurk/v2_DepthDuration_HTML.html#61,61,1366,768,1366,768,8-22-2022,8-2-15,92,depth_duration_stimuli/000739_2014-06-08_18-45-58_260595134347_rgbf000068-resize_1/000739_2014-06-08_18-45-58_260595134347_rgbf000068-resize_1-target.png,1000,3.534,2,4225,1002,meters,jsons/v1_VE1000_randls_23_rotated.json,617691,902981,30,Woman
92,964443,DepthScenes,duration_manipulation_targetAtFixation,jsons/v1_VE1000_randls_23_rotated.json,http://54.235.29.9/FacialAge/BNav_EC2/DepthDuration/v2_depth_duration_MTurk/v2_DepthDuration_HTML.html#61,61,1366,768,1366,768,8-22-2022,8-2-15,93,depth_duration_stimuli/002136_2014-06-25_21-18-03_260595134347_rgbf000109-resize_3/002136_2014-06-25_21-18-03_260595134347_rgbf000109-resize_3-target.png,1000,1.9569999999999999,2,2574,998,meters,jsons/v1_VE1000_randls_23_rotated.json,617691,902981,30,Woman
93,964443,DepthScenes,duration_manipulation_targetAtFixation,jsons/v1_VE1000_randls_23_rotated.json,http://54.235.29.9/FacialAge/BNav_EC2/DepthDuration/v2_depth_duration_MTurk/v2_DepthDuration_HTML.html#61,61,1366,768,1366,768,8-22-2022,8-2-15,94,depth_duration_stimuli/002964_2014-06-08_17-46-11_094959634447_rgbf000091-resize_4/002964_2014-06-08_17-46-11_094959634447_rgbf000091-resize_4-target.png,1000,1.6909999999999998,2,2657,1019,meters,jsons/v1_VE1000_randls_23_rotated.json,617691,902981,30,Woman
94,964443,DepthScenes,duration_manipulation_targetAtFixation,jsons/v1_VE1000_randls_23_rotated.json,http://54.235.29.9/FacialAge/BNav_EC2/DepthDuration/v2_depth_duration_MTurk/v2_DepthDuration_HTML.html#61,61,1366,768,1366,768,8-22-2022,8-2-15,95,depth_duration_stimuli/000109_2014-05-14_23-41-52_260595134347_rgbf000035-resize_9/000109_2014-05-14_23-41-52_260595134347_rgbf000035-resize_9-target.png,1000,1.3545,2,2584,993,meters,jsons/v1_VE1000_randls_23_rotated.json,617691,902981,30,Woman
95,964443,DepthScenes,duration_manipulation_targetAtFixation,jsons/v1_VE1000_randls_23_rotated.json,http://54.235.29.9/FacialAge/BNav_EC2/DepthDuration/v2_depth_duration_MTurk/v2_DepthDuration_HTML.html#61,61,1366,768,1366,768,8-22-2022,8-2-15,96,depth_duration_stimuli/000470_2014-06-09_19-42-40_260595134347_rgbf000094-resize_1/000470_2014-06-09_19-42-40_260595134347_rgbf000094-resize_1-target.png,1000,1.831,2,2830,997,meters,jsons/v1_VE1000_randls_23_rotated.json,617691,902981,30,Woman
96,964443,DepthScenes,duration_manipulation_targetAtFixation,jsons/v1_VE1000_randls_23_rotated.json,http://54.235.29.9/FacialAge/BNav_EC2/DepthDuration/v2_depth_duration_MTurk/v2_DepthDuration_HTML.html#61,61,1366,768,1366,768,8-22-2022,8-2-15,97,depth_duration_stimuli/002639_2014-06-24_14-51-37_094959634447_rgbf000074-resize_4/002639_2014-06-24_14-51-37_094959634447_rgbf000074-resize_4-target.png,1000,4.0375,2,2824,995,meters,jsons/v1_VE1000_randls_23_rotated.json,617691,902981,30,Woman
97,964443,DepthScenes,duration_manipulation_targetAtFixation,jsons/v1_VE1000_randls_23_rotated.json,http://54.235.29.9/FacialAge/BNav_EC2/DepthDuration/v2_depth_duration_MTurk/v2_DepthDuration_HTML.html#61,61,1366,768,1366,768,8-22-2022,8-2-15,98,depth_duration_stimuli/003292_2014-05-14_21-53-49_094959634447_rgbf000100-resize_2/003292_2014-05-14_21-53-49_094959634447_rgbf000100-resize_2-target.png,1000,3.4815,2,3269,990,meters,jsons/v1_VE1000_randls_23_rotated.json,617691,902981,30,Woman
98,964443,DepthScenes,duration_manipulation_targetAtFixation,jsons/v1_VE1000_randls_23_rotated.json,http://54.235.29.9/FacialAge/BNav_EC2/DepthDuration/v2_depth_duration_MTurk/v2_DepthDuration_HTML.html#61,61,1366,768,1366,768,8-22-2022,8-2-15,99,depth_duration_stimuli/001222_2014-06-17_16-24-06_260595134347_rgbf000073-resize_0/001222_2014-06-17_16-24-06_260595134347_rgbf000073-resize-original.jpg,1000,1.4385,2,2728,1001,meters,jsons/v1_VE1000_randls_23_rotated.json,617691,902981,30,Woman
99,964443,DepthScenes,duration_manipulation_targetAtFixation,jsons/v1_VE1000_randls_23_rotated.json,http://54.235.29.9/FacialAge/BNav_EC2/DepthDuration/v2_depth_duration_MTurk/v2_DepthDuration_HTML.html#61,61,1366,768,1366,768,8-22-2022,8-2-15,100,depth_duration_stimuli/003079_2014-06-15_15-18-20_094959634447_rgbf000152-resize_8/003079_2014-06-15_15-18-20_094959634447_rgbf000152-resize_8-target.png,1000,2.8775,2,2818,1008,meters,jsons/v1_VE1000_randls_23_rotated.json,617691,902981,30,Woman
100,964443,DepthScenes,duration_manipulation_targetAtFixation,jsons/v1_VE1000_randls_23_rotated.json,http://54.235.29.9/FacialAge/BNav_EC2/DepthDuration/v2_depth_duration_MTurk/v2_DepthDuration_HTML.html#61,61,1366,768,1366,768,8-22-2022,8-2-15,101,depth_duration_stimuli/000506_2014-06-08_23-21-00_260595134347_rgbf000070-resize_7/000506_2014-06-08_23-21-00_260595134347_rgbf000070-resize_7-target.png,1000,4.0585,2,2585,992,meters,jsons/v1_VE1000_randls_23_rotated.json,617691,902981,30,Woman
101,964443,DepthScenes,duration_manipulation_targetAtFixation,jsons/v1_VE1000_randls_23_rotated.json,http://54.235.29.9/FacialAge/BNav_EC2/DepthDuration/v2_depth_duration_MTurk/v2_DepthDuration_HTML.html#61,61,1366,768,1366,768,8-22-2022,8-2-15,102,depth_duration_stimuli/003587_2014-05-23_16-48-02_094959634447_rgbf002384-resize_2/003587_2014-05-23_16-48-02_094959634447_rgbf002384-resize_2-target.png,1000,1.357,2,2798,1008,meters,jsons/v1_VE1000_randls_23_rotated.json,617691,902981,30,Woman
102,964443,DepthScenes,duration_manipulation_targetAtFixation,jsons/v1_VE1000_randls_23_rotated.json,http://54.235.29.9/FacialAge/BNav_EC2/DepthDuration/v2_depth_duration_MTurk/v2_DepthDuration_HTML.html#61,61,1366,768,1366,768,8-22-2022,8-2-15,103,depth_duration_stimuli/001167_2014-06-17_15-38-07_260595134347_rgbf000108-resize_0/001167_2014-06-17_15-38-07_260595134347_rgbf000108-resize_0-target.png,1000,1.8505,2,2782,985,meters,jsons/v1_VE1000_randls_23_rotated.json,617691,902981,30,Woman
103,964443,DepthScenes,duration_manipulation_targetAtFixation,jsons/v1_VE1000_randls_23_rotated.json,http://54.235.29.9/FacialAge/BNav_EC2/DepthDuration/v2_depth_duration_MTurk/v2_DepthDuration_HTML.html#61,61,1366,768,1366,768,8-22-2022,8-2-15,104,depth_duration_stimuli/002758_2014-06-22_19-11-20_094959634447_rgbf000128-resize_1/002758_2014-06-22_19-11-20_094959634447_rgbf000128-resize_1-target.png,1000,2.555,2,2632,985,meters,jsons/v1_VE1000_randls_23_rotated.json,617691,902981,30,Woman
104,964443,DepthScenes,duration_manipulation_targetAtFixation,jsons/v1_VE1000_randls_23_rotated.json,http://54.235.29.9/FacialAge/BNav_EC2/DepthDuration/v2_depth_duration_MTurk/v2_DepthDuration_HTML.html#61,61,1366,768,1366,768,8-22-2022,8-2-15,105,depth_duration_stimuli/002630_2014-06-24_14-47-50_094959634447_rgbf000055-resize_1/002630_2014-06-24_14-47-50_094959634447_rgbf000055-resize_1-target.png,1000,3.0095,2,2662,992,meters,jsons/v1_VE1000_randls_23_rotated.json,617691,902981,30,Woman
105,964443,DepthScenes,duration_manipulation_targetAtFixation,jsons/v1_VE1000_randls_23_rotated.json,http://54.235.29.9/FacialAge/BNav_EC2/DepthDuration/v2_depth_duration_MTurk/v2_DepthDuration_HTML.html#61,61,1366,768,1366,768,8-22-2022,8-2-15,106,depth_duration_stimuli/001828_2014-06-26_21-40-03_260595134347_rgbf000024-resize_0/001828_2014-06-26_21-40-03_260595134347_rgbf000024-resize_0-target.png,1000,4.8260000000000005,2,3007,999,meters,jsons/v1_VE1000_randls_23_rotated.json,617691,902981,30,Woman
106,964443,DepthScenes,duration_manipulation_targetAtFixation,jsons/v1_VE1000_randls_23_rotated.json,http://54.235.29.9/FacialAge/BNav_EC2/DepthDuration/v2_depth_duration_MTurk/v2_DepthDuration_HTML.html#61,61,1366,768,1366,768,8-22-2022,8-2-15,107,depth_duration_stimuli/000009_2014-05-26_14-32-05_260595134347_rgbf000034-resize_3/000009_2014-05-26_14-32-05_260595134347_rgbf000034-resize_3-target.png,1000,3.8715,2,2906,999,meters,jsons/v1_VE1000_randls_23_rotated.json,617691,902981,30,Woman
107,964443,DepthScenes,duration_manipulation_targetAtFixation,jsons/v1_VE1000_randls_23_rotated.json,http://54.235.29.9/FacialAge/BNav_EC2/DepthDuration/v2_depth_duration_MTurk/v2_DepthDuration_HTML.html#61,61,1366,768,1366,768,8-22-2022,8-2-15,108,depth_duration_stimuli/000137_2014-05-20_17-04-49_260595134347_rgbf000120-resize_1/000137_2014-05-20_17-04-49_260595134347_rgbf000120-resize_1-target.png,1000,3.786,2,2825,991,meters,jsons/v1_VE1000_randls_23_rotated.json,617691,902981,30,Woman
108,964443,DepthScenes,duration_manipulation_targetAtFixation,jsons/v1_VE1000_randls_23_rotated.json,http://54.235.29.9/FacialAge/BNav_EC2/DepthDuration/v2_depth_duration_MTurk/v2_DepthDuration_HTML.html#61,61,1366,768,1366,768,8-22-2022,8-2-15,109,depth_duration_stimuli/000736_2014-06-08_18-24-15_260595134347_rgbf000206-resize_3/000736_2014-06-08_18-24-15_260595134347_rgbf000206-resize_3-target.png,1000,3.515,2,2756,1040,meters,jsons/v1_VE1000_randls_23_rotated.json,617691,902981,30,Woman
109,964443,DepthScenes,duration_manipulation_targetAtFixation,jsons/v1_VE1000_randls_23_rotated.json,http://54.235.29.9/FacialAge/BNav_EC2/DepthDuration/v2_depth_duration_MTurk/v2_DepthDuration_HTML.html#61,61,1366,768,1366,768,8-22-2022,8-2-15,110,depth_duration_stimuli/001235_2014-06-17_16-37-36_260595134347_rgbf000084-resize_4/001235_2014-06-17_16-37-36_260595134347_rgbf000084-resize_4-target.png,1000,3.6605,2,2715,999,meters,jsons/v1_VE1000_randls_23_rotated.json,617691,902981,30,Woman
110,964443,DepthScenes,duration_manipulation_targetAtFixation,jsons/v1_VE1000_randls_23_rotated.json,http://54.235.29.9/FacialAge/BNav_EC2/DepthDuration/v2_depth_duration_MTurk/v2_DepthDuration_HTML.html#61,61,1366,768,1366,768,8-22-2022,8-2-15,111,depth_duration_stimuli/000788_2014-06-08_22-34-36_260595134347_rgbf000131-resize_1/000788_2014-06-08_22-34-36_260595134347_rgbf000131-resize_1-target.png,1000,3.359,2,2832,1006,meters,jsons/v1_VE1000_randls_23_rotated.json,617691,902981,30,Woman
111,964443,DepthScenes,duration_manipulation_targetAtFixation,jsons/v1_VE1000_randls_23_rotated.json,http://54.235.29.9/FacialAge/BNav_EC2/DepthDuration/v2_depth_duration_MTurk/v2_DepthDuration_HTML.html#61,61,1366,768,1366,768,8-22-2022,8-2-15,112,depth_duration_stimuli/000709_2014-06-08_13-51-55_260595134347_rgbf000068-resize_3/000709_2014-06-08_13-51-55_260595134347_rgbf000068-resize_3-target.png,1000,1.8030000000000002,2,2681,1014,meters,jsons/v1_VE1000_randls_23_rotated.json,617691,902981,30,Woman
112,964443,DepthScenes,duration_manipulation_targetAtFixation,jsons/v1_VE1000_randls_23_rotated.json,http://54.235.29.9/FacialAge/BNav_EC2/DepthDuration/v2_depth_duration_MTurk/v2_DepthDuration_HTML.html#61,61,1366,768,1366,768,8-22-2022,8-2-15,113,depth_duration_stimuli/002057_2014-06-24_21-00-13_260595134347_rgbf000120-resize_1/002057_2014-06-24_21-00-13_260595134347_rgbf000120-resize_1-target.png,1000,2.967,2,2689,994,meters,jsons/v1_VE1000_randls_23_rotated.json,617691,902981,30,Woman
113,964443,DepthScenes,duration_manipulation_targetAtFixation,jsons/v1_VE1000_randls_23_rotated.json,http://54.235.29.9/FacialAge/BNav_EC2/DepthDuration/v2_depth_duration_MTurk/v2_DepthDuration_HTML.html#61,61,1366,768,1366,768,8-22-2022,8-2-15,114,depth_duration_stimuli/003081_2014-06-15_15-19-16_094959634447_rgbf000150-resize_1/003081_2014-06-15_15-19-16_094959634447_rgbf000150-resize_1-target.png,1000,3.9125,2,2649,1017,meters,jsons/v1_VE1000_randls_23_rotated.json,617691,902981,30,Woman
114,964443,DepthScenes,duration_manipulation_targetAtFixation,jsons/v1_VE1000_randls_23_rotated.json,http://54.235.29.9/FacialAge/BNav_EC2/DepthDuration/v2_depth_duration_MTurk/v2_DepthDuration_HTML.html#61,61,1366,768,1366,768,8-22-2022,8-2-15,115,depth_duration_stimuli/001417_2014-06-19_16-25-36_260595134347_rgbf000115-resize_5/001417_2014-06-19_16-25-36_260595134347_rgbf000115-resize_5-target.png,1000,4.6255,2,2954,1006,meters,jsons/v1_VE1000_randls_23_rotated.json,617691,902981,30,Woman
115,964443,DepthScenes,duration_manipulation_targetAtFixation,jsons/v1_VE1000_randls_23_rotated.json,http://54.235.29.9/FacialAge/BNav_EC2/DepthDuration/v2_depth_duration_MTurk/v2_DepthDuration_HTML.html#61,61,1366,625,1366,768,8-22-2022,8-2-15,116,depth_duration_stimuli/000409_2014-06-04_19-23-33_260595134347_rgbf000067-resize_0/000409_2014-06-04_19-23-33_260595134347_rgbf000067-resize_0-target.png,1000,3.7335,0,13442,997,meters,jsons/v1_VE1000_randls_23_rotated.json,617691,902981,30,Woman
116,964443,DepthScenes,duration_manipulation_targetAtFixation,jsons/v1_VE1000_randls_23_rotated.json,http://54.235.29.9/FacialAge/BNav_EC2/DepthDuration/v2_depth_duration_MTurk/v2_DepthDuration_HTML.html#61,61,1366,768,1366,768,8-22-2022,8-2-15,117,depth_duration_stimuli/002663_2014-06-13_15-50-26_094959634447_rgbf000075-resize_1/002663_2014-06-13_15-50-26_094959634447_rgbf000075-resize_1-target.png,1000,4.7495,1,5865,1001,meters,jsons/v1_VE1000_randls_23_rotated.json,617691,902981,30,Woman
117,964443,DepthScenes,duration_manipulation_targetAtFixation,jsons/v1_VE1000_randls_23_rotated.json,http://54.235.29.9/FacialAge/BNav_EC2/DepthDuration/v2_depth_duration_MTurk/v2_DepthDuration_HTML.html#61,61,1366,768,1366,768,8-22-2022,8-2-15,118,depth_duration_stimuli/000927_2014-06-09_16-32-30_260595134347_rgbf000123-resize_3/000927_2014-06-09_16-32-30_260595134347_rgbf000123-resize_3-target.png,1000,2.6785,1,3619,1004,meters,jsons/v1_VE1000_randls_23_rotated.json,617691,902981,30,Woman
118,964443,DepthScenes,duration_manipulation_targetAtFixation,jsons/v1_VE1000_randls_23_rotated.json,http://54.235.29.9/FacialAge/BNav_EC2/DepthDuration/v2_depth_duration_MTurk/v2_DepthDuration_HTML.html#61,61,1366,768,1366,768,8-22-2022,8-2-15,119,depth_duration_stimuli/001110_2014-06-15_17-25-28_260595134347_rgbf000150-resize_1/001110_2014-06-15_17-25-28_260595134347_rgbf000150-resize_1-target.png,1000,1.7115,1,3347,993,meters,jsons/v1_VE1000_randls_23_rotated.json,617691,902981,30,Woman
119,964443,DepthScenes,duration_manipulation_targetAtFixation,jsons/v1_VE1000_randls_23_rotated.json,http://54.235.29.9/FacialAge/BNav_EC2/DepthDuration/v2_depth_duration_MTurk/v2_DepthDuration_HTML.html#61,61,1366,768,1366,768,8-22-2022,8-2-15,120,depth_duration_stimuli/000787_2014-06-08_22-33-53_260595134347_rgbf000175-resize_1/000787_2014-06-08_22-33-53_260595134347_rgbf000175-resize-original.jpg,1000,4.784,2,3145,995,meters,jsons/v1_VE1000_randls_23_rotated.json,617691,902981,30,Woman
120,964443,DepthScenes,duration_manipulation_targetAtFixation,jsons/v1_VE1000_randls_23_rotated.json,http://54.235.29.9/FacialAge/BNav_EC2/DepthDuration/v2_depth_duration_MTurk/v2_DepthDuration_HTML.html#61,61,1366,768,1366,768,8-22-2022,8-2-15,121,depth_duration_stimuli/000677_2014-06-08_23-10-32_260595134347_rgbf000158-resize_6/000677_2014-06-08_23-10-32_260595134347_rgbf000158-resize_6-target.png,1000,3.556,1,3096,999,meters,jsons/v1_VE1000_randls_23_rotated.json,617691,902981,30,Woman
121,964443,DepthScenes,duration_manipulation_targetAtFixation,jsons/v1_VE1000_randls_23_rotated.json,http://54.235.29.9/FacialAge/BNav_EC2/DepthDuration/v2_depth_duration_MTurk/v2_DepthDuration_HTML.html#61,61,1366,768,1366,768,8-22-2022,8-2-15,122,depth_duration_stimuli/001029_2014-06-08_13-17-57_260595134347_rgbf000065-resize_1/001029_2014-06-08_13-17-57_260595134347_rgbf000065-resize_1-target.png,1000,3.0835,2,2942,996,meters,jsons/v1_VE1000_randls_23_rotated.json,617691,902981,30,Woman
122,964443,DepthScenes,duration_manipulation_targetAtFixation,jsons/v1_VE1000_randls_23_rotated.json,http://54.235.29.9/FacialAge/BNav_EC2/DepthDuration/v2_depth_duration_MTurk/v2_DepthDuration_HTML.html#61,61,1366,768,1366,768,8-22-2022,8-2-15,123,depth_duration_stimuli/003228_2014-05-14_13-42-35_094959634447_rgbf000101-resize_1/003228_2014-05-14_13-42-35_094959634447_rgbf000101-resize_1-target.png,1000,1.9680000000000002,1,3125,1000,meters,jsons/v1_VE1000_randls_23_rotated.json,617691,902981,30,Woman
123,964443,DepthScenes,duration_manipulation_targetAtFixation,jsons/v1_VE1000_randls_23_rotated.json,http://54.235.29.9/FacialAge/BNav_EC2/DepthDuration/v2_depth_duration_MTurk/v2_DepthDuration_HTML.html#61,61,1366,768,1366,768,8-22-2022,8-2-15,124,depth_duration_stimuli/002600_2014-06-24_14-27-04_094959634447_rgbf000074-resize_2/002600_2014-06-24_14-27-04_094959634447_rgbf000074-resize_2-target.png,1000,2.7575,2,9599,1005,meters,jsons/v1_VE1000_randls_23_rotated.json,617691,902981,30,Woman
124,964443,DepthScenes,duration_manipulation_targetAtFixation,jsons/v1_VE1000_randls_23_rotated.json,http://54.235.29.9/FacialAge/BNav_EC2/DepthDuration/v2_depth_duration_MTurk/v2_DepthDuration_HTML.html#61,61,1366,768,1366,768,8-22-2022,8-2-15,125,depth_duration_stimuli/002750_2014-06-22_19-08-03_094959634447_rgbf000094-resize_4/002750_2014-06-22_19-08-03_094959634447_rgbf000094-resize_4-target.png,1000,2.354,2,3693,1000,meters,jsons/v1_VE1000_randls_23_rotated.json,617691,902981,30,Woman
125,964443,DepthScenes,duration_manipulation_targetAtFixation,jsons/v1_VE1000_randls_23_rotated.json,http://54.235.29.9/FacialAge/BNav_EC2/DepthDuration/v2_depth_duration_MTurk/v2_DepthDuration_HTML.html#61,61,1366,768,1366,768,8-22-2022,8-2-15,126,depth_duration_stimuli/002549_2014-06-24_13-41-39_094959634447_rgbf000022-resize_3/002549_2014-06-24_13-41-39_094959634447_rgbf000022-resize_3-target.png,1000,1.476,2,2693,932,meters,jsons/v1_VE1000_randls_23_rotated.json,617691,902981,30,Woman
126,964443,DepthScenes,duration_manipulation_targetAtFixation,jsons/v1_VE1000_randls_23_rotated.json,http://54.235.29.9/FacialAge/BNav_EC2/DepthDuration/v2_depth_duration_MTurk/v2_DepthDuration_HTML.html#61,61,1366,768,1366,768,8-22-2022,8-2-15,127,depth_duration_stimuli/002323_2014-06-28_20-01-54_260595134347_rgbf000051-resize_4/002323_2014-06-28_20-01-54_260595134347_rgbf000051-resize_4-target.png,1000,3.7310000000000003,1,2689,999,meters,jsons/v1_VE1000_randls_23_rotated.json,617691,902981,30,Woman
127,964443,DepthScenes,duration_manipulation_targetAtFixation,jsons/v1_VE1000_randls_23_rotated.json,http://54.235.29.9/FacialAge/BNav_EC2/DepthDuration/v2_depth_duration_MTurk/v2_DepthDuration_HTML.html#61,61,1366,768,1366,768,8-22-2022,8-2-15,128,depth_duration_stimuli/000917_2014-06-09_22-45-29_260595134347_rgbf000149-resize_3/000917_2014-06-09_22-45-29_260595134347_rgbf000149-resize_3-target.png,1000,4.1865,1,3029,1009,meters,jsons/v1_VE1000_randls_23_rotated.json,617691,902981,30,Woman
128,964443,DepthScenes,duration_manipulation_targetAtFixation,jsons/v1_VE1000_randls_23_rotated.json,http://54.235.29.9/FacialAge/BNav_EC2/DepthDuration/v2_depth_duration_MTurk/v2_DepthDuration_HTML.html#61,61,1366,768,1366,768,8-22-2022,8-2-15,129,depth_duration_stimuli/002949_2014-06-26_15-57-42_094959634447_rgbf000079-resize_1/002949_2014-06-26_15-57-42_094959634447_rgbf000079-resize_1-target.png,1000,1.8915,1,4500,1001,meters,jsons/v1_VE1000_randls_23_rotated.json,617691,902981,30,Woman
129,964443,DepthScenes,duration_manipulation_targetAtFixation,jsons/v1_VE1000_randls_23_rotated.json,http://54.235.29.9/FacialAge/BNav_EC2/DepthDuration/v2_depth_duration_MTurk/v2_DepthDuration_HTML.html#61,61,1366,768,1366,768,8-22-2022,8-2-15,130,depth_duration_stimuli/000522_2014-06-08_13-35-06_260595134347_rgbf000244-resize_1/000522_2014-06-08_13-35-06_260595134347_rgbf000244-resize_1-target.png,1000,2.3715,2,3176,989,meters,jsons/v1_VE1000_randls_23_rotated.json,617691,902981,30,Woman
130,964443,DepthScenes,duration_manipulation_targetAtFixation,jsons/v1_VE1000_randls_23_rotated.json,http://54.235.29.9/FacialAge/BNav_EC2/DepthDuration/v2_depth_duration_MTurk/v2_DepthDuration_HTML.html#61,61,1366,768,1366,768,8-22-2022,8-2-15,131,depth_duration_stimuli/002209_2014-06-28_18-36-10_260595134347_rgbf000051-resize_1/002209_2014-06-28_18-36-10_260595134347_rgbf000051-resize_1-target.png,1000,2.057,2,2977,996,meters,jsons/v1_VE1000_randls_23_rotated.json,617691,902981,30,Woman
131,964443,DepthScenes,duration_manipulation_targetAtFixation,jsons/v1_VE1000_randls_23_rotated.json,http://54.235.29.9/FacialAge/BNav_EC2/DepthDuration/v2_depth_duration_MTurk/v2_DepthDuration_HTML.html#61,61,1366,768,1366,768,8-22-2022,8-2-15,132,depth_duration_stimuli/002763_2014-06-22_19-13-10_094959634447_rgbf000075-resize_4/002763_2014-06-22_19-13-10_094959634447_rgbf000075-resize_4-target.png,1000,1.68375,1,3078,999,meters,jsons/v1_VE1000_randls_23_rotated.json,617691,902981,30,Woman
132,964443,DepthScenes,duration_manipulation_targetAtFixation,jsons/v1_VE1000_randls_23_rotated.json,http://54.235.29.9/FacialAge/BNav_EC2/DepthDuration/v2_depth_duration_MTurk/v2_DepthDuration_HTML.html#61,61,1366,768,1366,768,8-22-2022,8-2-15,133,depth_duration_stimuli/003048_2014-06-15_13-49-43_094959634447_rgbf000150-resize_1/003048_2014-06-15_13-49-43_094959634447_rgbf000150-resize_1-target.png,1000,4.0035,2,3020,987,meters,jsons/v1_VE1000_randls_23_rotated.json,617691,902981,30,Woman
133,964443,DepthScenes,duration_manipulation_targetAtFixation,jsons/v1_VE1000_randls_23_rotated.json,http://54.235.29.9/FacialAge/BNav_EC2/DepthDuration/v2_depth_duration_MTurk/v2_DepthDuration_HTML.html#61,61,1366,768,1366,768,8-22-2022,8-2-15,134,depth_duration_stimuli/002043_2014-06-24_20-29-38_260595134347_rgbf000039-resize_4/002043_2014-06-24_20-29-38_260595134347_rgbf000039-resize_4-target.png,1000,2.8435,1,2736,991,meters,jsons/v1_VE1000_randls_23_rotated.json,617691,902981,30,Woman
134,964443,DepthScenes,duration_manipulation_targetAtFixation,jsons/v1_VE1000_randls_23_rotated.json,http://54.235.29.9/FacialAge/BNav_EC2/DepthDuration/v2_depth_duration_MTurk/v2_DepthDuration_HTML.html#61,61,1366,768,1366,768,8-22-2022,8-2-15,135,depth_duration_stimuli/000375_2014-06-08_11-17-29_260595134347_rgbf000133-resize_2/000375_2014-06-08_11-17-29_260595134347_rgbf000133-resize-original.jpg,1000,4.718,2,2727,1004,meters,jsons/v1_VE1000_randls_23_rotated.json,617691,902981,30,Woman
135,964443,DepthScenes,duration_manipulation_targetAtFixation,jsons/v1_VE1000_randls_23_rotated.json,http://54.235.29.9/FacialAge/BNav_EC2/DepthDuration/v2_depth_duration_MTurk/v2_DepthDuration_HTML.html#61,61,1366,768,1366,768,8-22-2022,8-2-15,136,depth_duration_stimuli/001052_2014-06-08_18-24-54_260595134347_rgbf000130-resize_1/001052_2014-06-08_18-24-54_260595134347_rgbf000130-resize_1-target.png,1000,4.1045,1,2705,1000,meters,jsons/v1_VE1000_randls_23_rotated.json,617691,902981,30,Woman
136,964443,DepthScenes,duration_manipulation_targetAtFixation,jsons/v1_VE1000_randls_23_rotated.json,http://54.235.29.9/FacialAge/BNav_EC2/DepthDuration/v2_depth_duration_MTurk/v2_DepthDuration_HTML.html#61,61,1366,768,1366,768,8-22-2022,8-2-15,137,depth_duration_stimuli/002988_2014-06-15_12-24-20_094959634447_rgbf000150-resize_1/002988_2014-06-15_12-24-20_094959634447_rgbf000150-resize_1-target.png,1000,4.7669999999999995,2,2839,995,meters,jsons/v1_VE1000_randls_23_rotated.json,617691,902981,30,Woman
137,964443,DepthScenes,duration_manipulation_targetAtFixation,jsons/v1_VE1000_randls_23_rotated.json,http://54.235.29.9/FacialAge/BNav_EC2/DepthDuration/v2_depth_duration_MTurk/v2_DepthDuration_HTML.html#61,61,1366,768,1366,768,8-22-2022,8-2-15,138,depth_duration_stimuli/002875_2014-06-01_15-19-00_094959634447_rgbf000151-resize_1/002875_2014-06-01_15-19-00_094959634447_rgbf000151-resize_1-target.png,1000,1.9675,1,2782,1069,meters,jsons/v1_VE1000_randls_23_rotated.json,617691,902981,30,Woman
138,964443,DepthScenes,duration_manipulation_targetAtFixation,jsons/v1_VE1000_randls_23_rotated.json,http://54.235.29.9/FacialAge/BNav_EC2/DepthDuration/v2_depth_duration_MTurk/v2_DepthDuration_HTML.html#61,61,1366,768,1366,768,8-22-2022,8-2-15,139,depth_duration_stimuli/001011_2014-06-08_23-18-54_260595134347_rgbf000044-resize_4/001011_2014-06-08_23-18-54_260595134347_rgbf000044-resize_4-target.png,1000,2.4730000000000003,2,2893,991,meters,jsons/v1_VE1000_randls_23_rotated.json,617691,902981,30,Woman
139,964443,DepthScenes,duration_manipulation_targetAtFixation,jsons/v1_VE1000_randls_23_rotated.json,http://54.235.29.9/FacialAge/BNav_EC2/DepthDuration/v2_depth_duration_MTurk/v2_DepthDuration_HTML.html#61,61,1366,768,1366,768,8-22-2022,8-2-15,140,depth_duration_stimuli/002660_2014-06-13_15-44-18_094959634447_rgbf001878-resize_2/002660_2014-06-13_15-44-18_094959634447_rgbf001878-resize_2-target.png,1000,3.576,2,3994,998,meters,jsons/v1_VE1000_randls_23_rotated.json,617691,902981,30,Woman
140,964443,DepthScenes,duration_manipulation_targetAtFixation,jsons/v1_VE1000_randls_23_rotated.json,http://54.235.29.9/FacialAge/BNav_EC2/DepthDuration/v2_depth_duration_MTurk/v2_DepthDuration_HTML.html#61,61,1366,768,1366,768,8-22-2022,8-2-15,141,depth_duration_stimuli/002153_2014-06-25_21-27-18_260595134347_rgbf000038-resize_5/002153_2014-06-25_21-27-18_260595134347_rgbf000038-resize_5-target.png,1000,2.505,2,10326,998,meters,jsons/v1_VE1000_randls_23_rotated.json,617691,902981,30,Woman
141,964443,DepthScenes,duration_manipulation_targetAtFixation,jsons/v1_VE1000_randls_23_rotated.json,http://54.235.29.9/FacialAge/BNav_EC2/DepthDuration/v2_depth_duration_MTurk/v2_DepthDuration_HTML.html#61,61,1366,768,1366,768,8-22-2022,8-2-15,142,depth_duration_stimuli/003083_2014-06-15_15-21-03_094959634447_rgbf000063-resize_1/003083_2014-06-15_15-21-03_094959634447_rgbf000063-resize_1-target.png,1000,4.1405,2,6083,986,meters,jsons/v1_VE1000_randls_23_rotated.json,617691,902981,30,Woman
142,964443,DepthScenes,duration_manipulation_targetAtFixation,jsons/v1_VE1000_randls_23_rotated.json,http://54.235.29.9/FacialAge/BNav_EC2/DepthDuration/v2_depth_duration_MTurk/v2_DepthDuration_HTML.html#61,61,1366,768,1366,768,8-22-2022,8-2-15,143,depth_duration_stimuli/000486_2014-06-09_20-47-20_260595134347_rgbf000143-resize_2/000486_2014-06-09_20-47-20_260595134347_rgbf000143-resize_2-target.png,1000,4.8325,2,4111,1000,meters,jsons/v1_VE1000_randls_23_rotated.json,617691,902981,30,Woman
143,964443,DepthScenes,duration_manipulation_targetAtFixation,jsons/v1_VE1000_randls_23_rotated.json,http://54.235.29.9/FacialAge/BNav_EC2/DepthDuration/v2_depth_duration_MTurk/v2_DepthDuration_HTML.html#61,61,1366,768,1366,768,8-22-2022,8-2-15,144,depth_duration_stimuli/003423_2014-05-21_10-23-26_094959634447_rgbf002665-resize_2/003423_2014-05-21_10-23-26_094959634447_rgbf002665-resize_2-target.png,1000,3.2575,2,3036,990,meters,jsons/v1_VE1000_randls_23_rotated.json,617691,902981,30,Woman
144,964443,DepthScenes,duration_manipulation_targetAtFixation,jsons/v1_VE1000_randls_23_rotated.json,http://54.235.29.9/FacialAge/BNav_EC2/DepthDuration/v2_depth_duration_MTurk/v2_DepthDuration_HTML.html#61,61,1366,768,1366,768,8-22-2022,8-2-15,145,depth_duration_stimuli/002905_2014-06-03_18-04-43_094959634447_rgbf000151-resize_2/002905_2014-06-03_18-04-43_094959634447_rgbf000151-resize_2-target.png,1000,2.0295,1,3005,1004,meters,jsons/v1_VE1000_randls_23_rotated.json,617691,902981,30,Woman
145,964443,DepthScenes,duration_manipulation_targetAtFixation,jsons/v1_VE1000_randls_23_rotated.json,http://54.235.29.9/FacialAge/BNav_EC2/DepthDuration/v2_depth_duration_MTurk/v2_DepthDuration_HTML.html#61,61,1366,768,1366,768,8-22-2022,8-2-15,146,depth_duration_stimuli/000943_2014-06-09_19-31-07_260595134347_rgbf000128-resize_1/000943_2014-06-09_19-31-07_260595134347_rgbf000128-resize_1-target.png,1000,1.9765,1,10034,996,meters,jsons/v1_VE1000_randls_23_rotated.json,617691,902981,30,Woman
146,964443,DepthScenes,duration_manipulation_targetAtFixation,jsons/v1_VE1000_randls_23_rotated.json,http://54.235.29.9/FacialAge/BNav_EC2/DepthDuration/v2_depth_duration_MTurk/v2_DepthDuration_HTML.html#61,61,1366,768,1366,768,8-22-2022,8-2-15,147,depth_duration_stimuli/003070_2014-06-15_14-58-27_094959634447_rgbf000150-resize_3/003070_2014-06-15_14-58-27_094959634447_rgbf000150-resize_3-target.png,1000,2.9415,2,6763,993,meters,jsons/v1_VE1000_randls_23_rotated.json,617691,902981,30,Woman
147,964443,DepthScenes,duration_manipulation_targetAtFixation,jsons/v1_VE1000_randls_23_rotated.json,http://54.235.29.9/FacialAge/BNav_EC2/DepthDuration/v2_depth_duration_MTurk/v2_DepthDuration_HTML.html#61,61,1366,768,1366,768,8-22-2022,8-2-15,148,depth_duration_stimuli/003129_2014-05-12_10-48-10_094959634447_rgbf000100-resize_0/003129_2014-05-12_10-48-10_094959634447_rgbf000100-resize_0-target.png,1000,4.9305,1,3548,1006,meters,jsons/v1_VE1000_randls_23_rotated.json,617691,902981,30,Woman
148,964443,DepthScenes,duration_manipulation_targetAtFixation,jsons/v1_VE1000_randls_23_rotated.json,http://54.235.29.9/FacialAge/BNav_EC2/DepthDuration/v2_depth_duration_MTurk/v2_DepthDuration_HTML.html#61,61,1366,768,1366,768,8-22-2022,8-2-15,149,depth_duration_stimuli/000414_2014-06-04_19-49-13_260595134347_rgbf000044-resize_0/000414_2014-06-04_19-49-13_260595134347_rgbf000044-resize_0-target.png,1000,4.329,2,3144,1011,meters,jsons/v1_VE1000_randls_23_rotated.json,617691,902981,30,Woman
149,964443,DepthScenes,duration_manipulation_targetAtFixation,jsons/v1_VE1000_randls_23_rotated.json,http://54.235.29.9/FacialAge/BNav_EC2/DepthDuration/v2_depth_duration_MTurk/v2_DepthDuration_HTML.html#61,61,1366,768,1366,768,8-22-2022,8-2-15,150,depth_duration_stimuli/002545_2014-06-24_13-38-53_094959634447_rgbf000080-resize_4/002545_2014-06-24_13-38-53_094959634447_rgbf000080-resize_4-target.png,1000,1.9205,1,2957,988,meters,jsons/v1_VE1000_randls_23_rotated.json,617691,902981,30,Woman
150,964443,DepthScenes,duration_manipulation_targetAtFixation,jsons/v1_VE1000_randls_23_rotated.json,http://54.235.29.9/FacialAge/BNav_EC2/DepthDuration/v2_depth_duration_MTurk/v2_DepthDuration_HTML.html#61,61,1366,768,1366,768,8-22-2022,8-2-15,151,depth_duration_stimuli/001092_2014-06-15_17-34-58_260595134347_rgbf000171-resize_3/001092_2014-06-15_17-34-58_260595134347_rgbf000171-resize_3-target.png,1000,2.6935,2,2651,1002,meters,jsons/v1_VE1000_randls_23_rotated.json,617691,902981,30,Woman
151,964443,DepthScenes,duration_manipulation_targetAtFixation,jsons/v1_VE1000_randls_23_rotated.json,http://54.235.29.9/FacialAge/BNav_EC2/DepthDuration/v2_depth_duration_MTurk/v2_DepthDuration_HTML.html#61,61,1366,768,1366,768,8-22-2022,8-2-15,152,depth_duration_stimuli/000569_2014-06-09_22-51-47_260595134347_rgbf000141-resize_3/000569_2014-06-09_22-51-47_260595134347_rgbf000141-resize-original.jpg,1000,4.512,2,3058,1005,meters,jsons/v1_VE1000_randls_23_rotated.json,617691,902981,30,Woman
152,964443,DepthScenes,duration_manipulation_targetAtFixation,jsons/v1_VE1000_randls_23_rotated.json,http://54.235.29.9/FacialAge/BNav_EC2/DepthDuration/v2_depth_duration_MTurk/v2_DepthDuration_HTML.html#61,61,1366,768,1366,768,8-22-2022,8-2-15,153,depth_duration_stimuli/002199_2014-06-28_18-33-56_260595134347_rgbf000074-resize_0/002199_2014-06-28_18-33-56_260595134347_rgbf000074-resize_0-target.png,1000,1.996,1,2891,991,meters,jsons/v1_VE1000_randls_23_rotated.json,617691,902981,30,Woman
153,964443,DepthScenes,duration_manipulation_targetAtFixation,jsons/v1_VE1000_randls_23_rotated.json,http://54.235.29.9/FacialAge/BNav_EC2/DepthDuration/v2_depth_duration_MTurk/v2_DepthDuration_HTML.html#61,61,1366,768,1366,768,8-22-2022,8-2-15,154,depth_duration_stimuli/001056_2014-06-08_18-46-44_260595134347_rgbf000068-resize_0/001056_2014-06-08_18-46-44_260595134347_rgbf000068-resize_0-target.png,1000,2.6625,2,2864,988,meters,jsons/v1_VE1000_randls_23_rotated.json,617691,902981,30,Woman
154,964443,DepthScenes,duration_manipulation_targetAtFixation,jsons/v1_VE1000_randls_23_rotated.json,http://54.235.29.9/FacialAge/BNav_EC2/DepthDuration/v2_depth_duration_MTurk/v2_DepthDuration_HTML.html#61,61,1366,768,1366,768,8-22-2022,8-2-15,155,depth_duration_stimuli/002425_2014-06-28_20-27-29_260595134347_rgbf000031-resize_8/002425_2014-06-28_20-27-29_260595134347_rgbf000031-resize_8-target.png,1000,3.8960000000000004,1,2714,989,meters,jsons/v1_VE1000_randls_23_rotated.json,617691,902981,30,Woman
155,964443,DepthScenes,duration_manipulation_targetAtFixation,jsons/v1_VE1000_randls_23_rotated.json,http://54.235.29.9/FacialAge/BNav_EC2/DepthDuration/v2_depth_duration_MTurk/v2_DepthDuration_HTML.html#61,61,1366,768,1366,768,8-22-2022,8-2-15,156,depth_duration_stimuli/000642_2014-06-08_16-59-25_260595134347_rgbf000098-resize_2/000642_2014-06-08_16-59-25_260595134347_rgbf000098-resize_2-target.png,1000,2.8815,2,4170,1007,meters,jsons/v1_VE1000_randls_23_rotated.json,617691,902981,30,Woman
156,964443,DepthScenes,duration_manipulation_targetAtFixation,jsons/v1_VE1000_randls_23_rotated.json,http://54.235.29.9/FacialAge/BNav_EC2/DepthDuration/v2_depth_duration_MTurk/v2_DepthDuration_HTML.html#61,61,1366,768,1366,768,8-22-2022,8-2-15,157,depth_duration_stimuli/000665_2014-06-09_20-42-35_260595134347_rgbf000110-resize_1/000665_2014-06-09_20-42-35_260595134347_rgbf000110-resize_1-target.png,1000,3.057,1,2825,1000,meters,jsons/v1_VE1000_randls_23_rotated.json,617691,902981,30,Woman
157,964443,DepthScenes,duration_manipulation_targetAtFixation,jsons/v1_VE1000_randls_23_rotated.json,http://54.235.29.9/FacialAge/BNav_EC2/DepthDuration/v2_depth_duration_MTurk/v2_DepthDuration_HTML.html#61,61,1366,768,1366,768,8-22-2022,8-2-15,158,depth_duration_stimuli/001150_2014-06-17_15-27-34_260595134347_rgbf000108-resize_2/001150_2014-06-17_15-27-34_260595134347_rgbf000108-resize_2-target.png,1000,4.0325,2,2730,1011,meters,jsons/v1_VE1000_randls_23_rotated.json,617691,902981,30,Woman
158,964443,DepthScenes,duration_manipulation_targetAtFixation,jsons/v1_VE1000_randls_23_rotated.json,http://54.235.29.9/FacialAge/BNav_EC2/DepthDuration/v2_depth_duration_MTurk/v2_DepthDuration_HTML.html#61,61,1366,768,1366,768,8-22-2022,8-2-15,159,depth_duration_stimuli/001450_2014-06-19_17-02-03_260595134347_rgbf000203-resize_4/001450_2014-06-19_17-02-03_260595134347_rgbf000203-resize_4-target.png,1000,4.0106666666667,2,2840,995,meters,jsons/v1_VE1000_randls_23_rotated.json,617691,902981,30,Woman
159,964443,DepthScenes,duration_manipulation_targetAtFixation,jsons/v1_VE1000_randls_23_rotated.json,http://54.235.29.9/FacialAge/BNav_EC2/DepthDuration/v2_depth_duration_MTurk/v2_DepthDuration_HTML.html#61,61,1366,768,1366,768,8-22-2022,8-2-15,160,depth_duration_stimuli/001449_2014-06-19_17-01-27_260595134347_rgbf000116-resize_2/001449_2014-06-19_17-01-27_260595134347_rgbf000116-resize_2-target.png,1000,3.452,1,4466,1013,meters,jsons/v1_VE1000_randls_23_rotated.json,617691,902981,30,Woman
160,964443,DepthScenes,duration_manipulation_targetAtFixation,jsons/v1_VE1000_randls_23_rotated.json,http://54.235.29.9/FacialAge/BNav_EC2/DepthDuration/v2_depth_duration_MTurk/v2_DepthDuration_HTML.html#61,61,1366,768,1366,768,8-22-2022,8-2-15,161,depth_duration_stimuli/002444_2014-06-28_20-32-08_260595134347_rgbf000027-resize_0/002444_2014-06-28_20-32-08_260595134347_rgbf000027-resize_0-target.png,1000,4.388999999999999,2,2894,1009,meters,jsons/v1_VE1000_randls_23_rotated.json,617691,902981,30,Woman
161,964443,DepthScenes,duration_manipulation_targetAtFixation,jsons/v1_VE1000_randls_23_rotated.json,http://54.235.29.9/FacialAge/BNav_EC2/DepthDuration/v2_depth_duration_MTurk/v2_DepthDuration_HTML.html#61,61,1366,768,1366,768,8-22-2022,8-2-15,162,depth_duration_stimuli/000436_2014-06-09_22-25-11_260595134347_rgbf000137-resize_1/000436_2014-06-09_22-25-11_260595134347_rgbf000137-resize_1-target.png,1000,4.0705,2,2851,998,meters,jsons/v1_VE1000_randls_23_rotated.json,617691,902981,30,Woman
162,964443,DepthScenes,duration_manipulation_targetAtFixation,jsons/v1_VE1000_randls_23_rotated.json,http://54.235.29.9/FacialAge/BNav_EC2/DepthDuration/v2_depth_duration_MTurk/v2_DepthDuration_HTML.html#61,61,1366,768,1366,768,8-22-2022,8-2-15,163,depth_duration_stimuli/001650_2014-06-20_12-09-00_260595134347_rgbf000087-resize_3/001650_2014-06-20_12-09-00_260595134347_rgbf000087-resize_3-target.png,1000,1.9505,1,2823,999,meters,jsons/v1_VE1000_randls_23_rotated.json,617691,902981,30,Woman
163,964443,DepthScenes,duration_manipulation_targetAtFixation,jsons/v1_VE1000_randls_23_rotated.json,http://54.235.29.9/FacialAge/BNav_EC2/DepthDuration/v2_depth_duration_MTurk/v2_DepthDuration_HTML.html#61,61,1366,768,1366,768,8-22-2022,8-2-15,164,depth_duration_stimuli/000682_2014-06-08_23-14-58_260595134347_rgbf000041-resize_5/000682_2014-06-08_23-14-58_260595134347_rgbf000041-resize_5-target.png,1000,2.7239999999999998,1,2935,1008,meters,jsons/v1_VE1000_randls_23_rotated.json,617691,902981,30,Woman
