,subjID,experimentName,versionName,sequenceName,url,selected_row,windowWidth,windowHeight,screenWidth,screenHeight,startDate,startTime,trial,stimulus,duration,actual_depth,depth_estimate,trial_RT,log_sceneDuration,unitSelection,seq_filepath,experimentTime,totalTime,age,gender
0,969341,DepthScenes,duration_manipulation_targetAtFixation,jsons/VE125_randls_19_rotated.json,http://54.235.29.9/FacialAge/BNav_EC2/DepthDuration/v2_depth_duration_MTurk/v2_DepthDuration_HTML.html#18,18,1440,900,1440,900,8-21-2022,9-0-55,1,depth_duration_stimuli/002995_2014-06-15_12-31-26_094959634447_rgbf000150-resize_1/002995_2014-06-15_12-31-26_094959634447_rgbf000150-resize_1-target.png,125,3.8360000000000003,6,5250,135,meters,jsons/VE125_randls_19_rotated.json,774454,950388,25,Woman
1,969341,DepthScenes,duration_manipulation_targetAtFixation,jsons/VE125_randls_19_rotated.json,http://54.235.29.9/FacialAge/BNav_EC2/DepthDuration/v2_depth_duration_MTurk/v2_DepthDuration_HTML.html#18,18,1440,900,1440,900,8-21-2022,9-0-55,2,depth_duration_stimuli/002748_2014-06-22_19-07-22_094959634447_rgbf000078-resize_1/002748_2014-06-22_19-07-22_094959634447_rgbf000078-resize_1-target.png,125,4.6705,8,76917,109,meters,jsons/VE125_randls_19_rotated.json,774454,950388,25,Woman
2,969341,DepthScenes,duration_manipulation_targetAtFixation,jsons/VE125_randls_19_rotated.json,http://54.235.29.9/FacialAge/BNav_EC2/DepthDuration/v2_depth_duration_MTurk/v2_DepthDuration_HTML.html#18,18,1440,900,1440,900,8-21-2022,9-0-55,3,depth_duration_stimuli/002209_2014-06-28_18-36-10_260595134347_rgbf000051-resize_1/002209_2014-06-28_18-36-10_260595134347_rgbf000051-resize_1-target.png,125,2.057,5,6121,117,meters,jsons/VE125_randls_19_rotated.json,774454,950388,25,Woman
3,969341,DepthScenes,duration_manipulation_targetAtFixation,jsons/VE125_randls_19_rotated.json,http://54.235.29.9/FacialAge/BNav_EC2/DepthDuration/v2_depth_duration_MTurk/v2_DepthDuration_HTML.html#18,18,1440,900,1440,900,8-21-2022,9-0-55,4,depth_duration_stimuli/002763_2014-06-22_19-13-10_094959634447_rgbf000075-resize_4/002763_2014-06-22_19-13-10_094959634447_rgbf000075-resize_4-target.png,125,1.68375,3,4589,127,meters,jsons/VE125_randls_19_rotated.json,774454,950388,25,Woman
4,969341,DepthScenes,duration_manipulation_targetAtFixation,jsons/VE125_randls_19_rotated.json,http://54.235.29.9/FacialAge/BNav_EC2/DepthDuration/v2_depth_duration_MTurk/v2_DepthDuration_HTML.html#18,18,1440,900,1440,900,8-21-2022,9-0-55,5,depth_duration_stimuli/003587_2014-05-23_16-48-02_094959634447_rgbf002384-resize_2/003587_2014-05-23_16-48-02_094959634447_rgbf002384-resize_2-target.png,125,1.357,3,7551,125,meters,jsons/VE125_randls_19_rotated.json,774454,950388,25,Woman
5,969341,DepthScenes,duration_manipulation_targetAtFixation,jsons/VE125_randls_19_rotated.json,http://54.235.29.9/FacialAge/BNav_EC2/DepthDuration/v2_depth_duration_MTurk/v2_DepthDuration_HTML.html#18,18,1440,900,1440,900,8-21-2022,9-0-55,6,depth_duration_stimuli/001167_2014-06-17_15-38-07_260595134347_rgbf000108-resize_0/001167_2014-06-17_15-38-07_260595134347_rgbf000108-resize_0-target.png,125,1.8505,4,3506,107,meters,jsons/VE125_randls_19_rotated.json,774454,950388,25,Woman
6,969341,DepthScenes,duration_manipulation_targetAtFixation,jsons/VE125_randls_19_rotated.json,http://54.235.29.9/FacialAge/BNav_EC2/DepthDuration/v2_depth_duration_MTurk/v2_DepthDuration_HTML.html#18,18,1440,900,1440,900,8-21-2022,9-0-55,7,depth_duration_stimuli/000137_2014-05-20_17-04-49_260595134347_rgbf000120-resize_1/000137_2014-05-20_17-04-49_260595134347_rgbf000120-resize_1-target.png,125,3.786,6,3536,118,meters,jsons/VE125_randls_19_rotated.json,774454,950388,25,Woman
7,969341,DepthScenes,duration_manipulation_targetAtFixation,jsons/VE125_randls_19_rotated.json,http://54.235.29.9/FacialAge/BNav_EC2/DepthDuration/v2_depth_duration_MTurk/v2_DepthDuration_HTML.html#18,18,1440,900,1440,900,8-21-2022,9-0-55,8,depth_duration_stimuli/000736_2014-06-08_18-24-15_260595134347_rgbf000206-resize_3/000736_2014-06-08_18-24-15_260595134347_rgbf000206-resize_3-target.png,125,3.515,5,2859,123,meters,jsons/VE125_randls_19_rotated.json,774454,950388,25,Woman
8,969341,DepthScenes,duration_manipulation_targetAtFixation,jsons/VE125_randls_19_rotated.json,http://54.235.29.9/FacialAge/BNav_EC2/DepthDuration/v2_depth_duration_MTurk/v2_DepthDuration_HTML.html#18,18,1440,900,1440,900,8-21-2022,9-0-55,9,depth_duration_stimuli/003338_2014-05-20_11-01-23_094959634447_rgbf000051-resize_6/003338_2014-05-20_11-01-23_094959634447_rgbf000051-resize_6-target.png,125,1.693,4,3887,113,meters,jsons/VE125_randls_19_rotated.json,774454,950388,25,Woman
9,969341,DepthScenes,duration_manipulation_targetAtFixation,jsons/VE125_randls_19_rotated.json,http://54.235.29.9/FacialAge/BNav_EC2/DepthDuration/v2_depth_duration_MTurk/v2_DepthDuration_HTML.html#18,18,1440,900,1440,900,8-21-2022,9-0-55,10,depth_duration_stimuli/002509_2014-06-24_13-19-22_094959634447_rgbf000077-resize_0/002509_2014-06-24_13-19-22_094959634447_rgbf000077-resize_0-target.png,125,1.3065,3,3899,125,meters,jsons/VE125_randls_19_rotated.json,774454,950388,25,Woman
10,969341,DepthScenes,duration_manipulation_targetAtFixation,jsons/VE125_randls_19_rotated.json,http://54.235.29.9/FacialAge/BNav_EC2/DepthDuration/v2_depth_duration_MTurk/v2_DepthDuration_HTML.html#18,18,1440,900,1440,900,8-21-2022,9-0-55,11,depth_duration_stimuli/002136_2014-06-25_21-18-03_260595134347_rgbf000109-resize_3/002136_2014-06-25_21-18-03_260595134347_rgbf000109-resize_3-target.png,125,1.9569999999999999,5,2613,109,meters,jsons/VE125_randls_19_rotated.json,774454,950388,25,Woman
11,969341,DepthScenes,duration_manipulation_targetAtFixation,jsons/VE125_randls_19_rotated.json,http://54.235.29.9/FacialAge/BNav_EC2/DepthDuration/v2_depth_duration_MTurk/v2_DepthDuration_HTML.html#18,18,1440,900,1440,900,8-21-2022,9-0-55,12,depth_duration_stimuli/002964_2014-06-08_17-46-11_094959634447_rgbf000091-resize_4/002964_2014-06-08_17-46-11_094959634447_rgbf000091-resize_4-target.png,125,1.6909999999999998,5,6661,70,meters,jsons/VE125_randls_19_rotated.json,774454,950388,25,Woman
12,969341,DepthScenes,duration_manipulation_targetAtFixation,jsons/VE125_randls_19_rotated.json,http://54.235.29.9/FacialAge/BNav_EC2/DepthDuration/v2_depth_duration_MTurk/v2_DepthDuration_HTML.html#18,18,1440,900,1440,900,8-21-2022,9-0-55,13,depth_duration_stimuli/000749_2014-06-08_21-55-06_260595134347_rgbf000070-resize_2/000749_2014-06-08_21-55-06_260595134347_rgbf000070-resize_2-target.png,125,2.331,6,4213,124,meters,jsons/VE125_randls_19_rotated.json,774454,950388,25,Woman
13,969341,DepthScenes,duration_manipulation_targetAtFixation,jsons/VE125_randls_19_rotated.json,http://54.235.29.9/FacialAge/BNav_EC2/DepthDuration/v2_depth_duration_MTurk/v2_DepthDuration_HTML.html#18,18,1440,900,1440,900,8-21-2022,9-0-55,14,depth_duration_stimuli/002788_2014-06-22_19-36-03_094959634447_rgbf000088-resize_2/002788_2014-06-22_19-36-03_094959634447_rgbf000088-resize_2-target.png,125,1.6465,4,5487,129,meters,jsons/VE125_randls_19_rotated.json,774454,950388,25,Woman
14,969341,DepthScenes,duration_manipulation_targetAtFixation,jsons/VE125_randls_19_rotated.json,http://54.235.29.9/FacialAge/BNav_EC2/DepthDuration/v2_depth_duration_MTurk/v2_DepthDuration_HTML.html#18,18,1440,900,1440,900,8-21-2022,9-0-55,15,depth_duration_stimuli/001650_2014-06-20_12-09-00_260595134347_rgbf000087-resize_3/001650_2014-06-20_12-09-00_260595134347_rgbf000087-resize_3-target.png,125,1.9505,2,2573,164,meters,jsons/VE125_randls_19_rotated.json,774454,950388,25,Woman
15,969341,DepthScenes,duration_manipulation_targetAtFixation,jsons/VE125_randls_19_rotated.json,http://54.235.29.9/FacialAge/BNav_EC2/DepthDuration/v2_depth_duration_MTurk/v2_DepthDuration_HTML.html#18,18,1440,900,1440,900,8-21-2022,9-0-55,16,depth_duration_stimuli/000682_2014-06-08_23-14-58_260595134347_rgbf000041-resize_5/000682_2014-06-08_23-14-58_260595134347_rgbf000041-resize_5-target.png,125,2.7239999999999998,4,2866,114,meters,jsons/VE125_randls_19_rotated.json,774454,950388,25,Woman
16,969341,DepthScenes,duration_manipulation_targetAtFixation,jsons/VE125_randls_19_rotated.json,http://54.235.29.9/FacialAge/BNav_EC2/DepthDuration/v2_depth_duration_MTurk/v2_DepthDuration_HTML.html#18,18,1440,900,1440,900,8-21-2022,9-0-55,17,depth_duration_stimuli/002949_2014-06-26_15-57-42_094959634447_rgbf000079-resize_1/002949_2014-06-26_15-57-42_094959634447_rgbf000079-resize_1-target.png,125,1.8915,3,5585,125,meters,jsons/VE125_randls_19_rotated.json,774454,950388,25,Woman
17,969341,DepthScenes,duration_manipulation_targetAtFixation,jsons/VE125_randls_19_rotated.json,http://54.235.29.9/FacialAge/BNav_EC2/DepthDuration/v2_depth_duration_MTurk/v2_DepthDuration_HTML.html#18,18,1440,900,1440,900,8-21-2022,9-0-55,18,depth_duration_stimuli/000522_2014-06-08_13-35-06_260595134347_rgbf000244-resize_1/000522_2014-06-08_13-35-06_260595134347_rgbf000244-resize_1-target.png,125,2.3715,3,4472,114,meters,jsons/VE125_randls_19_rotated.json,774454,950388,25,Woman
18,969341,DepthScenes,duration_manipulation_targetAtFixation,jsons/VE125_randls_19_rotated.json,http://54.235.29.9/FacialAge/BNav_EC2/DepthDuration/v2_depth_duration_MTurk/v2_DepthDuration_HTML.html#18,18,1440,900,1440,900,8-21-2022,9-0-55,19,depth_duration_stimuli/001498_2014-06-19_17-45-14_260595134347_rgbf000129-resize_4/001498_2014-06-19_17-45-14_260595134347_rgbf000129-resize-original.jpg,125,1.4075,0,2704,102,meters,jsons/VE125_randls_19_rotated.json,774454,950388,25,Woman
19,969341,DepthScenes,duration_manipulation_targetAtFixation,jsons/VE125_randls_19_rotated.json,http://54.235.29.9/FacialAge/BNav_EC2/DepthDuration/v2_depth_duration_MTurk/v2_DepthDuration_HTML.html#18,18,1440,900,1440,900,8-21-2022,9-0-55,20,depth_duration_stimuli/001450_2014-06-19_17-02-03_260595134347_rgbf000203-resize_4/001450_2014-06-19_17-02-03_260595134347_rgbf000203-resize_4-target.png,125,4.0106666666667,6,3017,30,meters,jsons/VE125_randls_19_rotated.json,774454,950388,25,Woman
20,969341,DepthScenes,duration_manipulation_targetAtFixation,jsons/VE125_randls_19_rotated.json,http://54.235.29.9/FacialAge/BNav_EC2/DepthDuration/v2_depth_duration_MTurk/v2_DepthDuration_HTML.html#18,18,1440,900,1440,900,8-21-2022,9-0-55,21,depth_duration_stimuli/001449_2014-06-19_17-01-27_260595134347_rgbf000116-resize_2/001449_2014-06-19_17-01-27_260595134347_rgbf000116-resize_2-target.png,125,3.452,6,2865,130,meters,jsons/VE125_randls_19_rotated.json,774454,950388,25,Woman
21,969341,DepthScenes,duration_manipulation_targetAtFixation,jsons/VE125_randls_19_rotated.json,http://54.235.29.9/FacialAge/BNav_EC2/DepthDuration/v2_depth_duration_MTurk/v2_DepthDuration_HTML.html#18,18,1440,900,1440,900,8-21-2022,9-0-55,22,depth_duration_stimuli/001447_2014-06-19_17-00-32_260595134347_rgbf000082-resize_5/001447_2014-06-19_17-00-32_260595134347_rgbf000082-resize_5-target.png,125,4.13775,5,2249,125,meters,jsons/VE125_randls_19_rotated.json,774454,950388,25,Woman
22,969341,DepthScenes,duration_manipulation_targetAtFixation,jsons/VE125_randls_19_rotated.json,http://54.235.29.9/FacialAge/BNav_EC2/DepthDuration/v2_depth_duration_MTurk/v2_DepthDuration_HTML.html#18,18,1440,900,1440,900,8-21-2022,9-0-55,23,depth_duration_stimuli/000447_2014-06-08_16-15-46_260595134347_rgbf000130-resize_1/000447_2014-06-08_16-15-46_260595134347_rgbf000130-resize_1-target.png,125,4.479,7,6770,129,meters,jsons/VE125_randls_19_rotated.json,774454,950388,25,Woman
23,969341,DepthScenes,duration_manipulation_targetAtFixation,jsons/VE125_randls_19_rotated.json,http://54.235.29.9/FacialAge/BNav_EC2/DepthDuration/v2_depth_duration_MTurk/v2_DepthDuration_HTML.html#18,18,1440,900,1440,900,8-21-2022,9-0-55,24,depth_duration_stimuli/000502_2014-06-08_23-02-32_260595134347_rgbf000063-resize_4/000502_2014-06-08_23-02-32_260595134347_rgbf000063-resize_4-target.png,125,2.431,5,4852,125,meters,jsons/VE125_randls_19_rotated.json,774454,950388,25,Woman
24,969341,DepthScenes,duration_manipulation_targetAtFixation,jsons/VE125_randls_19_rotated.json,http://54.235.29.9/FacialAge/BNav_EC2/DepthDuration/v2_depth_duration_MTurk/v2_DepthDuration_HTML.html#18,18,1440,900,1440,900,8-21-2022,9-0-55,25,depth_duration_stimuli/001199_2014-06-17_16-03-48_260595134347_rgbf000077-resize_0/001199_2014-06-17_16-03-48_260595134347_rgbf000077-resize_0-target.png,125,3.4375,7,3768,339,meters,jsons/VE125_randls_19_rotated.json,774454,950388,25,Woman
25,969341,DepthScenes,duration_manipulation_targetAtFixation,jsons/VE125_randls_19_rotated.json,http://54.235.29.9/FacialAge/BNav_EC2/DepthDuration/v2_depth_duration_MTurk/v2_DepthDuration_HTML.html#18,18,1440,900,1440,900,8-21-2022,9-0-55,26,depth_duration_stimuli/003081_2014-06-15_15-19-16_094959634447_rgbf000150-resize_1/003081_2014-06-15_15-19-16_094959634447_rgbf000150-resize_1-target.png,125,3.9125,6,3794,128,meters,jsons/VE125_randls_19_rotated.json,774454,950388,25,Woman
26,969341,DepthScenes,duration_manipulation_targetAtFixation,jsons/VE125_randls_19_rotated.json,http://54.235.29.9/FacialAge/BNav_EC2/DepthDuration/v2_depth_duration_MTurk/v2_DepthDuration_HTML.html#18,18,1440,900,1440,900,8-21-2022,9-0-55,27,depth_duration_stimuli/001417_2014-06-19_16-25-36_260595134347_rgbf000115-resize_5/001417_2014-06-19_16-25-36_260595134347_rgbf000115-resize_5-target.png,125,4.6255,8,4052,126,meters,jsons/VE125_randls_19_rotated.json,774454,950388,25,Woman
27,969341,DepthScenes,duration_manipulation_targetAtFixation,jsons/VE125_randls_19_rotated.json,http://54.235.29.9/FacialAge/BNav_EC2/DepthDuration/v2_depth_duration_MTurk/v2_DepthDuration_HTML.html#18,18,1440,900,1440,900,8-21-2022,9-0-55,28,depth_duration_stimuli/001032_2014-06-08_13-23-17_260595134347_rgbf000021-resize_3/001032_2014-06-08_13-23-17_260595134347_rgbf000021-resize_3-target.png,125,3.2725,4,3166,123,meters,jsons/VE125_randls_19_rotated.json,774454,950388,25,Woman
28,969341,DepthScenes,duration_manipulation_targetAtFixation,jsons/VE125_randls_19_rotated.json,http://54.235.29.9/FacialAge/BNav_EC2/DepthDuration/v2_depth_duration_MTurk/v2_DepthDuration_HTML.html#18,18,1440,900,1440,900,8-21-2022,9-0-55,29,depth_duration_stimuli/001059_2014-06-08_21-53-27_260595134347_rgbf000061-resize_4/001059_2014-06-08_21-53-27_260595134347_rgbf000061-resize_4-target.png,125,2.4185,5,2504,124,meters,jsons/VE125_randls_19_rotated.json,774454,950388,25,Woman
29,969341,DepthScenes,duration_manipulation_targetAtFixation,jsons/VE125_randls_19_rotated.json,http://54.235.29.9/FacialAge/BNav_EC2/DepthDuration/v2_depth_duration_MTurk/v2_DepthDuration_HTML.html#18,18,1440,900,1440,900,8-21-2022,9-0-55,30,depth_duration_stimuli/002072_2014-06-24_21-48-06_260595134347_rgbf000115-resize_0/002072_2014-06-24_21-48-06_260595134347_rgbf000115-resize-original.jpg,125,4.702,0,2678,127,meters,jsons/VE125_randls_19_rotated.json,774454,950388,25,Woman
30,969341,DepthScenes,duration_manipulation_targetAtFixation,jsons/VE125_randls_19_rotated.json,http://54.235.29.9/FacialAge/BNav_EC2/DepthDuration/v2_depth_duration_MTurk/v2_DepthDuration_HTML.html#18,18,1440,900,1440,900,8-21-2022,9-0-55,31,depth_duration_stimuli/000556_2014-06-09_22-42-56_260595134347_rgbf000214-resize_1/000556_2014-06-09_22-42-56_260595134347_rgbf000214-resize_1-target.png,125,4.8415,7,5100,127,meters,jsons/VE125_randls_19_rotated.json,774454,950388,25,Woman
31,969341,DepthScenes,duration_manipulation_targetAtFixation,jsons/VE125_randls_19_rotated.json,http://54.235.29.9/FacialAge/BNav_EC2/DepthDuration/v2_depth_duration_MTurk/v2_DepthDuration_HTML.html#18,18,1440,900,1440,900,8-21-2022,9-0-55,32,depth_duration_stimuli/001158_2014-06-17_15-32-16_260595134347_rgbf000138-resize_2/001158_2014-06-17_15-32-16_260595134347_rgbf000138-resize_2-target.png,125,4.5315,8,8433,121,meters,jsons/VE125_randls_19_rotated.json,774454,950388,25,Woman
32,969341,DepthScenes,duration_manipulation_targetAtFixation,jsons/VE125_randls_19_rotated.json,http://54.235.29.9/FacialAge/BNav_EC2/DepthDuration/v2_depth_duration_MTurk/v2_DepthDuration_HTML.html#18,18,1440,900,1440,900,8-21-2022,9-0-55,33,depth_duration_stimuli/000734_2014-06-08_17-39-11_260595134347_rgbf000128-resize_2/000734_2014-06-08_17-39-11_260595134347_rgbf000128-resize_2-target.png,125,4.098,5,4690,122,meters,jsons/VE125_randls_19_rotated.json,774454,950388,25,Woman
33,969341,DepthScenes,duration_manipulation_targetAtFixation,jsons/VE125_randls_19_rotated.json,http://54.235.29.9/FacialAge/BNav_EC2/DepthDuration/v2_depth_duration_MTurk/v2_DepthDuration_HTML.html#18,18,1440,900,1440,900,8-21-2022,9-0-55,34,depth_duration_stimuli/000739_2014-06-08_18-45-58_260595134347_rgbf000068-resize_1/000739_2014-06-08_18-45-58_260595134347_rgbf000068-resize_1-target.png,125,3.534,6,3220,118,meters,jsons/VE125_randls_19_rotated.json,774454,950388,25,Woman
34,969341,DepthScenes,duration_manipulation_targetAtFixation,jsons/VE125_randls_19_rotated.json,http://54.235.29.9/FacialAge/BNav_EC2/DepthDuration/v2_depth_duration_MTurk/v2_DepthDuration_HTML.html#18,18,1440,900,1440,900,8-21-2022,9-0-55,35,depth_duration_stimuli/001136_2014-06-17_15-19-41_260595134347_rgbf000076-resize_3/001136_2014-06-17_15-19-41_260595134347_rgbf000076-resize_3-target.png,125,1.8655,4,2950,140,meters,jsons/VE125_randls_19_rotated.json,774454,950388,25,Woman
35,969341,DepthScenes,duration_manipulation_targetAtFixation,jsons/VE125_randls_19_rotated.json,http://54.235.29.9/FacialAge/BNav_EC2/DepthDuration/v2_depth_duration_MTurk/v2_DepthDuration_HTML.html#18,18,1440,900,1440,900,8-21-2022,9-0-55,36,depth_duration_stimuli/001164_2014-06-17_15-35-46_260595134347_rgbf000085-resize_3/001164_2014-06-17_15-35-46_260595134347_rgbf000085-resize_3-target.png,125,2.354,2,3294,100,meters,jsons/VE125_randls_19_rotated.json,774454,950388,25,Woman
36,969341,DepthScenes,duration_manipulation_targetAtFixation,jsons/VE125_randls_19_rotated.json,http://54.235.29.9/FacialAge/BNav_EC2/DepthDuration/v2_depth_duration_MTurk/v2_DepthDuration_HTML.html#18,18,1440,900,1440,900,8-21-2022,9-0-55,37,depth_duration_stimuli/000635_2014-06-08_16-38-42_260595134347_rgbf000106-resize_1/000635_2014-06-08_16-38-42_260595134347_rgbf000106-resize_1-target.png,125,2.074,4,4345,127,meters,jsons/VE125_randls_19_rotated.json,774454,950388,25,Woman
37,969341,DepthScenes,duration_manipulation_targetAtFixation,jsons/VE125_randls_19_rotated.json,http://54.235.29.9/FacialAge/BNav_EC2/DepthDuration/v2_depth_duration_MTurk/v2_DepthDuration_HTML.html#18,18,1440,900,1440,900,8-21-2022,9-0-55,38,depth_duration_stimuli/002279_2014-06-28_18-55-32_260595134347_rgbf000040-resize_5/002279_2014-06-28_18-55-32_260595134347_rgbf000040-resize_5-target.png,125,1.5043333333333,0,2246,67,meters,jsons/VE125_randls_19_rotated.json,774454,950388,25,Woman
38,969341,DepthScenes,duration_manipulation_targetAtFixation,jsons/VE125_randls_19_rotated.json,http://54.235.29.9/FacialAge/BNav_EC2/DepthDuration/v2_depth_duration_MTurk/v2_DepthDuration_HTML.html#18,18,1440,900,1440,900,8-21-2022,9-0-55,39,depth_duration_stimuli/001828_2014-06-26_21-40-03_260595134347_rgbf000024-resize_0/001828_2014-06-26_21-40-03_260595134347_rgbf000024-resize_0-target.png,125,4.8260000000000005,3,4535,121,meters,jsons/VE125_randls_19_rotated.json,774454,950388,25,Woman
39,969341,DepthScenes,duration_manipulation_targetAtFixation,jsons/VE125_randls_19_rotated.json,http://54.235.29.9/FacialAge/BNav_EC2/DepthDuration/v2_depth_duration_MTurk/v2_DepthDuration_HTML.html#18,18,1440,900,1440,900,8-21-2022,9-0-55,40,depth_duration_stimuli/000009_2014-05-26_14-32-05_260595134347_rgbf000034-resize_3/000009_2014-05-26_14-32-05_260595134347_rgbf000034-resize_3-target.png,125,3.8715,6,4396,127,meters,jsons/VE125_randls_19_rotated.json,774454,950388,25,Woman
40,969341,DepthScenes,duration_manipulation_targetAtFixation,jsons/VE125_randls_19_rotated.json,http://54.235.29.9/FacialAge/BNav_EC2/DepthDuration/v2_depth_duration_MTurk/v2_DepthDuration_HTML.html#18,18,1440,900,1440,900,8-21-2022,9-0-55,41,depth_duration_stimuli/002340_2014-06-28_20-05-46_260595134347_rgbf000113-resize_0/002340_2014-06-28_20-05-46_260595134347_rgbf000113-resize_0-target.png,125,2.4735,4,3739,135,meters,jsons/VE125_randls_19_rotated.json,774454,950388,25,Woman
41,969341,DepthScenes,duration_manipulation_targetAtFixation,jsons/VE125_randls_19_rotated.json,http://54.235.29.9/FacialAge/BNav_EC2/DepthDuration/v2_depth_duration_MTurk/v2_DepthDuration_HTML.html#18,18,1440,900,1440,900,8-21-2022,9-0-55,42,depth_duration_stimuli/001016_2014-06-09_16-16-10_260595134347_rgbf000112-resize_5/001016_2014-06-09_16-16-10_260595134347_rgbf000112-resize_5-target.png,125,1.6565,3,3318,130,meters,jsons/VE125_randls_19_rotated.json,774454,950388,25,Woman
42,969341,DepthScenes,duration_manipulation_targetAtFixation,jsons/VE125_randls_19_rotated.json,http://54.235.29.9/FacialAge/BNav_EC2/DepthDuration/v2_depth_duration_MTurk/v2_DepthDuration_HTML.html#18,18,1440,900,1440,900,8-21-2022,9-0-55,43,depth_duration_stimuli/000549_2014-06-08_22-10-24_260595134347_rgbf000247-resize_3/000549_2014-06-08_22-10-24_260595134347_rgbf000247-resize_3-target.png,125,1.841,2,3218,125,meters,jsons/VE125_randls_19_rotated.json,774454,950388,25,Woman
43,969341,DepthScenes,duration_manipulation_targetAtFixation,jsons/VE125_randls_19_rotated.json,http://54.235.29.9/FacialAge/BNav_EC2/DepthDuration/v2_depth_duration_MTurk/v2_DepthDuration_HTML.html#18,18,1440,900,1440,900,8-21-2022,9-0-55,44,depth_duration_stimuli/001055_2014-06-08_18-45-35_260595134347_rgbf000111-resize_4/001055_2014-06-08_18-45-35_260595134347_rgbf000111-resize_4-target.png,125,2.4290000000000003,7,3679,124,meters,jsons/VE125_randls_19_rotated.json,774454,950388,25,Woman
44,969341,DepthScenes,duration_manipulation_targetAtFixation,jsons/VE125_randls_19_rotated.json,http://54.235.29.9/FacialAge/BNav_EC2/DepthDuration/v2_depth_duration_MTurk/v2_DepthDuration_HTML.html#18,18,1440,900,1440,900,8-21-2022,9-0-55,45,depth_duration_stimuli/000866_2014-06-09_20-45-42_260595134347_rgbf000139-resize_1/000866_2014-06-09_20-45-42_260595134347_rgbf000139-resize_1-target.png,125,3.2155,3,3095,123,meters,jsons/VE125_randls_19_rotated.json,774454,950388,25,Woman
45,969341,DepthScenes,duration_manipulation_targetAtFixation,jsons/VE125_randls_19_rotated.json,http://54.235.29.9/FacialAge/BNav_EC2/DepthDuration/v2_depth_duration_MTurk/v2_DepthDuration_HTML.html#18,18,1440,900,1440,900,8-21-2022,9-0-55,46,depth_duration_stimuli/002989_2014-06-15_12-25-03_094959634447_rgbf000150-resize_3/002989_2014-06-15_12-25-03_094959634447_rgbf000150-resize_3-target.png,125,4.1975,8,4256,124,meters,jsons/VE125_randls_19_rotated.json,774454,950388,25,Woman
46,969341,DepthScenes,duration_manipulation_targetAtFixation,jsons/VE125_randls_19_rotated.json,http://54.235.29.9/FacialAge/BNav_EC2/DepthDuration/v2_depth_duration_MTurk/v2_DepthDuration_HTML.html#18,18,1440,900,1440,900,8-21-2022,9-0-55,47,depth_duration_stimuli/002678_2014-06-13_16-15-32_094959634447_rgbf000151-resize_6/002678_2014-06-13_16-15-32_094959634447_rgbf000151-resize_6-target.png,125,2.1830000000000003,6,3032,133,meters,jsons/VE125_randls_19_rotated.json,774454,950388,25,Woman
47,969341,DepthScenes,duration_manipulation_targetAtFixation,jsons/VE125_randls_19_rotated.json,http://54.235.29.9/FacialAge/BNav_EC2/DepthDuration/v2_depth_duration_MTurk/v2_DepthDuration_HTML.html#18,18,1440,900,1440,900,8-21-2022,9-0-55,48,depth_duration_stimuli/000368_2014-06-09_15-53-01_260595134347_rgbf000155-resize_2/000368_2014-06-09_15-53-01_260595134347_rgbf000155-resize_2-target.png,125,2.4859999999999998,3,3308,123,meters,jsons/VE125_randls_19_rotated.json,774454,950388,25,Woman
48,969341,DepthScenes,duration_manipulation_targetAtFixation,jsons/VE125_randls_19_rotated.json,http://54.235.29.9/FacialAge/BNav_EC2/DepthDuration/v2_depth_duration_MTurk/v2_DepthDuration_HTML.html#18,18,1440,900,1440,900,8-21-2022,9-0-55,49,depth_duration_stimuli/001170_2014-06-17_15-43-44_260595134347_rgbf000096-resize_6/001170_2014-06-17_15-43-44_260595134347_rgbf000096-resize-original.jpg,125,1.1909999999999998,0,2602,124,meters,jsons/VE125_randls_19_rotated.json,774454,950388,25,Woman
49,969341,DepthScenes,duration_manipulation_targetAtFixation,jsons/VE125_randls_19_rotated.json,http://54.235.29.9/FacialAge/BNav_EC2/DepthDuration/v2_depth_duration_MTurk/v2_DepthDuration_HTML.html#18,18,1440,900,1440,900,8-21-2022,9-0-55,50,depth_duration_stimuli/001100_2014-06-15_17-46-26_260595134347_rgbf000225-resize_2/001100_2014-06-15_17-46-26_260595134347_rgbf000225-resize_2-target.png,125,2.24,2,2790,124,meters,jsons/VE125_randls_19_rotated.json,774454,950388,25,Woman
50,969341,DepthScenes,duration_manipulation_targetAtFixation,jsons/VE125_randls_19_rotated.json,http://54.235.29.9/FacialAge/BNav_EC2/DepthDuration/v2_depth_duration_MTurk/v2_DepthDuration_HTML.html#18,18,1440,900,1440,900,8-21-2022,9-0-55,51,depth_duration_stimuli/002784_2014-06-22_19-26-30_094959634447_rgbf000083-resize_3/002784_2014-06-22_19-26-30_094959634447_rgbf000083-resize_3-target.png,125,1.8046666666667,3,3330,111,meters,jsons/VE125_randls_19_rotated.json,774454,950388,25,Woman
51,969341,DepthScenes,duration_manipulation_targetAtFixation,jsons/VE125_randls_19_rotated.json,http://54.235.29.9/FacialAge/BNav_EC2/DepthDuration/v2_depth_duration_MTurk/v2_DepthDuration_HTML.html#18,18,1440,900,1440,900,8-21-2022,9-0-55,52,depth_duration_stimuli/002750_2014-06-22_19-08-03_094959634447_rgbf000094-resize_4/002750_2014-06-22_19-08-03_094959634447_rgbf000094-resize_4-target.png,125,2.354,5,4089,99,meters,jsons/VE125_randls_19_rotated.json,774454,950388,25,Woman
52,969341,DepthScenes,duration_manipulation_targetAtFixation,jsons/VE125_randls_19_rotated.json,http://54.235.29.9/FacialAge/BNav_EC2/DepthDuration/v2_depth_duration_MTurk/v2_DepthDuration_HTML.html#18,18,1440,900,1440,900,8-21-2022,9-0-55,53,depth_duration_stimuli/002549_2014-06-24_13-41-39_094959634447_rgbf000022-resize_3/002549_2014-06-24_13-41-39_094959634447_rgbf000022-resize_3-target.png,125,1.476,3,2633,200,meters,jsons/VE125_randls_19_rotated.json,774454,950388,25,Woman
53,969341,DepthScenes,duration_manipulation_targetAtFixation,jsons/VE125_randls_19_rotated.json,http://54.235.29.9/FacialAge/BNav_EC2/DepthDuration/v2_depth_duration_MTurk/v2_DepthDuration_HTML.html#18,18,1440,900,1440,900,8-21-2022,9-0-55,54,depth_duration_stimuli/001214_2014-06-17_16-13-55_260595134347_rgbf000111-resize_0/001214_2014-06-17_16-13-55_260595134347_rgbf000111-resize_0-target.png,125,2.6505,3,7176,138,meters,jsons/VE125_randls_19_rotated.json,774454,950388,25,Woman
54,969341,DepthScenes,duration_manipulation_targetAtFixation,jsons/VE125_randls_19_rotated.json,http://54.235.29.9/FacialAge/BNav_EC2/DepthDuration/v2_depth_duration_MTurk/v2_DepthDuration_HTML.html#18,18,1440,900,1440,900,8-21-2022,9-0-55,55,depth_duration_stimuli/000810_2014-06-08_17-20-01_260595134347_rgbf000105-resize_0/000810_2014-06-08_17-20-01_260595134347_rgbf000105-resize_0-target.png,125,1.4865,3,11776,112,meters,jsons/VE125_randls_19_rotated.json,774454,950388,25,Woman
55,969341,DepthScenes,duration_manipulation_targetAtFixation,jsons/VE125_randls_19_rotated.json,http://54.235.29.9/FacialAge/BNav_EC2/DepthDuration/v2_depth_duration_MTurk/v2_DepthDuration_HTML.html#18,18,1440,900,1440,900,8-21-2022,9-0-55,56,depth_duration_stimuli/003079_2014-06-15_15-18-20_094959634447_rgbf000152-resize_8/003079_2014-06-15_15-18-20_094959634447_rgbf000152-resize_8-target.png,125,2.8775,7,3052,118,meters,jsons/VE125_randls_19_rotated.json,774454,950388,25,Woman
56,969341,DepthScenes,duration_manipulation_targetAtFixation,jsons/VE125_randls_19_rotated.json,http://54.235.29.9/FacialAge/BNav_EC2/DepthDuration/v2_depth_duration_MTurk/v2_DepthDuration_HTML.html#18,18,1440,900,1440,900,8-21-2022,9-0-55,57,depth_duration_stimuli/000506_2014-06-08_23-21-00_260595134347_rgbf000070-resize_7/000506_2014-06-08_23-21-00_260595134347_rgbf000070-resize_7-target.png,125,4.0585,5,2655,127,meters,jsons/VE125_randls_19_rotated.json,774454,950388,25,Woman
57,969341,DepthScenes,duration_manipulation_targetAtFixation,jsons/VE125_randls_19_rotated.json,http://54.235.29.9/FacialAge/BNav_EC2/DepthDuration/v2_depth_duration_MTurk/v2_DepthDuration_HTML.html#18,18,1440,900,1440,900,8-21-2022,9-0-55,58,depth_duration_stimuli/000854_2014-06-09_19-43-13_260595134347_rgbf000066-resize_0/000854_2014-06-09_19-43-13_260595134347_rgbf000066-resize_0-target.png,125,3.068,4,2736,123,meters,jsons/VE125_randls_19_rotated.json,774454,950388,25,Woman
58,969341,DepthScenes,duration_manipulation_targetAtFixation,jsons/VE125_randls_19_rotated.json,http://54.235.29.9/FacialAge/BNav_EC2/DepthDuration/v2_depth_duration_MTurk/v2_DepthDuration_HTML.html#18,18,1440,900,1440,900,8-21-2022,9-0-55,59,depth_duration_stimuli/000758_2014-06-08_22-05-08_260595134347_rgbf000085-resize_0/000758_2014-06-08_22-05-08_260595134347_rgbf000085-resize_0-target.png,125,3.3810000000000002,8,2729,123,meters,jsons/VE125_randls_19_rotated.json,774454,950388,25,Woman
59,969341,DepthScenes,duration_manipulation_targetAtFixation,jsons/VE125_randls_19_rotated.json,http://54.235.29.9/FacialAge/BNav_EC2/DepthDuration/v2_depth_duration_MTurk/v2_DepthDuration_HTML.html#18,18,1440,900,1440,900,8-21-2022,9-0-55,60,depth_duration_stimuli/002199_2014-06-28_18-33-56_260595134347_rgbf000074-resize_0/002199_2014-06-28_18-33-56_260595134347_rgbf000074-resize_0-target.png,125,1.996,2,2566,122,meters,jsons/VE125_randls_19_rotated.json,774454,950388,25,Woman
60,969341,DepthScenes,duration_manipulation_targetAtFixation,jsons/VE125_randls_19_rotated.json,http://54.235.29.9/FacialAge/BNav_EC2/DepthDuration/v2_depth_duration_MTurk/v2_DepthDuration_HTML.html#18,18,1440,900,1440,900,8-21-2022,9-0-55,61,depth_duration_stimuli/001056_2014-06-08_18-46-44_260595134347_rgbf000068-resize_0/001056_2014-06-08_18-46-44_260595134347_rgbf000068-resize_0-target.png,125,2.6625,4,3948,202,meters,jsons/VE125_randls_19_rotated.json,774454,950388,25,Woman
61,969341,DepthScenes,duration_manipulation_targetAtFixation,jsons/VE125_randls_19_rotated.json,http://54.235.29.9/FacialAge/BNav_EC2/DepthDuration/v2_depth_duration_MTurk/v2_DepthDuration_HTML.html#18,18,1440,900,1440,900,8-21-2022,9-0-55,62,depth_duration_stimuli/003129_2014-05-12_10-48-10_094959634447_rgbf000100-resize_0/003129_2014-05-12_10-48-10_094959634447_rgbf000100-resize_0-target.png,125,4.9305,7,4418,124,meters,jsons/VE125_randls_19_rotated.json,774454,950388,25,Woman
62,969341,DepthScenes,duration_manipulation_targetAtFixation,jsons/VE125_randls_19_rotated.json,http://54.235.29.9/FacialAge/BNav_EC2/DepthDuration/v2_depth_duration_MTurk/v2_DepthDuration_HTML.html#18,18,1440,900,1440,900,8-21-2022,9-0-55,63,depth_duration_stimuli/000414_2014-06-04_19-49-13_260595134347_rgbf000044-resize_0/000414_2014-06-04_19-49-13_260595134347_rgbf000044-resize_0-target.png,125,4.329,4,7016,125,meters,jsons/VE125_randls_19_rotated.json,774454,950388,25,Woman
63,969341,DepthScenes,duration_manipulation_targetAtFixation,jsons/VE125_randls_19_rotated.json,http://54.235.29.9/FacialAge/BNav_EC2/DepthDuration/v2_depth_duration_MTurk/v2_DepthDuration_HTML.html#18,18,1440,900,1440,900,8-21-2022,9-0-55,64,depth_duration_stimuli/000742_2014-06-08_18-48-09_260595134347_rgbf000164-resize_4/000742_2014-06-08_18-48-09_260595134347_rgbf000164-resize_4-target.png,125,4.632,0,4932,123,meters,jsons/VE125_randls_19_rotated.json,774454,950388,25,Woman
64,969341,DepthScenes,duration_manipulation_targetAtFixation,jsons/VE125_randls_19_rotated.json,http://54.235.29.9/FacialAge/BNav_EC2/DepthDuration/v2_depth_duration_MTurk/v2_DepthDuration_HTML.html#18,18,1440,900,1440,900,8-21-2022,9-0-55,65,depth_duration_stimuli/001066_2014-06-08_22-03-20_260595134347_rgbf000066-resize_4/001066_2014-06-08_22-03-20_260595134347_rgbf000066-resize_4-target.png,125,4.2330000000000005,8,2609,124,meters,jsons/VE125_randls_19_rotated.json,774454,950388,25,Woman
65,969341,DepthScenes,duration_manipulation_targetAtFixation,jsons/VE125_randls_19_rotated.json,http://54.235.29.9/FacialAge/BNav_EC2/DepthDuration/v2_depth_duration_MTurk/v2_DepthDuration_HTML.html#18,18,1440,900,1440,900,8-21-2022,9-0-55,66,depth_duration_stimuli/001540_2014-06-20_17-01-05_260595134347_rgbf000086-resize_2/001540_2014-06-20_17-01-05_260595134347_rgbf000086-resize-original.jpg,125,1.459,0,2506,120,meters,jsons/VE125_randls_19_rotated.json,774454,950388,25,Woman
66,969341,DepthScenes,duration_manipulation_targetAtFixation,jsons/VE125_randls_19_rotated.json,http://54.235.29.9/FacialAge/BNav_EC2/DepthDuration/v2_depth_duration_MTurk/v2_DepthDuration_HTML.html#18,18,1440,900,1440,900,8-21-2022,9-0-55,67,depth_duration_stimuli/001584_2014-06-20_11-07-43_260595134347_rgbf000002-resize_1/001584_2014-06-20_11-07-43_260595134347_rgbf000002-resize_1-target.png,125,3.53,4,3170,117,meters,jsons/VE125_randls_19_rotated.json,774454,950388,25,Woman
67,969341,DepthScenes,duration_manipulation_targetAtFixation,jsons/VE125_randls_19_rotated.json,http://54.235.29.9/FacialAge/BNav_EC2/DepthDuration/v2_depth_duration_MTurk/v2_DepthDuration_HTML.html#18,18,1440,900,1440,900,8-21-2022,9-0-55,68,depth_duration_stimuli/003621_2014-05-23_18-06-08_094959634447_rgbf000101-resize_1/003621_2014-05-23_18-06-08_094959634447_rgbf000101-resize_1-target.png,125,3.9835,8,3451,111,meters,jsons/VE125_randls_19_rotated.json,774454,950388,25,Woman
68,969341,DepthScenes,duration_manipulation_targetAtFixation,jsons/VE125_randls_19_rotated.json,http://54.235.29.9/FacialAge/BNav_EC2/DepthDuration/v2_depth_duration_MTurk/v2_DepthDuration_HTML.html#18,18,1440,900,1440,900,8-21-2022,9-0-55,69,depth_duration_stimuli/000103_2014-05-14_22-01-17_260595134347_rgbf000152-resize_5/000103_2014-05-14_22-01-17_260595134347_rgbf000152-resize_5-target.png,125,1.993,3,4947,120,meters,jsons/VE125_randls_19_rotated.json,774454,950388,25,Woman
69,969341,DepthScenes,duration_manipulation_targetAtFixation,jsons/VE125_randls_19_rotated.json,http://54.235.29.9/FacialAge/BNav_EC2/DepthDuration/v2_depth_duration_MTurk/v2_DepthDuration_HTML.html#18,18,1440,900,1440,900,8-21-2022,9-0-55,70,depth_duration_stimuli/001555_2014-06-20_17-12-10_260595134347_rgbf000065-resize_4/001555_2014-06-20_17-12-10_260595134347_rgbf000065-resize_4-target.png,125,1.633,2,2338,134,meters,jsons/VE125_randls_19_rotated.json,774454,950388,25,Woman
70,969341,DepthScenes,duration_manipulation_targetAtFixation,jsons/VE125_randls_19_rotated.json,http://54.235.29.9/FacialAge/BNav_EC2/DepthDuration/v2_depth_duration_MTurk/v2_DepthDuration_HTML.html#18,18,1440,900,1440,900,8-21-2022,9-0-55,71,depth_duration_stimuli/003048_2014-06-15_13-49-43_094959634447_rgbf000150-resize_1/003048_2014-06-15_13-49-43_094959634447_rgbf000150-resize_1-target.png,125,4.0035,5,2580,121,meters,jsons/VE125_randls_19_rotated.json,774454,950388,25,Woman
71,969341,DepthScenes,duration_manipulation_targetAtFixation,jsons/VE125_randls_19_rotated.json,http://54.235.29.9/FacialAge/BNav_EC2/DepthDuration/v2_depth_duration_MTurk/v2_DepthDuration_HTML.html#18,18,1440,900,1440,900,8-21-2022,9-0-55,72,depth_duration_stimuli/002043_2014-06-24_20-29-38_260595134347_rgbf000039-resize_4/002043_2014-06-24_20-29-38_260595134347_rgbf000039-resize_4-target.png,125,2.8435,4,2883,123,meters,jsons/VE125_randls_19_rotated.json,774454,950388,25,Woman
72,969341,DepthScenes,duration_manipulation_targetAtFixation,jsons/VE125_randls_19_rotated.json,http://54.235.29.9/FacialAge/BNav_EC2/DepthDuration/v2_depth_duration_MTurk/v2_DepthDuration_HTML.html#18,18,1440,900,1440,900,8-21-2022,9-0-55,73,depth_duration_stimuli/002875_2014-06-01_15-19-00_094959634447_rgbf000151-resize_1/002875_2014-06-01_15-19-00_094959634447_rgbf000151-resize_1-target.png,125,1.9675,3,2518,122,meters,jsons/VE125_randls_19_rotated.json,774454,950388,25,Woman
73,969341,DepthScenes,duration_manipulation_targetAtFixation,jsons/VE125_randls_19_rotated.json,http://54.235.29.9/FacialAge/BNav_EC2/DepthDuration/v2_depth_duration_MTurk/v2_DepthDuration_HTML.html#18,18,1440,900,1440,900,8-21-2022,9-0-55,74,depth_duration_stimuli/001011_2014-06-08_23-18-54_260595134347_rgbf000044-resize_4/001011_2014-06-08_23-18-54_260595134347_rgbf000044-resize_4-target.png,125,2.4730000000000003,5,3483,126,meters,jsons/VE125_randls_19_rotated.json,774454,950388,25,Woman
74,969341,DepthScenes,duration_manipulation_targetAtFixation,jsons/VE125_randls_19_rotated.json,http://54.235.29.9/FacialAge/BNav_EC2/DepthDuration/v2_depth_duration_MTurk/v2_DepthDuration_HTML.html#18,18,1440,900,1440,900,8-21-2022,9-0-55,75,depth_duration_stimuli/001132_2014-06-17_14-48-54_260595134347_rgbf000100-resize_2/001132_2014-06-17_14-48-54_260595134347_rgbf000100-resize_2-target.png,125,3.753,3,6331,122,meters,jsons/VE125_randls_19_rotated.json,774454,950388,25,Woman
75,969341,DepthScenes,duration_manipulation_targetAtFixation,jsons/VE125_randls_19_rotated.json,http://54.235.29.9/FacialAge/BNav_EC2/DepthDuration/v2_depth_duration_MTurk/v2_DepthDuration_HTML.html#18,18,1440,900,1440,900,8-21-2022,9-0-55,76,depth_duration_stimuli/001133_2014-06-17_14-49-16_260595134347_rgbf000100-resize_0/001133_2014-06-17_14-49-16_260595134347_rgbf000100-resize_0-target.png,125,4.2115,7,2744,111,meters,jsons/VE125_randls_19_rotated.json,774454,950388,25,Woman
76,969341,DepthScenes,duration_manipulation_targetAtFixation,jsons/VE125_randls_19_rotated.json,http://54.235.29.9/FacialAge/BNav_EC2/DepthDuration/v2_depth_duration_MTurk/v2_DepthDuration_HTML.html#18,18,1440,900,1440,900,8-21-2022,9-0-55,77,depth_duration_stimuli/002414_2014-06-28_20-24-58_260595134347_rgbf000067-resize_4/002414_2014-06-28_20-24-58_260595134347_rgbf000067-resize_4-target.png,125,4.363,8,3715,124,meters,jsons/VE125_randls_19_rotated.json,774454,950388,25,Woman
77,969341,DepthScenes,duration_manipulation_targetAtFixation,jsons/VE125_randls_19_rotated.json,http://54.235.29.9/FacialAge/BNav_EC2/DepthDuration/v2_depth_duration_MTurk/v2_DepthDuration_HTML.html#18,18,1440,900,1440,900,8-21-2022,9-0-55,78,depth_duration_stimuli/000773_2014-06-08_22-24-54_260595134347_rgbf000093-resize_1/000773_2014-06-08_22-24-54_260595134347_rgbf000093-resize_1-target.png,125,4.973,0,3432,18,meters,jsons/VE125_randls_19_rotated.json,774454,950388,25,Woman
78,969341,DepthScenes,duration_manipulation_targetAtFixation,jsons/VE125_randls_19_rotated.json,http://54.235.29.9/FacialAge/BNav_EC2/DepthDuration/v2_depth_duration_MTurk/v2_DepthDuration_HTML.html#18,18,1440,900,1440,900,8-21-2022,9-0-55,79,depth_duration_stimuli/002444_2014-06-28_20-32-08_260595134347_rgbf000027-resize_0/002444_2014-06-28_20-32-08_260595134347_rgbf000027-resize_0-target.png,125,4.388999999999999,4,2715,175,meters,jsons/VE125_randls_19_rotated.json,774454,950388,25,Woman
79,969341,DepthScenes,duration_manipulation_targetAtFixation,jsons/VE125_randls_19_rotated.json,http://54.235.29.9/FacialAge/BNav_EC2/DepthDuration/v2_depth_duration_MTurk/v2_DepthDuration_HTML.html#18,18,1440,900,1440,900,8-21-2022,9-0-55,80,depth_duration_stimuli/000436_2014-06-09_22-25-11_260595134347_rgbf000137-resize_1/000436_2014-06-09_22-25-11_260595134347_rgbf000137-resize_1-target.png,125,4.0705,6,3289,124,meters,jsons/VE125_randls_19_rotated.json,774454,950388,25,Woman
80,969341,DepthScenes,duration_manipulation_targetAtFixation,jsons/VE125_randls_19_rotated.json,http://54.235.29.9/FacialAge/BNav_EC2/DepthDuration/v2_depth_duration_MTurk/v2_DepthDuration_HTML.html#18,18,1440,900,1440,900,8-21-2022,9-0-55,81,depth_duration_stimuli/001235_2014-06-17_16-37-36_260595134347_rgbf000084-resize_4/001235_2014-06-17_16-37-36_260595134347_rgbf000084-resize_4-target.png,125,3.6605,5,5965,119,meters,jsons/VE125_randls_19_rotated.json,774454,950388,25,Woman
81,969341,DepthScenes,duration_manipulation_targetAtFixation,jsons/VE125_randls_19_rotated.json,http://54.235.29.9/FacialAge/BNav_EC2/DepthDuration/v2_depth_duration_MTurk/v2_DepthDuration_HTML.html#18,18,1440,900,1440,900,8-21-2022,9-0-55,82,depth_duration_stimuli/000788_2014-06-08_22-34-36_260595134347_rgbf000131-resize_1/000788_2014-06-08_22-34-36_260595134347_rgbf000131-resize_1-target.png,125,3.359,3,3224,117,meters,jsons/VE125_randls_19_rotated.json,774454,950388,25,Woman
82,969341,DepthScenes,duration_manipulation_targetAtFixation,jsons/VE125_randls_19_rotated.json,http://54.235.29.9/FacialAge/BNav_EC2/DepthDuration/v2_depth_duration_MTurk/v2_DepthDuration_HTML.html#18,18,1440,900,1440,900,8-21-2022,9-0-55,83,depth_duration_stimuli/003228_2014-05-14_13-42-35_094959634447_rgbf000101-resize_1/003228_2014-05-14_13-42-35_094959634447_rgbf000101-resize_1-target.png,125,1.9680000000000002,2,2241,113,meters,jsons/VE125_randls_19_rotated.json,774454,950388,25,Woman
83,969341,DepthScenes,duration_manipulation_targetAtFixation,jsons/VE125_randls_19_rotated.json,http://54.235.29.9/FacialAge/BNav_EC2/DepthDuration/v2_depth_duration_MTurk/v2_DepthDuration_HTML.html#18,18,1440,900,1440,900,8-21-2022,9-0-55,84,depth_duration_stimuli/002600_2014-06-24_14-27-04_094959634447_rgbf000074-resize_2/002600_2014-06-24_14-27-04_094959634447_rgbf000074-resize_2-target.png,125,2.7575,2,2947,53,meters,jsons/VE125_randls_19_rotated.json,774454,950388,25,Woman
84,969341,DepthScenes,duration_manipulation_targetAtFixation,jsons/VE125_randls_19_rotated.json,http://54.235.29.9/FacialAge/BNav_EC2/DepthDuration/v2_depth_duration_MTurk/v2_DepthDuration_HTML.html#18,18,1440,900,1440,900,8-21-2022,9-0-55,85,depth_duration_stimuli/000943_2014-06-09_19-31-07_260595134347_rgbf000128-resize_1/000943_2014-06-09_19-31-07_260595134347_rgbf000128-resize_1-target.png,125,1.9765,4,3525,110,meters,jsons/VE125_randls_19_rotated.json,774454,950388,25,Woman
85,969341,DepthScenes,duration_manipulation_targetAtFixation,jsons/VE125_randls_19_rotated.json,http://54.235.29.9/FacialAge/BNav_EC2/DepthDuration/v2_depth_duration_MTurk/v2_DepthDuration_HTML.html#18,18,1440,900,1440,900,8-21-2022,9-0-55,86,depth_duration_stimuli/003070_2014-06-15_14-58-27_094959634447_rgbf000150-resize_3/003070_2014-06-15_14-58-27_094959634447_rgbf000150-resize_3-target.png,125,2.9415,5,2260,132,meters,jsons/VE125_randls_19_rotated.json,774454,950388,25,Woman
86,969341,DepthScenes,duration_manipulation_targetAtFixation,jsons/VE125_randls_19_rotated.json,http://54.235.29.9/FacialAge/BNav_EC2/DepthDuration/v2_depth_duration_MTurk/v2_DepthDuration_HTML.html#18,18,1440,900,1440,900,8-21-2022,9-0-55,87,depth_duration_stimuli/000409_2014-06-04_19-23-33_260595134347_rgbf000067-resize_0/000409_2014-06-04_19-23-33_260595134347_rgbf000067-resize_0-target.png,125,3.7335,6,2711,112,meters,jsons/VE125_randls_19_rotated.json,774454,950388,25,Woman
87,969341,DepthScenes,duration_manipulation_targetAtFixation,jsons/VE125_randls_19_rotated.json,http://54.235.29.9/FacialAge/BNav_EC2/DepthDuration/v2_depth_duration_MTurk/v2_DepthDuration_HTML.html#18,18,1440,900,1440,900,8-21-2022,9-0-55,88,depth_duration_stimuli/002663_2014-06-13_15-50-26_094959634447_rgbf000075-resize_1/002663_2014-06-13_15-50-26_094959634447_rgbf000075-resize_1-target.png,125,4.7495,7,2625,126,meters,jsons/VE125_randls_19_rotated.json,774454,950388,25,Woman
88,969341,DepthScenes,duration_manipulation_targetAtFixation,jsons/VE125_randls_19_rotated.json,http://54.235.29.9/FacialAge/BNav_EC2/DepthDuration/v2_depth_duration_MTurk/v2_DepthDuration_HTML.html#18,18,1440,900,1440,900,8-21-2022,9-0-55,89,depth_duration_stimuli/001392_2014-06-19_16-07-59_260595134347_rgbf000046-resize_1/001392_2014-06-19_16-07-59_260595134347_rgbf000046-resize_1-target.png,125,4.135,5,5201,119,meters,jsons/VE125_randls_19_rotated.json,774454,950388,25,Woman
89,969341,DepthScenes,duration_manipulation_targetAtFixation,jsons/VE125_randls_19_rotated.json,http://54.235.29.9/FacialAge/BNav_EC2/DepthDuration/v2_depth_duration_MTurk/v2_DepthDuration_HTML.html#18,18,1440,900,1440,900,8-21-2022,9-0-55,90,depth_duration_stimuli/001570_2014-06-20_17-21-09_260595134347_rgbf000135-resize_4/001570_2014-06-20_17-21-09_260595134347_rgbf000135-resize_4-target.png,125,4.467,7,3722,118,meters,jsons/VE125_randls_19_rotated.json,774454,950388,25,Woman
90,969341,DepthScenes,duration_manipulation_targetAtFixation,jsons/VE125_randls_19_rotated.json,http://54.235.29.9/FacialAge/BNav_EC2/DepthDuration/v2_depth_duration_MTurk/v2_DepthDuration_HTML.html#18,18,1440,900,1440,900,8-21-2022,9-0-55,91,depth_duration_stimuli/000709_2014-06-08_13-51-55_260595134347_rgbf000068-resize_3/000709_2014-06-08_13-51-55_260595134347_rgbf000068-resize_3-target.png,125,1.8030000000000002,4,5792,101,meters,jsons/VE125_randls_19_rotated.json,774454,950388,25,Woman
91,969341,DepthScenes,duration_manipulation_targetAtFixation,jsons/VE125_randls_19_rotated.json,http://54.235.29.9/FacialAge/BNav_EC2/DepthDuration/v2_depth_duration_MTurk/v2_DepthDuration_HTML.html#18,18,1440,900,1440,900,8-21-2022,9-0-55,92,depth_duration_stimuli/002057_2014-06-24_21-00-13_260595134347_rgbf000120-resize_1/002057_2014-06-24_21-00-13_260595134347_rgbf000120-resize_1-target.png,125,2.967,7,3126,127,meters,jsons/VE125_randls_19_rotated.json,774454,950388,25,Woman
92,969341,DepthScenes,duration_manipulation_targetAtFixation,jsons/VE125_randls_19_rotated.json,http://54.235.29.9/FacialAge/BNav_EC2/DepthDuration/v2_depth_duration_MTurk/v2_DepthDuration_HTML.html#18,18,1440,900,1440,900,8-21-2022,9-0-55,93,depth_duration_stimuli/003083_2014-06-15_15-21-03_094959634447_rgbf000063-resize_1/003083_2014-06-15_15-21-03_094959634447_rgbf000063-resize_1-target.png,125,4.1405,5,3813,124,meters,jsons/VE125_randls_19_rotated.json,774454,950388,25,Woman
93,969341,DepthScenes,duration_manipulation_targetAtFixation,jsons/VE125_randls_19_rotated.json,http://54.235.29.9/FacialAge/BNav_EC2/DepthDuration/v2_depth_duration_MTurk/v2_DepthDuration_HTML.html#18,18,1440,900,1440,900,8-21-2022,9-0-55,94,depth_duration_stimuli/000486_2014-06-09_20-47-20_260595134347_rgbf000143-resize_2/000486_2014-06-09_20-47-20_260595134347_rgbf000143-resize_2-target.png,125,4.8325,5,9065,90,meters,jsons/VE125_randls_19_rotated.json,774454,950388,25,Woman
94,969341,DepthScenes,duration_manipulation_targetAtFixation,jsons/VE125_randls_19_rotated.json,http://54.235.29.9/FacialAge/BNav_EC2/DepthDuration/v2_depth_duration_MTurk/v2_DepthDuration_HTML.html#18,18,1440,900,1440,900,8-21-2022,9-0-55,95,depth_duration_stimuli/002568_2014-06-24_13-59-21_094959634447_rgbf000062-resize_4/002568_2014-06-24_13-59-21_094959634447_rgbf000062-resize_4-target.png,125,3.015,5,4353,116,meters,jsons/VE125_randls_19_rotated.json,774454,950388,25,Woman
95,969341,DepthScenes,duration_manipulation_targetAtFixation,jsons/VE125_randls_19_rotated.json,http://54.235.29.9/FacialAge/BNav_EC2/DepthDuration/v2_depth_duration_MTurk/v2_DepthDuration_HTML.html#18,18,1440,900,1440,900,8-21-2022,9-0-55,96,depth_duration_stimuli/003492_2014-05-21_15-50-55_094959634447_rgbf000828-resize_1/003492_2014-05-21_15-50-55_094959634447_rgbf000828-resize_1-target.png,125,4.06875,4,5131,123,meters,jsons/VE125_randls_19_rotated.json,774454,950388,25,Woman
96,969341,DepthScenes,duration_manipulation_targetAtFixation,jsons/VE125_randls_19_rotated.json,http://54.235.29.9/FacialAge/BNav_EC2/DepthDuration/v2_depth_duration_MTurk/v2_DepthDuration_HTML.html#18,18,1440,900,1440,900,8-21-2022,9-0-55,97,depth_duration_stimuli/003490_2014-05-21_15-50-11_094959634447_rgbf000101-resize_3/003490_2014-05-21_15-50-11_094959634447_rgbf000101-resize_3-target.png,125,3.6445,5,3983,124,meters,jsons/VE125_randls_19_rotated.json,774454,950388,25,Woman
97,969341,DepthScenes,duration_manipulation_targetAtFixation,jsons/VE125_randls_19_rotated.json,http://54.235.29.9/FacialAge/BNav_EC2/DepthDuration/v2_depth_duration_MTurk/v2_DepthDuration_HTML.html#18,18,1440,900,1440,900,8-21-2022,9-0-55,98,depth_duration_stimuli/001175_2014-06-17_15-45-55_260595134347_rgbf000129-resize_4/001175_2014-06-17_15-45-55_260595134347_rgbf000129-resize_4-target.png,125,4.255,6,6957,125,meters,jsons/VE125_randls_19_rotated.json,774454,950388,25,Woman
98,969341,DepthScenes,duration_manipulation_targetAtFixation,jsons/VE125_randls_19_rotated.json,http://54.235.29.9/FacialAge/BNav_EC2/DepthDuration/v2_depth_duration_MTurk/v2_DepthDuration_HTML.html#18,18,1440,900,1440,900,8-21-2022,9-0-55,99,depth_duration_stimuli/001222_2014-06-17_16-24-06_260595134347_rgbf000073-resize_0/001222_2014-06-17_16-24-06_260595134347_rgbf000073-resize-original.jpg,125,1.4385,10,3572,123,meters,jsons/VE125_randls_19_rotated.json,774454,950388,25,Woman
99,969341,DepthScenes,duration_manipulation_targetAtFixation,jsons/VE125_randls_19_rotated.json,http://54.235.29.9/FacialAge/BNav_EC2/DepthDuration/v2_depth_duration_MTurk/v2_DepthDuration_HTML.html#18,18,1440,900,1440,900,8-21-2022,9-0-55,100,depth_duration_stimuli/002953_2014-06-08_17-32-18_094959634447_rgbf000059-resize_5/002953_2014-06-08_17-32-18_094959634447_rgbf000059-resize_5-target.png,125,1.551,5,3666,129,meters,jsons/VE125_randls_19_rotated.json,774454,950388,25,Woman
100,969341,DepthScenes,duration_manipulation_targetAtFixation,jsons/VE125_randls_19_rotated.json,http://54.235.29.9/FacialAge/BNav_EC2/DepthDuration/v2_depth_duration_MTurk/v2_DepthDuration_HTML.html#18,18,1440,900,1440,900,8-21-2022,9-0-55,101,depth_duration_stimuli/000878_2014-06-08_22-52-45_260595134347_rgbf000045-resize_2/000878_2014-06-08_22-52-45_260595134347_rgbf000045-resize_2-target.png,125,2.092,5,3772,110,meters,jsons/VE125_randls_19_rotated.json,774454,950388,25,Woman
101,969341,DepthScenes,duration_manipulation_targetAtFixation,jsons/VE125_randls_19_rotated.json,http://54.235.29.9/FacialAge/BNav_EC2/DepthDuration/v2_depth_duration_MTurk/v2_DepthDuration_HTML.html#18,18,1440,900,1440,900,8-21-2022,9-0-55,102,depth_duration_stimuli/003495_2014-05-21_16-01-51_094959634447_rgbf000100-resize_3/003495_2014-05-21_16-01-51_094959634447_rgbf000100-resize_3-target.png,125,1.6255,5,4706,123,meters,jsons/VE125_randls_19_rotated.json,774454,950388,25,Woman
102,969341,DepthScenes,duration_manipulation_targetAtFixation,jsons/VE125_randls_19_rotated.json,http://54.235.29.9/FacialAge/BNav_EC2/DepthDuration/v2_depth_duration_MTurk/v2_DepthDuration_HTML.html#18,18,1440,900,1440,900,8-21-2022,9-0-55,103,depth_duration_stimuli/001244_2014-06-17_16-47-45_260595134347_rgbf000030-resize_4/001244_2014-06-17_16-47-45_260595134347_rgbf000030-resize_4-target.png,125,2.0425,10,4092,121,meters,jsons/VE125_randls_19_rotated.json,774454,950388,25,Woman
103,969341,DepthScenes,duration_manipulation_targetAtFixation,jsons/VE125_randls_19_rotated.json,http://54.235.29.9/FacialAge/BNav_EC2/DepthDuration/v2_depth_duration_MTurk/v2_DepthDuration_HTML.html#18,18,1440,900,1440,900,8-21-2022,9-0-55,104,depth_duration_stimuli/002467_2014-06-28_20-38-07_260595134347_rgbf000026-resize_2/002467_2014-06-28_20-38-07_260595134347_rgbf000026-resize_2-target.png,125,4.742,5,2978,123,meters,jsons/VE125_randls_19_rotated.json,774454,950388,25,Woman
104,969341,DepthScenes,duration_manipulation_targetAtFixation,jsons/VE125_randls_19_rotated.json,http://54.235.29.9/FacialAge/BNav_EC2/DepthDuration/v2_depth_duration_MTurk/v2_DepthDuration_HTML.html#18,18,1440,900,1440,900,8-21-2022,9-0-55,105,depth_duration_stimuli/002570_2014-06-24_13-59-54_094959634447_rgbf000059-resize_0/002570_2014-06-24_13-59-54_094959634447_rgbf000059-resize_0-target.png,125,4.037,0,2768,125,meters,jsons/VE125_randls_19_rotated.json,774454,950388,25,Woman
105,969341,DepthScenes,duration_manipulation_targetAtFixation,jsons/VE125_randls_19_rotated.json,http://54.235.29.9/FacialAge/BNav_EC2/DepthDuration/v2_depth_duration_MTurk/v2_DepthDuration_HTML.html#18,18,1440,900,1440,900,8-21-2022,9-0-55,106,depth_duration_stimuli/000457_2014-06-08_16-52-43_260595134347_rgbf000199-resize_1/000457_2014-06-08_16-52-43_260595134347_rgbf000199-resize_1-target.png,125,3.6489999999999996,5,2363,133,meters,jsons/VE125_randls_19_rotated.json,774454,950388,25,Woman
106,969341,DepthScenes,duration_manipulation_targetAtFixation,jsons/VE125_randls_19_rotated.json,http://54.235.29.9/FacialAge/BNav_EC2/DepthDuration/v2_depth_duration_MTurk/v2_DepthDuration_HTML.html#18,18,1440,900,1440,900,8-21-2022,9-0-55,107,depth_duration_stimuli/000929_2014-06-09_16-33-19_260595134347_rgbf000139-resize_0/000929_2014-06-09_16-33-19_260595134347_rgbf000139-resize_0-target.png,125,2.8680000000000003,5,4048,123,meters,jsons/VE125_randls_19_rotated.json,774454,950388,25,Woman
107,969341,DepthScenes,duration_manipulation_targetAtFixation,jsons/VE125_randls_19_rotated.json,http://54.235.29.9/FacialAge/BNav_EC2/DepthDuration/v2_depth_duration_MTurk/v2_DepthDuration_HTML.html#18,18,1440,900,1440,900,8-21-2022,9-0-55,108,depth_duration_stimuli/000691_2014-06-08_13-08-50_260595134347_rgbf000132-resize_3/000691_2014-06-08_13-08-50_260595134347_rgbf000132-resize_3-target.png,125,4.1530000000000005,5,8287,55,meters,jsons/VE125_randls_19_rotated.json,774454,950388,25,Woman
108,969341,DepthScenes,duration_manipulation_targetAtFixation,jsons/VE125_randls_19_rotated.json,http://54.235.29.9/FacialAge/BNav_EC2/DepthDuration/v2_depth_duration_MTurk/v2_DepthDuration_HTML.html#18,18,1440,900,1440,900,8-21-2022,9-0-55,109,depth_duration_stimuli/002213_2014-06-28_18-37-58_260595134347_rgbf000055-resize_1/002213_2014-06-28_18-37-58_260595134347_rgbf000055-resize_1-target.png,125,3.62,0,4277,121,meters,jsons/VE125_randls_19_rotated.json,774454,950388,25,Woman
109,969341,DepthScenes,duration_manipulation_targetAtFixation,jsons/VE125_randls_19_rotated.json,http://54.235.29.9/FacialAge/BNav_EC2/DepthDuration/v2_depth_duration_MTurk/v2_DepthDuration_HTML.html#18,18,1440,900,1440,900,8-21-2022,9-0-55,110,depth_duration_stimuli/001094_2014-06-15_17-36-00_260595134347_rgbf000205-resize_0/001094_2014-06-15_17-36-00_260595134347_rgbf000205-resize_0-target.png,125,4.2175,10,3180,129,meters,jsons/VE125_randls_19_rotated.json,774454,950388,25,Woman
110,969341,DepthScenes,duration_manipulation_targetAtFixation,jsons/VE125_randls_19_rotated.json,http://54.235.29.9/FacialAge/BNav_EC2/DepthDuration/v2_depth_duration_MTurk/v2_DepthDuration_HTML.html#18,18,1440,900,1440,900,8-21-2022,9-0-55,111,depth_duration_stimuli/000692_2014-06-08_13-09-42_260595134347_rgbf000199-resize_2/000692_2014-06-08_13-09-42_260595134347_rgbf000199-resize_2-target.png,125,3.661,5,11213,122,meters,jsons/VE125_randls_19_rotated.json,774454,950388,25,Woman
111,969341,DepthScenes,duration_manipulation_targetAtFixation,jsons/VE125_randls_19_rotated.json,http://54.235.29.9/FacialAge/BNav_EC2/DepthDuration/v2_depth_duration_MTurk/v2_DepthDuration_HTML.html#18,18,1440,900,1440,900,8-21-2022,9-0-55,112,depth_duration_stimuli/001516_2014-06-20_16-25-09_260595134347_rgbf000076-resize_2/001516_2014-06-20_16-25-09_260595134347_rgbf000076-resize_2-target.png,125,1.7445,5,3189,458,meters,jsons/VE125_randls_19_rotated.json,774454,950388,25,Woman
112,969341,DepthScenes,duration_manipulation_targetAtFixation,jsons/VE125_randls_19_rotated.json,http://54.235.29.9/FacialAge/BNav_EC2/DepthDuration/v2_depth_duration_MTurk/v2_DepthDuration_HTML.html#18,18,1440,900,1440,900,8-21-2022,9-0-55,113,depth_duration_stimuli/002118_2014-06-25_20-32-08_260595134347_rgbf000078-resize_1/002118_2014-06-25_20-32-08_260595134347_rgbf000078-resize_1-target.png,125,2.6460000000000004,10,3291,118,meters,jsons/VE125_randls_19_rotated.json,774454,950388,25,Woman
113,969341,DepthScenes,duration_manipulation_targetAtFixation,jsons/VE125_randls_19_rotated.json,http://54.235.29.9/FacialAge/BNav_EC2/DepthDuration/v2_depth_duration_MTurk/v2_DepthDuration_HTML.html#18,18,1440,900,1440,900,8-21-2022,9-0-55,114,depth_duration_stimuli/000927_2014-06-09_16-32-30_260595134347_rgbf000123-resize_3/000927_2014-06-09_16-32-30_260595134347_rgbf000123-resize_3-target.png,125,2.6785,5,6307,119,meters,jsons/VE125_randls_19_rotated.json,774454,950388,25,Woman
114,969341,DepthScenes,duration_manipulation_targetAtFixation,jsons/VE125_randls_19_rotated.json,http://54.235.29.9/FacialAge/BNav_EC2/DepthDuration/v2_depth_duration_MTurk/v2_DepthDuration_HTML.html#18,18,1440,900,1440,900,8-21-2022,9-0-55,115,depth_duration_stimuli/001110_2014-06-15_17-25-28_260595134347_rgbf000150-resize_1/001110_2014-06-15_17-25-28_260595134347_rgbf000150-resize_1-target.png,125,1.7115,5,2880,124,meters,jsons/VE125_randls_19_rotated.json,774454,950388,25,Woman
115,969341,DepthScenes,duration_manipulation_targetAtFixation,jsons/VE125_randls_19_rotated.json,http://54.235.29.9/FacialAge/BNav_EC2/DepthDuration/v2_depth_duration_MTurk/v2_DepthDuration_HTML.html#18,18,1440,900,1440,900,8-21-2022,9-0-55,116,depth_duration_stimuli/001052_2014-06-08_18-24-54_260595134347_rgbf000130-resize_1/001052_2014-06-08_18-24-54_260595134347_rgbf000130-resize_1-target.png,125,4.1045,10,3797,121,meters,jsons/VE125_randls_19_rotated.json,774454,950388,25,Woman
116,969341,DepthScenes,duration_manipulation_targetAtFixation,jsons/VE125_randls_19_rotated.json,http://54.235.29.9/FacialAge/BNav_EC2/DepthDuration/v2_depth_duration_MTurk/v2_DepthDuration_HTML.html#18,18,1440,900,1440,900,8-21-2022,9-0-55,117,depth_duration_stimuli/002988_2014-06-15_12-24-20_094959634447_rgbf000150-resize_1/002988_2014-06-15_12-24-20_094959634447_rgbf000150-resize_1-target.png,125,4.7669999999999995,10,2779,125,meters,jsons/VE125_randls_19_rotated.json,774454,950388,25,Woman
117,969341,DepthScenes,duration_manipulation_targetAtFixation,jsons/VE125_randls_19_rotated.json,http://54.235.29.9/FacialAge/BNav_EC2/DepthDuration/v2_depth_duration_MTurk/v2_DepthDuration_HTML.html#18,18,1440,900,1440,900,8-21-2022,9-0-55,118,depth_duration_stimuli/000780_2014-06-08_22-28-29_260595134347_rgbf000126-resize_1/000780_2014-06-08_22-28-29_260595134347_rgbf000126-resize_1-target.png,125,3.3825,0,4314,51,meters,jsons/VE125_randls_19_rotated.json,774454,950388,25,Woman
118,969341,DepthScenes,duration_manipulation_targetAtFixation,jsons/VE125_randls_19_rotated.json,http://54.235.29.9/FacialAge/BNav_EC2/DepthDuration/v2_depth_duration_MTurk/v2_DepthDuration_HTML.html#18,18,1440,900,1440,900,8-21-2022,9-0-55,119,depth_duration_stimuli/002445_2014-06-28_20-32-16_260595134347_rgbf000029-resize_4/002445_2014-06-28_20-32-16_260595134347_rgbf000029-resize_4-target.png,125,2.5315,5,2872,134,meters,jsons/VE125_randls_19_rotated.json,774454,950388,25,Woman
119,969341,DepthScenes,duration_manipulation_targetAtFixation,jsons/VE125_randls_19_rotated.json,http://54.235.29.9/FacialAge/BNav_EC2/DepthDuration/v2_depth_duration_MTurk/v2_DepthDuration_HTML.html#18,18,1440,900,1440,900,8-21-2022,9-0-55,120,depth_duration_stimuli/000787_2014-06-08_22-33-53_260595134347_rgbf000175-resize_1/000787_2014-06-08_22-33-53_260595134347_rgbf000175-resize-original.jpg,125,4.784,12,3639,83,meters,jsons/VE125_randls_19_rotated.json,774454,950388,25,Woman
120,969341,DepthScenes,duration_manipulation_targetAtFixation,jsons/VE125_randls_19_rotated.json,http://54.235.29.9/FacialAge/BNav_EC2/DepthDuration/v2_depth_duration_MTurk/v2_DepthDuration_HTML.html#18,18,1440,900,1440,900,8-21-2022,9-0-55,121,depth_duration_stimuli/002323_2014-06-28_20-01-54_260595134347_rgbf000051-resize_4/002323_2014-06-28_20-01-54_260595134347_rgbf000051-resize_4-target.png,125,3.7310000000000003,0,2852,0,meters,jsons/VE125_randls_19_rotated.json,774454,950388,25,Woman
121,969341,DepthScenes,duration_manipulation_targetAtFixation,jsons/VE125_randls_19_rotated.json,http://54.235.29.9/FacialAge/BNav_EC2/DepthDuration/v2_depth_duration_MTurk/v2_DepthDuration_HTML.html#18,18,1440,900,1440,900,8-21-2022,9-0-55,122,depth_duration_stimuli/000917_2014-06-09_22-45-29_260595134347_rgbf000149-resize_3/000917_2014-06-09_22-45-29_260595134347_rgbf000149-resize_3-target.png,125,4.1865,5,2458,118,meters,jsons/VE125_randls_19_rotated.json,774454,950388,25,Woman
122,969341,DepthScenes,duration_manipulation_targetAtFixation,jsons/VE125_randls_19_rotated.json,http://54.235.29.9/FacialAge/BNav_EC2/DepthDuration/v2_depth_duration_MTurk/v2_DepthDuration_HTML.html#18,18,1440,900,1440,900,8-21-2022,9-0-55,123,depth_duration_stimuli/002344_2014-06-28_20-06-29_260595134347_rgbf000030-resize_1/002344_2014-06-28_20-06-29_260595134347_rgbf000030-resize_1-target.png,125,1.5795,5,2616,107,meters,jsons/VE125_randls_19_rotated.json,774454,950388,25,Woman
123,969341,DepthScenes,duration_manipulation_targetAtFixation,jsons/VE125_randls_19_rotated.json,http://54.235.29.9/FacialAge/BNav_EC2/DepthDuration/v2_depth_duration_MTurk/v2_DepthDuration_HTML.html#18,18,1440,900,1440,900,8-21-2022,9-0-55,124,depth_duration_stimuli/002725_2014-06-22_11-47-51_094959634447_rgbf000070-resize_1/002725_2014-06-22_11-47-51_094959634447_rgbf000070-resize_1-target.png,125,2.195,5,2383,122,meters,jsons/VE125_randls_19_rotated.json,774454,950388,25,Woman
124,969341,DepthScenes,duration_manipulation_targetAtFixation,jsons/VE125_randls_19_rotated.json,http://54.235.29.9/FacialAge/BNav_EC2/DepthDuration/v2_depth_duration_MTurk/v2_DepthDuration_HTML.html#18,18,1440,900,1440,900,8-21-2022,9-0-55,125,depth_duration_stimuli/002657_2014-06-13_15-29-54_094959634447_rgbf000150-resize_1/002657_2014-06-13_15-29-54_094959634447_rgbf000150-resize_1-target.png,125,4.919,10,2496,119,meters,jsons/VE125_randls_19_rotated.json,774454,950388,25,Woman
125,969341,DepthScenes,duration_manipulation_targetAtFixation,jsons/VE125_randls_19_rotated.json,http://54.235.29.9/FacialAge/BNav_EC2/DepthDuration/v2_depth_duration_MTurk/v2_DepthDuration_HTML.html#18,18,1440,900,1440,900,8-21-2022,9-0-55,126,depth_duration_stimuli/002375_2014-06-28_20-13-44_260595134347_rgbf000032-resize_1/002375_2014-06-28_20-13-44_260595134347_rgbf000032-resize_1-target.png,125,4.0175,5,2152,132,meters,jsons/VE125_randls_19_rotated.json,774454,950388,25,Woman
126,969341,DepthScenes,duration_manipulation_targetAtFixation,jsons/VE125_randls_19_rotated.json,http://54.235.29.9/FacialAge/BNav_EC2/DepthDuration/v2_depth_duration_MTurk/v2_DepthDuration_HTML.html#18,18,1440,900,1440,900,8-21-2022,9-0-55,127,depth_duration_stimuli/002425_2014-06-28_20-27-29_260595134347_rgbf000031-resize_8/002425_2014-06-28_20-27-29_260595134347_rgbf000031-resize_8-target.png,125,3.8960000000000004,5,2511,126,meters,jsons/VE125_randls_19_rotated.json,774454,950388,25,Woman
127,969341,DepthScenes,duration_manipulation_targetAtFixation,jsons/VE125_randls_19_rotated.json,http://54.235.29.9/FacialAge/BNav_EC2/DepthDuration/v2_depth_duration_MTurk/v2_DepthDuration_HTML.html#18,18,1440,900,1440,900,8-21-2022,9-0-55,128,depth_duration_stimuli/000642_2014-06-08_16-59-25_260595134347_rgbf000098-resize_2/000642_2014-06-08_16-59-25_260595134347_rgbf000098-resize_2-target.png,125,2.8815,3,2539,122,meters,jsons/VE125_randls_19_rotated.json,774454,950388,25,Woman
128,969341,DepthScenes,duration_manipulation_targetAtFixation,jsons/VE125_randls_19_rotated.json,http://54.235.29.9/FacialAge/BNav_EC2/DepthDuration/v2_depth_duration_MTurk/v2_DepthDuration_HTML.html#18,18,1440,900,1440,900,8-21-2022,9-0-55,129,depth_duration_stimuli/001617_2014-06-20_11-35-32_260595134347_rgbf000066-resize_1/001617_2014-06-20_11-35-32_260595134347_rgbf000066-resize_1-target.png,125,3.7910000000000004,0,2593,100,meters,jsons/VE125_randls_19_rotated.json,774454,950388,25,Woman
129,969341,DepthScenes,duration_manipulation_targetAtFixation,jsons/VE125_randls_19_rotated.json,http://54.235.29.9/FacialAge/BNav_EC2/DepthDuration/v2_depth_duration_MTurk/v2_DepthDuration_HTML.html#18,18,1440,900,1440,900,8-21-2022,9-0-55,130,depth_duration_stimuli/001806_2014-06-26_20-50-20_260595134347_rgbf000091-resize_1/001806_2014-06-26_20-50-20_260595134347_rgbf000091-resize_1-target.png,125,2.7305,3,2674,122,meters,jsons/VE125_randls_19_rotated.json,774454,950388,25,Woman
130,969341,DepthScenes,duration_manipulation_targetAtFixation,jsons/VE125_randls_19_rotated.json,http://54.235.29.9/FacialAge/BNav_EC2/DepthDuration/v2_depth_duration_MTurk/v2_DepthDuration_HTML.html#18,18,1440,900,1440,900,8-21-2022,9-0-55,131,depth_duration_stimuli/000483_2014-06-09_20-41-45_260595134347_rgbf000116-resize_4/000483_2014-06-09_20-41-45_260595134347_rgbf000116-resize_4-target.png,125,1.337,2,3143,122,meters,jsons/VE125_randls_19_rotated.json,774454,950388,25,Woman
131,969341,DepthScenes,duration_manipulation_targetAtFixation,jsons/VE125_randls_19_rotated.json,http://54.235.29.9/FacialAge/BNav_EC2/DepthDuration/v2_depth_duration_MTurk/v2_DepthDuration_HTML.html#18,18,1440,900,1440,900,8-21-2022,9-0-55,132,depth_duration_stimuli/000469_2014-06-09_19-42-10_260595134347_rgbf000081-resize_1/000469_2014-06-09_19-42-10_260595134347_rgbf000081-resize_1-target.png,125,1.652,5,2720,125,meters,jsons/VE125_randls_19_rotated.json,774454,950388,25,Woman
132,969341,DepthScenes,duration_manipulation_targetAtFixation,jsons/VE125_randls_19_rotated.json,http://54.235.29.9/FacialAge/BNav_EC2/DepthDuration/v2_depth_duration_MTurk/v2_DepthDuration_HTML.html#18,18,1440,900,1440,900,8-21-2022,9-0-55,133,depth_duration_stimuli/002545_2014-06-24_13-38-53_094959634447_rgbf000080-resize_4/002545_2014-06-24_13-38-53_094959634447_rgbf000080-resize_4-target.png,125,1.9205,5,3861,143,meters,jsons/VE125_randls_19_rotated.json,774454,950388,25,Woman
133,969341,DepthScenes,duration_manipulation_targetAtFixation,jsons/VE125_randls_19_rotated.json,http://54.235.29.9/FacialAge/BNav_EC2/DepthDuration/v2_depth_duration_MTurk/v2_DepthDuration_HTML.html#18,18,1440,900,1440,900,8-21-2022,9-0-55,134,depth_duration_stimuli/001092_2014-06-15_17-34-58_260595134347_rgbf000171-resize_3/001092_2014-06-15_17-34-58_260595134347_rgbf000171-resize_3-target.png,125,2.6935,5,3442,17,meters,jsons/VE125_randls_19_rotated.json,774454,950388,25,Woman
134,969341,DepthScenes,duration_manipulation_targetAtFixation,jsons/VE125_randls_19_rotated.json,http://54.235.29.9/FacialAge/BNav_EC2/DepthDuration/v2_depth_duration_MTurk/v2_DepthDuration_HTML.html#18,18,1440,900,1440,900,8-21-2022,9-0-55,135,depth_duration_stimuli/000375_2014-06-08_11-17-29_260595134347_rgbf000133-resize_2/000375_2014-06-08_11-17-29_260595134347_rgbf000133-resize-original.jpg,125,4.718,10,2920,126,meters,jsons/VE125_randls_19_rotated.json,774454,950388,25,Woman
135,969341,DepthScenes,duration_manipulation_targetAtFixation,jsons/VE125_randls_19_rotated.json,http://54.235.29.9/FacialAge/BNav_EC2/DepthDuration/v2_depth_duration_MTurk/v2_DepthDuration_HTML.html#18,18,1440,900,1440,900,8-21-2022,9-0-55,136,depth_duration_stimuli/003423_2014-05-21_10-23-26_094959634447_rgbf002665-resize_2/003423_2014-05-21_10-23-26_094959634447_rgbf002665-resize_2-target.png,125,3.2575,5,3380,121,meters,jsons/VE125_randls_19_rotated.json,774454,950388,25,Woman
136,969341,DepthScenes,duration_manipulation_targetAtFixation,jsons/VE125_randls_19_rotated.json,http://54.235.29.9/FacialAge/BNav_EC2/DepthDuration/v2_depth_duration_MTurk/v2_DepthDuration_HTML.html#18,18,1440,900,1440,900,8-21-2022,9-0-55,137,depth_duration_stimuli/002905_2014-06-03_18-04-43_094959634447_rgbf000151-resize_2/002905_2014-06-03_18-04-43_094959634447_rgbf000151-resize_2-target.png,125,2.0295,3,3131,113,meters,jsons/VE125_randls_19_rotated.json,774454,950388,25,Woman
137,969341,DepthScenes,duration_manipulation_targetAtFixation,jsons/VE125_randls_19_rotated.json,http://54.235.29.9/FacialAge/BNav_EC2/DepthDuration/v2_depth_duration_MTurk/v2_DepthDuration_HTML.html#18,18,1440,900,1440,900,8-21-2022,9-0-55,138,depth_duration_stimuli/002637_2014-06-24_14-51-13_094959634447_rgbf000066-resize_4/002637_2014-06-24_14-51-13_094959634447_rgbf000066-resize_4-target.png,125,1.9955,5,2721,125,meters,jsons/VE125_randls_19_rotated.json,774454,950388,25,Woman
138,969341,DepthScenes,duration_manipulation_targetAtFixation,jsons/VE125_randls_19_rotated.json,http://54.235.29.9/FacialAge/BNav_EC2/DepthDuration/v2_depth_duration_MTurk/v2_DepthDuration_HTML.html#18,18,1440,900,1440,900,8-21-2022,9-0-55,139,depth_duration_stimuli/003534_2014-05-22_15-06-10_094959634447_rgbf000102-resize_4/003534_2014-05-22_15-06-10_094959634447_rgbf000102-resize_4-target.png,125,1.426,2,4179,139,meters,jsons/VE125_randls_19_rotated.json,774454,950388,25,Woman
139,969341,DepthScenes,duration_manipulation_targetAtFixation,jsons/VE125_randls_19_rotated.json,http://54.235.29.9/FacialAge/BNav_EC2/DepthDuration/v2_depth_duration_MTurk/v2_DepthDuration_HTML.html#18,18,1440,900,1440,900,8-21-2022,9-0-55,140,depth_duration_stimuli/003010_2014-06-15_12-54-35_094959634447_rgbf000112-resize_0/003010_2014-06-15_12-54-35_094959634447_rgbf000112-resize_0-target.png,125,3.1185,8,2856,118,meters,jsons/VE125_randls_19_rotated.json,774454,950388,25,Woman
140,969341,DepthScenes,duration_manipulation_targetAtFixation,jsons/VE125_randls_19_rotated.json,http://54.235.29.9/FacialAge/BNav_EC2/DepthDuration/v2_depth_duration_MTurk/v2_DepthDuration_HTML.html#18,18,1440,900,1440,900,8-21-2022,9-0-55,141,depth_duration_stimuli/001810_2014-06-26_20-51-35_260595134347_rgbf000040-resize_3/001810_2014-06-26_20-51-35_260595134347_rgbf000040-resize_3-target.png,125,2.2525,3,2946,160,meters,jsons/VE125_randls_19_rotated.json,774454,950388,25,Woman
141,969341,DepthScenes,duration_manipulation_targetAtFixation,jsons/VE125_randls_19_rotated.json,http://54.235.29.9/FacialAge/BNav_EC2/DepthDuration/v2_depth_duration_MTurk/v2_DepthDuration_HTML.html#18,18,1440,900,1440,900,8-21-2022,9-0-55,142,depth_duration_stimuli/002805_2014-06-22_19-54-03_094959634447_rgbf000079-resize_1/002805_2014-06-22_19-54-03_094959634447_rgbf000079-resize_1-target.png,125,3.1439999999999997,8,2510,132,meters,jsons/VE125_randls_19_rotated.json,774454,950388,25,Woman
142,969341,DepthScenes,duration_manipulation_targetAtFixation,jsons/VE125_randls_19_rotated.json,http://54.235.29.9/FacialAge/BNav_EC2/DepthDuration/v2_depth_duration_MTurk/v2_DepthDuration_HTML.html#18,18,1440,900,1440,900,8-21-2022,9-0-55,143,depth_duration_stimuli/000906_2014-06-08_13-35-43_260595134347_rgbf000155-resize_1/000906_2014-06-08_13-35-43_260595134347_rgbf000155-resize_1-target.png,125,2.8489999999999998,9,3242,127,meters,jsons/VE125_randls_19_rotated.json,774454,950388,25,Woman
143,969341,DepthScenes,duration_manipulation_targetAtFixation,jsons/VE125_randls_19_rotated.json,http://54.235.29.9/FacialAge/BNav_EC2/DepthDuration/v2_depth_duration_MTurk/v2_DepthDuration_HTML.html#18,18,1440,900,1440,900,8-21-2022,9-0-55,144,depth_duration_stimuli/000665_2014-06-09_20-42-35_260595134347_rgbf000110-resize_1/000665_2014-06-09_20-42-35_260595134347_rgbf000110-resize_1-target.png,125,3.057,5,2697,121,meters,jsons/VE125_randls_19_rotated.json,774454,950388,25,Woman
144,969341,DepthScenes,duration_manipulation_targetAtFixation,jsons/VE125_randls_19_rotated.json,http://54.235.29.9/FacialAge/BNav_EC2/DepthDuration/v2_depth_duration_MTurk/v2_DepthDuration_HTML.html#18,18,1440,900,1440,900,8-21-2022,9-0-55,145,depth_duration_stimuli/001150_2014-06-17_15-27-34_260595134347_rgbf000108-resize_2/001150_2014-06-17_15-27-34_260595134347_rgbf000108-resize_2-target.png,125,4.0325,5,2215,87,meters,jsons/VE125_randls_19_rotated.json,774454,950388,25,Woman
145,969341,DepthScenes,duration_manipulation_targetAtFixation,jsons/VE125_randls_19_rotated.json,http://54.235.29.9/FacialAge/BNav_EC2/DepthDuration/v2_depth_duration_MTurk/v2_DepthDuration_HTML.html#18,18,1440,900,1440,900,8-21-2022,9-0-55,146,depth_duration_stimuli/001571_2014-06-20_17-21-32_260595134347_rgbf000089-resize_1/001571_2014-06-20_17-21-32_260595134347_rgbf000089-resize_1-target.png,125,1.86,2,2298,114,meters,jsons/VE125_randls_19_rotated.json,774454,950388,25,Woman
146,969341,DepthScenes,duration_manipulation_targetAtFixation,jsons/VE125_randls_19_rotated.json,http://54.235.29.9/FacialAge/BNav_EC2/DepthDuration/v2_depth_duration_MTurk/v2_DepthDuration_HTML.html#18,18,1440,900,1440,900,8-21-2022,9-0-55,147,depth_duration_stimuli/002272_2014-06-28_18-53-56_260595134347_rgbf000067-resize_2/002272_2014-06-28_18-53-56_260595134347_rgbf000067-resize_2-target.png,125,1.138,3,3226,122,meters,jsons/VE125_randls_19_rotated.json,774454,950388,25,Woman
147,969341,DepthScenes,duration_manipulation_targetAtFixation,jsons/VE125_randls_19_rotated.json,http://54.235.29.9/FacialAge/BNav_EC2/DepthDuration/v2_depth_duration_MTurk/v2_DepthDuration_HTML.html#18,18,1440,900,1440,900,8-21-2022,9-0-55,148,depth_duration_stimuli/001815_2014-06-26_20-52-55_260595134347_rgbf000020-resize_0/001815_2014-06-26_20-52-55_260595134347_rgbf000020-resize_0-target.png,125,3.3865,2,5325,113,meters,jsons/VE125_randls_19_rotated.json,774454,950388,25,Woman
148,969341,DepthScenes,duration_manipulation_targetAtFixation,jsons/VE125_randls_19_rotated.json,http://54.235.29.9/FacialAge/BNav_EC2/DepthDuration/v2_depth_duration_MTurk/v2_DepthDuration_HTML.html#18,18,1440,900,1440,900,8-21-2022,9-0-55,149,depth_duration_stimuli/001808_2014-06-26_20-50-58_260595134347_rgbf000029-resize_1/001808_2014-06-26_20-50-58_260595134347_rgbf000029-resize_1-target.png,125,4.249,0,5122,0,meters,jsons/VE125_randls_19_rotated.json,774454,950388,25,Woman
149,969341,DepthScenes,duration_manipulation_targetAtFixation,jsons/VE125_randls_19_rotated.json,http://54.235.29.9/FacialAge/BNav_EC2/DepthDuration/v2_depth_duration_MTurk/v2_DepthDuration_HTML.html#18,18,1440,900,1440,900,8-21-2022,9-0-55,150,depth_duration_stimuli/002758_2014-06-22_19-11-20_094959634447_rgbf000128-resize_1/002758_2014-06-22_19-11-20_094959634447_rgbf000128-resize_1-target.png,125,2.555,3,3392,168,meters,jsons/VE125_randls_19_rotated.json,774454,950388,25,Woman
150,969341,DepthScenes,duration_manipulation_targetAtFixation,jsons/VE125_randls_19_rotated.json,http://54.235.29.9/FacialAge/BNav_EC2/DepthDuration/v2_depth_duration_MTurk/v2_DepthDuration_HTML.html#18,18,1440,900,1440,900,8-21-2022,9-0-55,151,depth_duration_stimuli/002630_2014-06-24_14-47-50_094959634447_rgbf000055-resize_1/002630_2014-06-24_14-47-50_094959634447_rgbf000055-resize_1-target.png,125,3.0095,5,2446,111,meters,jsons/VE125_randls_19_rotated.json,774454,950388,25,Woman
151,969341,DepthScenes,duration_manipulation_targetAtFixation,jsons/VE125_randls_19_rotated.json,http://54.235.29.9/FacialAge/BNav_EC2/DepthDuration/v2_depth_duration_MTurk/v2_DepthDuration_HTML.html#18,18,1440,900,1440,900,8-21-2022,9-0-55,152,depth_duration_stimuli/000569_2014-06-09_22-51-47_260595134347_rgbf000141-resize_3/000569_2014-06-09_22-51-47_260595134347_rgbf000141-resize-original.jpg,125,4.512,5,3588,126,meters,jsons/VE125_randls_19_rotated.json,774454,950388,25,Woman
152,969341,DepthScenes,duration_manipulation_targetAtFixation,jsons/VE125_randls_19_rotated.json,http://54.235.29.9/FacialAge/BNav_EC2/DepthDuration/v2_depth_duration_MTurk/v2_DepthDuration_HTML.html#18,18,1440,900,1440,900,8-21-2022,9-0-55,153,depth_duration_stimuli/000677_2014-06-08_23-10-32_260595134347_rgbf000158-resize_6/000677_2014-06-08_23-10-32_260595134347_rgbf000158-resize_6-target.png,125,3.556,8,2568,130,meters,jsons/VE125_randls_19_rotated.json,774454,950388,25,Woman
153,969341,DepthScenes,duration_manipulation_targetAtFixation,jsons/VE125_randls_19_rotated.json,http://54.235.29.9/FacialAge/BNav_EC2/DepthDuration/v2_depth_duration_MTurk/v2_DepthDuration_HTML.html#18,18,1440,900,1440,900,8-21-2022,9-0-55,154,depth_duration_stimuli/001029_2014-06-08_13-17-57_260595134347_rgbf000065-resize_1/001029_2014-06-08_13-17-57_260595134347_rgbf000065-resize_1-target.png,125,3.0835,8,4770,122,meters,jsons/VE125_randls_19_rotated.json,774454,950388,25,Woman
154,969341,DepthScenes,duration_manipulation_targetAtFixation,jsons/VE125_randls_19_rotated.json,http://54.235.29.9/FacialAge/BNav_EC2/DepthDuration/v2_depth_duration_MTurk/v2_DepthDuration_HTML.html#18,18,1440,900,1440,900,8-21-2022,9-0-55,155,depth_duration_stimuli/000109_2014-05-14_23-41-52_260595134347_rgbf000035-resize_9/000109_2014-05-14_23-41-52_260595134347_rgbf000035-resize_9-target.png,125,1.3545,2,2406,124,meters,jsons/VE125_randls_19_rotated.json,774454,950388,25,Woman
155,969341,DepthScenes,duration_manipulation_targetAtFixation,jsons/VE125_randls_19_rotated.json,http://54.235.29.9/FacialAge/BNav_EC2/DepthDuration/v2_depth_duration_MTurk/v2_DepthDuration_HTML.html#18,18,1440,900,1440,900,8-21-2022,9-0-55,156,depth_duration_stimuli/000470_2014-06-09_19-42-40_260595134347_rgbf000094-resize_1/000470_2014-06-09_19-42-40_260595134347_rgbf000094-resize_1-target.png,125,1.831,3,3712,109,meters,jsons/VE125_randls_19_rotated.json,774454,950388,25,Woman
156,969341,DepthScenes,duration_manipulation_targetAtFixation,jsons/VE125_randls_19_rotated.json,http://54.235.29.9/FacialAge/BNav_EC2/DepthDuration/v2_depth_duration_MTurk/v2_DepthDuration_HTML.html#18,18,1440,900,1440,900,8-21-2022,9-0-55,157,depth_duration_stimuli/000191_2014-05-12_17-07-38_260595134347_rgbf000199-resize_0/000191_2014-05-12_17-07-38_260595134347_rgbf000199-resize_0-target.png,125,3.7995,8,2863,142,meters,jsons/VE125_randls_19_rotated.json,774454,950388,25,Woman
157,969341,DepthScenes,duration_manipulation_targetAtFixation,jsons/VE125_randls_19_rotated.json,http://54.235.29.9/FacialAge/BNav_EC2/DepthDuration/v2_depth_duration_MTurk/v2_DepthDuration_HTML.html#18,18,1440,900,1440,900,8-21-2022,9-0-55,158,depth_duration_stimuli/000493_2014-06-09_21-01-18_260595134347_rgbf000196-resize_3/000493_2014-06-09_21-01-18_260595134347_rgbf000196-resize_3-target.png,125,3.44,5,2553,120,meters,jsons/VE125_randls_19_rotated.json,774454,950388,25,Woman
158,969341,DepthScenes,duration_manipulation_targetAtFixation,jsons/VE125_randls_19_rotated.json,http://54.235.29.9/FacialAge/BNav_EC2/DepthDuration/v2_depth_duration_MTurk/v2_DepthDuration_HTML.html#18,18,1440,900,1440,900,8-21-2022,9-0-55,159,depth_duration_stimuli/002660_2014-06-13_15-44-18_094959634447_rgbf001878-resize_2/002660_2014-06-13_15-44-18_094959634447_rgbf001878-resize_2-target.png,125,3.576,4,2710,125,meters,jsons/VE125_randls_19_rotated.json,774454,950388,25,Woman
159,969341,DepthScenes,duration_manipulation_targetAtFixation,jsons/VE125_randls_19_rotated.json,http://54.235.29.9/FacialAge/BNav_EC2/DepthDuration/v2_depth_duration_MTurk/v2_DepthDuration_HTML.html#18,18,1440,900,1440,900,8-21-2022,9-0-55,160,depth_duration_stimuli/002153_2014-06-25_21-27-18_260595134347_rgbf000038-resize_5/002153_2014-06-25_21-27-18_260595134347_rgbf000038-resize_5-target.png,125,2.505,3,4033,117,meters,jsons/VE125_randls_19_rotated.json,774454,950388,25,Woman
160,969341,DepthScenes,duration_manipulation_targetAtFixation,jsons/VE125_randls_19_rotated.json,http://54.235.29.9/FacialAge/BNav_EC2/DepthDuration/v2_depth_duration_MTurk/v2_DepthDuration_HTML.html#18,18,1440,900,1440,900,8-21-2022,9-0-55,161,depth_duration_stimuli/002639_2014-06-24_14-51-37_094959634447_rgbf000074-resize_4/002639_2014-06-24_14-51-37_094959634447_rgbf000074-resize_4-target.png,125,4.0375,10,3606,120,meters,jsons/VE125_randls_19_rotated.json,774454,950388,25,Woman
161,969341,DepthScenes,duration_manipulation_targetAtFixation,jsons/VE125_randls_19_rotated.json,http://54.235.29.9/FacialAge/BNav_EC2/DepthDuration/v2_depth_duration_MTurk/v2_DepthDuration_HTML.html#18,18,1440,900,1440,900,8-21-2022,9-0-55,162,depth_duration_stimuli/003292_2014-05-14_21-53-49_094959634447_rgbf000100-resize_2/003292_2014-05-14_21-53-49_094959634447_rgbf000100-resize_2-target.png,125,3.4815,10,2595,111,meters,jsons/VE125_randls_19_rotated.json,774454,950388,25,Woman
162,969341,DepthScenes,duration_manipulation_targetAtFixation,jsons/VE125_randls_19_rotated.json,http://54.235.29.9/FacialAge/BNav_EC2/DepthDuration/v2_depth_duration_MTurk/v2_DepthDuration_HTML.html#18,18,1440,900,1440,900,8-21-2022,9-0-55,163,depth_duration_stimuli/002103_2014-06-25_20-00-40_260595134347_rgbf000049-resize_0/002103_2014-06-25_20-00-40_260595134347_rgbf000049-resize_0-target.png,125,4.105,12,2981,123,meters,jsons/VE125_randls_19_rotated.json,774454,950388,25,Woman
163,969341,DepthScenes,duration_manipulation_targetAtFixation,jsons/VE125_randls_19_rotated.json,http://54.235.29.9/FacialAge/BNav_EC2/DepthDuration/v2_depth_duration_MTurk/v2_DepthDuration_HTML.html#18,18,1440,900,1440,900,8-21-2022,9-0-55,164,depth_duration_stimuli/002039_2014-06-24_20-22-38_260595134347_rgbf000084-resize_1/002039_2014-06-24_20-22-38_260595134347_rgbf000084-resize_1-target.png,125,4.408,15,3018,121,meters,jsons/VE125_randls_19_rotated.json,774454,950388,25,Woman
