,subjID,experimentName,versionName,sequenceName,url,selected_row,windowWidth,windowHeight,screenWidth,screenHeight,startDate,startTime,trial,stimulus,duration,actual_depth,depth_estimate,trial_RT,log_sceneDuration,unitSelection,seq_filepath,experimentTime,totalTime,age,gender
0,970492,DepthScenes,duration_manipulation_targetAtFixation,jsons/VE125_randls_42.json,http://54.235.29.9/FacialAge/BNav_EC2/DepthDuration/v2_depth_duration_MTurk/v2_DepthDuration_HTML.html#28,28,1280,881,1280,1024,9-3-2022,11-27-0,1,depth_duration_stimuli/000758_2014-06-08_22-05-08_260595134347_rgbf000085-resize_0/000758_2014-06-08_22-05-08_260595134347_rgbf000085-resize_0-target.png,125,3.3810000000000002,3,3685,125,feet,jsons/VE125_randls_42.json,745600,844656,52,Man
1,970492,DepthScenes,duration_manipulation_targetAtFixation,jsons/VE125_randls_42.json,http://54.235.29.9/FacialAge/BNav_EC2/DepthDuration/v2_depth_duration_MTurk/v2_DepthDuration_HTML.html#28,28,1280,881,1280,1024,9-3-2022,11-27-0,2,depth_duration_stimuli/000854_2014-06-09_19-43-13_260595134347_rgbf000066-resize_0/000854_2014-06-09_19-43-13_260595134347_rgbf000066-resize_0-target.png,125,3.068,0,3860,125,feet,jsons/VE125_randls_42.json,745600,844656,52,Man
2,970492,DepthScenes,duration_manipulation_targetAtFixation,jsons/VE125_randls_42.json,http://54.235.29.9/FacialAge/BNav_EC2/DepthDuration/v2_depth_duration_MTurk/v2_DepthDuration_HTML.html#28,28,1280,881,1280,1024,9-3-2022,11-27-0,3,depth_duration_stimuli/002600_2014-06-24_14-27-04_094959634447_rgbf000074-resize_2/002600_2014-06-24_14-27-04_094959634447_rgbf000074-resize_2-target.png,125,2.7575,2,3285,126,feet,jsons/VE125_randls_42.json,745600,844656,52,Man
3,970492,DepthScenes,duration_manipulation_targetAtFixation,jsons/VE125_randls_42.json,http://54.235.29.9/FacialAge/BNav_EC2/DepthDuration/v2_depth_duration_MTurk/v2_DepthDuration_HTML.html#28,28,1280,881,1280,1024,9-3-2022,11-27-0,4,depth_duration_stimuli/003228_2014-05-14_13-42-35_094959634447_rgbf000101-resize_1/003228_2014-05-14_13-42-35_094959634447_rgbf000101-resize_1-target.png,125,1.9680000000000002,0,3353,125,feet,jsons/VE125_randls_42.json,745600,844656,52,Man
4,970492,DepthScenes,duration_manipulation_targetAtFixation,jsons/VE125_randls_42.json,http://54.235.29.9/FacialAge/BNav_EC2/DepthDuration/v2_depth_duration_MTurk/v2_DepthDuration_HTML.html#28,28,1280,881,1280,1024,9-3-2022,11-27-0,5,depth_duration_stimuli/000682_2014-06-08_23-14-58_260595134347_rgbf000041-resize_5/000682_2014-06-08_23-14-58_260595134347_rgbf000041-resize_5-target.png,125,2.7239999999999998,3,3899,123,feet,jsons/VE125_randls_42.json,745600,844656,52,Man
5,970492,DepthScenes,duration_manipulation_targetAtFixation,jsons/VE125_randls_42.json,http://54.235.29.9/FacialAge/BNav_EC2/DepthDuration/v2_depth_duration_MTurk/v2_DepthDuration_HTML.html#28,28,1280,881,1280,1024,9-3-2022,11-27-0,6,depth_duration_stimuli/001650_2014-06-20_12-09-00_260595134347_rgbf000087-resize_3/001650_2014-06-20_12-09-00_260595134347_rgbf000087-resize_3-target.png,125,1.9505,2,3276,126,feet,jsons/VE125_randls_42.json,745600,844656,52,Man
6,970492,DepthScenes,duration_manipulation_targetAtFixation,jsons/VE125_randls_42.json,http://54.235.29.9/FacialAge/BNav_EC2/DepthDuration/v2_depth_duration_MTurk/v2_DepthDuration_HTML.html#28,28,1280,881,1280,1024,9-3-2022,11-27-0,7,depth_duration_stimuli/002272_2014-06-28_18-53-56_260595134347_rgbf000067-resize_2/002272_2014-06-28_18-53-56_260595134347_rgbf000067-resize_2-target.png,125,1.138,1,3267,125,feet,jsons/VE125_randls_42.json,745600,844656,52,Man
7,970492,DepthScenes,duration_manipulation_targetAtFixation,jsons/VE125_randls_42.json,http://54.235.29.9/FacialAge/BNav_EC2/DepthDuration/v2_depth_duration_MTurk/v2_DepthDuration_HTML.html#28,28,1280,881,1280,1024,9-3-2022,11-27-0,8,depth_duration_stimuli/001571_2014-06-20_17-21-32_260595134347_rgbf000089-resize_1/001571_2014-06-20_17-21-32_260595134347_rgbf000089-resize_1-target.png,125,1.86,2,2642,125,feet,jsons/VE125_randls_42.json,745600,844656,52,Man
8,970492,DepthScenes,duration_manipulation_targetAtFixation,jsons/VE125_randls_42.json,http://54.235.29.9/FacialAge/BNav_EC2/DepthDuration/v2_depth_duration_MTurk/v2_DepthDuration_HTML.html#28,28,1280,881,1280,1024,9-3-2022,11-27-0,9,depth_duration_stimuli/002375_2014-06-28_20-13-44_260595134347_rgbf000032-resize_1/002375_2014-06-28_20-13-44_260595134347_rgbf000032-resize_1-target.png,125,4.0175,2,2763,124,feet,jsons/VE125_randls_42.json,745600,844656,52,Man
9,970492,DepthScenes,duration_manipulation_targetAtFixation,jsons/VE125_randls_42.json,http://54.235.29.9/FacialAge/BNav_EC2/DepthDuration/v2_depth_duration_MTurk/v2_DepthDuration_HTML.html#28,28,1280,881,1280,1024,9-3-2022,11-27-0,10,depth_duration_stimuli/002657_2014-06-13_15-29-54_094959634447_rgbf000150-resize_1/002657_2014-06-13_15-29-54_094959634447_rgbf000150-resize_1-target.png,125,4.919,0,6419,124,feet,jsons/VE125_randls_42.json,745600,844656,52,Man
10,970492,DepthScenes,duration_manipulation_targetAtFixation,jsons/VE125_randls_42.json,http://54.235.29.9/FacialAge/BNav_EC2/DepthDuration/v2_depth_duration_MTurk/v2_DepthDuration_HTML.html#28,28,1280,881,1280,1024,9-3-2022,11-27-0,11,depth_duration_stimuli/002989_2014-06-15_12-25-03_094959634447_rgbf000150-resize_3/002989_2014-06-15_12-25-03_094959634447_rgbf000150-resize_3-target.png,125,4.1975,0,4399,124,feet,jsons/VE125_randls_42.json,745600,844656,52,Man
11,970492,DepthScenes,duration_manipulation_targetAtFixation,jsons/VE125_randls_42.json,http://54.235.29.9/FacialAge/BNav_EC2/DepthDuration/v2_depth_duration_MTurk/v2_DepthDuration_HTML.html#28,28,1280,881,1280,1024,9-3-2022,11-27-0,12,depth_duration_stimuli/000866_2014-06-09_20-45-42_260595134347_rgbf000139-resize_1/000866_2014-06-09_20-45-42_260595134347_rgbf000139-resize_1-target.png,125,3.2155,2,3059,124,feet,jsons/VE125_randls_42.json,745600,844656,52,Man
12,970492,DepthScenes,duration_manipulation_targetAtFixation,jsons/VE125_randls_42.json,http://54.235.29.9/FacialAge/BNav_EC2/DepthDuration/v2_depth_duration_MTurk/v2_DepthDuration_HTML.html#28,28,1280,881,1280,1024,9-3-2022,11-27-0,13,depth_duration_stimuli/000569_2014-06-09_22-51-47_260595134347_rgbf000141-resize_3/000569_2014-06-09_22-51-47_260595134347_rgbf000141-resize-original.jpg,125,4.512,2,3273,125,feet,jsons/VE125_randls_42.json,745600,844656,52,Man
13,970492,DepthScenes,duration_manipulation_targetAtFixation,jsons/VE125_randls_42.json,http://54.235.29.9/FacialAge/BNav_EC2/DepthDuration/v2_depth_duration_MTurk/v2_DepthDuration_HTML.html#28,28,1280,881,1280,1024,9-3-2022,11-27-0,14,depth_duration_stimuli/002057_2014-06-24_21-00-13_260595134347_rgbf000120-resize_1/002057_2014-06-24_21-00-13_260595134347_rgbf000120-resize_1-target.png,125,2.967,3,3131,125,feet,jsons/VE125_randls_42.json,745600,844656,52,Man
14,970492,DepthScenes,duration_manipulation_targetAtFixation,jsons/VE125_randls_42.json,http://54.235.29.9/FacialAge/BNav_EC2/DepthDuration/v2_depth_duration_MTurk/v2_DepthDuration_HTML.html#28,28,1280,881,1280,1024,9-3-2022,11-27-0,15,depth_duration_stimuli/000709_2014-06-08_13-51-55_260595134347_rgbf000068-resize_3/000709_2014-06-08_13-51-55_260595134347_rgbf000068-resize_3-target.png,125,1.8030000000000002,0,3695,124,feet,jsons/VE125_randls_42.json,745600,844656,52,Man
15,970492,DepthScenes,duration_manipulation_targetAtFixation,jsons/VE125_randls_42.json,http://54.235.29.9/FacialAge/BNav_EC2/DepthDuration/v2_depth_duration_MTurk/v2_DepthDuration_HTML.html#28,28,1280,881,1280,1024,9-3-2022,11-27-0,16,depth_duration_stimuli/001555_2014-06-20_17-12-10_260595134347_rgbf000065-resize_4/001555_2014-06-20_17-12-10_260595134347_rgbf000065-resize_4-target.png,125,1.633,1,3374,124,feet,jsons/VE125_randls_42.json,745600,844656,52,Man
16,970492,DepthScenes,duration_manipulation_targetAtFixation,jsons/VE125_randls_42.json,http://54.235.29.9/FacialAge/BNav_EC2/DepthDuration/v2_depth_duration_MTurk/v2_DepthDuration_HTML.html#28,28,1280,881,1280,1024,9-3-2022,11-27-0,17,depth_duration_stimuli/000103_2014-05-14_22-01-17_260595134347_rgbf000152-resize_5/000103_2014-05-14_22-01-17_260595134347_rgbf000152-resize_5-target.png,125,1.993,2,2779,125,feet,jsons/VE125_randls_42.json,745600,844656,52,Man
17,970492,DepthScenes,duration_manipulation_targetAtFixation,jsons/VE125_randls_42.json,http://54.235.29.9/FacialAge/BNav_EC2/DepthDuration/v2_depth_duration_MTurk/v2_DepthDuration_HTML.html#28,28,1280,881,1280,1024,9-3-2022,11-27-0,18,depth_duration_stimuli/001164_2014-06-17_15-35-46_260595134347_rgbf000085-resize_3/001164_2014-06-17_15-35-46_260595134347_rgbf000085-resize_3-target.png,125,2.354,2,2587,126,feet,jsons/VE125_randls_42.json,745600,844656,52,Man
18,970492,DepthScenes,duration_manipulation_targetAtFixation,jsons/VE125_randls_42.json,http://54.235.29.9/FacialAge/BNav_EC2/DepthDuration/v2_depth_duration_MTurk/v2_DepthDuration_HTML.html#28,28,1280,881,1280,1024,9-3-2022,11-27-0,19,depth_duration_stimuli/001136_2014-06-17_15-19-41_260595134347_rgbf000076-resize_3/001136_2014-06-17_15-19-41_260595134347_rgbf000076-resize_3-target.png,125,1.8655,0,3088,125,feet,jsons/VE125_randls_42.json,745600,844656,52,Man
19,970492,DepthScenes,duration_manipulation_targetAtFixation,jsons/VE125_randls_42.json,http://54.235.29.9/FacialAge/BNav_EC2/DepthDuration/v2_depth_duration_MTurk/v2_DepthDuration_HTML.html#28,28,1280,881,1280,1024,9-3-2022,11-27-0,20,depth_duration_stimuli/001158_2014-06-17_15-32-16_260595134347_rgbf000138-resize_2/001158_2014-06-17_15-32-16_260595134347_rgbf000138-resize_2-target.png,125,4.5315,3,2921,125,feet,jsons/VE125_randls_42.json,745600,844656,52,Man
20,970492,DepthScenes,duration_manipulation_targetAtFixation,jsons/VE125_randls_42.json,http://54.235.29.9/FacialAge/BNav_EC2/DepthDuration/v2_depth_duration_MTurk/v2_DepthDuration_HTML.html#28,28,1280,881,1280,1024,9-3-2022,11-27-0,21,depth_duration_stimuli/000556_2014-06-09_22-42-56_260595134347_rgbf000214-resize_1/000556_2014-06-09_22-42-56_260595134347_rgbf000214-resize_1-target.png,125,4.8415,0,2977,124,feet,jsons/VE125_randls_42.json,745600,844656,52,Man
21,970492,DepthScenes,duration_manipulation_targetAtFixation,jsons/VE125_randls_42.json,http://54.235.29.9/FacialAge/BNav_EC2/DepthDuration/v2_depth_duration_MTurk/v2_DepthDuration_HTML.html#28,28,1280,881,1280,1024,9-3-2022,11-27-0,22,depth_duration_stimuli/002509_2014-06-24_13-19-22_094959634447_rgbf000077-resize_0/002509_2014-06-24_13-19-22_094959634447_rgbf000077-resize_0-target.png,125,1.3065,1,3308,125,feet,jsons/VE125_randls_42.json,745600,844656,52,Man
22,970492,DepthScenes,duration_manipulation_targetAtFixation,jsons/VE125_randls_42.json,http://54.235.29.9/FacialAge/BNav_EC2/DepthDuration/v2_depth_duration_MTurk/v2_DepthDuration_HTML.html#28,28,1280,881,1280,1024,9-3-2022,11-27-0,23,depth_duration_stimuli/003338_2014-05-20_11-01-23_094959634447_rgbf000051-resize_6/003338_2014-05-20_11-01-23_094959634447_rgbf000051-resize_6-target.png,125,1.693,0,20540,123,feet,jsons/VE125_randls_42.json,745600,844656,52,Man
23,970492,DepthScenes,duration_manipulation_targetAtFixation,jsons/VE125_randls_42.json,http://54.235.29.9/FacialAge/BNav_EC2/DepthDuration/v2_depth_duration_MTurk/v2_DepthDuration_HTML.html#28,28,1280,881,1280,1024,9-3-2022,11-27-0,24,depth_duration_stimuli/001244_2014-06-17_16-47-45_260595134347_rgbf000030-resize_4/001244_2014-06-17_16-47-45_260595134347_rgbf000030-resize_4-target.png,125,2.0425,2,3249,125,feet,jsons/VE125_randls_42.json,745600,844656,52,Man
24,970492,DepthScenes,duration_manipulation_targetAtFixation,jsons/VE125_randls_42.json,http://54.235.29.9/FacialAge/BNav_EC2/DepthDuration/v2_depth_duration_MTurk/v2_DepthDuration_HTML.html#28,28,1280,881,1280,1024,9-3-2022,11-27-0,25,depth_duration_stimuli/003495_2014-05-21_16-01-51_094959634447_rgbf000100-resize_3/003495_2014-05-21_16-01-51_094959634447_rgbf000100-resize_3-target.png,125,1.6255,0,3587,124,feet,jsons/VE125_randls_42.json,745600,844656,52,Man
25,970492,DepthScenes,duration_manipulation_targetAtFixation,jsons/VE125_randls_42.json,http://54.235.29.9/FacialAge/BNav_EC2/DepthDuration/v2_depth_duration_MTurk/v2_DepthDuration_HTML.html#28,28,1280,881,1280,1024,9-3-2022,11-27-0,26,depth_duration_stimuli/001066_2014-06-08_22-03-20_260595134347_rgbf000066-resize_4/001066_2014-06-08_22-03-20_260595134347_rgbf000066-resize_4-target.png,125,4.2330000000000005,1,39259,124,feet,jsons/VE125_randls_42.json,745600,844656,52,Man
26,970492,DepthScenes,duration_manipulation_targetAtFixation,jsons/VE125_randls_42.json,http://54.235.29.9/FacialAge/BNav_EC2/DepthDuration/v2_depth_duration_MTurk/v2_DepthDuration_HTML.html#28,28,1280,881,1280,1024,9-3-2022,11-27-0,27,depth_duration_stimuli/000742_2014-06-08_18-48-09_260595134347_rgbf000164-resize_4/000742_2014-06-08_18-48-09_260595134347_rgbf000164-resize_4-target.png,125,4.632,0,4001,125,feet,jsons/VE125_randls_42.json,745600,844656,52,Man
27,970492,DepthScenes,duration_manipulation_targetAtFixation,jsons/VE125_randls_42.json,http://54.235.29.9/FacialAge/BNav_EC2/DepthDuration/v2_depth_duration_MTurk/v2_DepthDuration_HTML.html#28,28,1280,881,1280,1024,9-3-2022,11-27-0,28,depth_duration_stimuli/002725_2014-06-22_11-47-51_094959634447_rgbf000070-resize_1/002725_2014-06-22_11-47-51_094959634447_rgbf000070-resize_1-target.png,125,2.195,2,2708,123,feet,jsons/VE125_randls_42.json,745600,844656,52,Man
28,970492,DepthScenes,duration_manipulation_targetAtFixation,jsons/VE125_randls_42.json,http://54.235.29.9/FacialAge/BNav_EC2/DepthDuration/v2_depth_duration_MTurk/v2_DepthDuration_HTML.html#28,28,1280,881,1280,1024,9-3-2022,11-27-0,29,depth_duration_stimuli/002344_2014-06-28_20-06-29_260595134347_rgbf000030-resize_1/002344_2014-06-28_20-06-29_260595134347_rgbf000030-resize_1-target.png,125,1.5795,0,3352,125,feet,jsons/VE125_randls_42.json,745600,844656,52,Man
29,970492,DepthScenes,duration_manipulation_targetAtFixation,jsons/VE125_randls_42.json,http://54.235.29.9/FacialAge/BNav_EC2/DepthDuration/v2_depth_duration_MTurk/v2_DepthDuration_HTML.html#28,28,1280,881,1280,1024,9-3-2022,11-27-0,30,depth_duration_stimuli/000375_2014-06-08_11-17-29_260595134347_rgbf000133-resize_2/000375_2014-06-08_11-17-29_260595134347_rgbf000133-resize-original.jpg,125,4.718,4,3469,124,feet,jsons/VE125_randls_42.json,745600,844656,52,Man
30,970492,DepthScenes,duration_manipulation_targetAtFixation,jsons/VE125_randls_42.json,http://54.235.29.9/FacialAge/BNav_EC2/DepthDuration/v2_depth_duration_MTurk/v2_DepthDuration_HTML.html#28,28,1280,881,1280,1024,9-3-2022,11-27-0,31,depth_duration_stimuli/000486_2014-06-09_20-47-20_260595134347_rgbf000143-resize_2/000486_2014-06-09_20-47-20_260595134347_rgbf000143-resize_2-target.png,125,4.8325,3,2769,125,feet,jsons/VE125_randls_42.json,745600,844656,52,Man
31,970492,DepthScenes,duration_manipulation_targetAtFixation,jsons/VE125_randls_42.json,http://54.235.29.9/FacialAge/BNav_EC2/DepthDuration/v2_depth_duration_MTurk/v2_DepthDuration_HTML.html#28,28,1280,881,1280,1024,9-3-2022,11-27-0,32,depth_duration_stimuli/003083_2014-06-15_15-21-03_094959634447_rgbf000063-resize_1/003083_2014-06-15_15-21-03_094959634447_rgbf000063-resize_1-target.png,125,4.1405,0,3291,125,feet,jsons/VE125_randls_42.json,745600,844656,52,Man
32,970492,DepthScenes,duration_manipulation_targetAtFixation,jsons/VE125_randls_42.json,http://54.235.29.9/FacialAge/BNav_EC2/DepthDuration/v2_depth_duration_MTurk/v2_DepthDuration_HTML.html#28,28,1280,881,1280,1024,9-3-2022,11-27-0,33,depth_duration_stimuli/001417_2014-06-19_16-25-36_260595134347_rgbf000115-resize_5/001417_2014-06-19_16-25-36_260595134347_rgbf000115-resize_5-target.png,125,4.6255,2,2802,126,feet,jsons/VE125_randls_42.json,745600,844656,52,Man
33,970492,DepthScenes,duration_manipulation_targetAtFixation,jsons/VE125_randls_42.json,http://54.235.29.9/FacialAge/BNav_EC2/DepthDuration/v2_depth_duration_MTurk/v2_DepthDuration_HTML.html#28,28,1280,881,1280,1024,9-3-2022,11-27-0,34,depth_duration_stimuli/003081_2014-06-15_15-19-16_094959634447_rgbf000150-resize_1/003081_2014-06-15_15-19-16_094959634447_rgbf000150-resize_1-target.png,125,3.9125,1,3521,121,feet,jsons/VE125_randls_42.json,745600,844656,52,Man
34,970492,DepthScenes,duration_manipulation_targetAtFixation,jsons/VE125_randls_42.json,http://54.235.29.9/FacialAge/BNav_EC2/DepthDuration/v2_depth_duration_MTurk/v2_DepthDuration_HTML.html#28,28,1280,881,1280,1024,9-3-2022,11-27-0,35,depth_duration_stimuli/000368_2014-06-09_15-53-01_260595134347_rgbf000155-resize_2/000368_2014-06-09_15-53-01_260595134347_rgbf000155-resize_2-target.png,125,2.4859999999999998,2,2844,125,feet,jsons/VE125_randls_42.json,745600,844656,52,Man
35,970492,DepthScenes,duration_manipulation_targetAtFixation,jsons/VE125_randls_42.json,http://54.235.29.9/FacialAge/BNav_EC2/DepthDuration/v2_depth_duration_MTurk/v2_DepthDuration_HTML.html#28,28,1280,881,1280,1024,9-3-2022,11-27-0,36,depth_duration_stimuli/002678_2014-06-13_16-15-32_094959634447_rgbf000151-resize_6/002678_2014-06-13_16-15-32_094959634447_rgbf000151-resize_6-target.png,125,2.1830000000000003,0,2954,125,feet,jsons/VE125_randls_42.json,745600,844656,52,Man
36,970492,DepthScenes,duration_manipulation_targetAtFixation,jsons/VE125_randls_42.json,http://54.235.29.9/FacialAge/BNav_EC2/DepthDuration/v2_depth_duration_MTurk/v2_DepthDuration_HTML.html#28,28,1280,881,1280,1024,9-3-2022,11-27-0,37,depth_duration_stimuli/002763_2014-06-22_19-13-10_094959634447_rgbf000075-resize_4/002763_2014-06-22_19-13-10_094959634447_rgbf000075-resize_4-target.png,125,1.68375,2,2691,124,feet,jsons/VE125_randls_42.json,745600,844656,52,Man
37,970492,DepthScenes,duration_manipulation_targetAtFixation,jsons/VE125_randls_42.json,http://54.235.29.9/FacialAge/BNav_EC2/DepthDuration/v2_depth_duration_MTurk/v2_DepthDuration_HTML.html#28,28,1280,881,1280,1024,9-3-2022,11-27-0,38,depth_duration_stimuli/002209_2014-06-28_18-36-10_260595134347_rgbf000051-resize_1/002209_2014-06-28_18-36-10_260595134347_rgbf000051-resize_1-target.png,125,2.057,0,2964,125,feet,jsons/VE125_randls_42.json,745600,844656,52,Man
38,970492,DepthScenes,duration_manipulation_targetAtFixation,jsons/VE125_randls_42.json,http://54.235.29.9/FacialAge/BNav_EC2/DepthDuration/v2_depth_duration_MTurk/v2_DepthDuration_HTML.html#28,28,1280,881,1280,1024,9-3-2022,11-27-0,39,depth_duration_stimuli/001055_2014-06-08_18-45-35_260595134347_rgbf000111-resize_4/001055_2014-06-08_18-45-35_260595134347_rgbf000111-resize_4-target.png,125,2.4290000000000003,3,2835,125,feet,jsons/VE125_randls_42.json,745600,844656,52,Man
39,970492,DepthScenes,duration_manipulation_targetAtFixation,jsons/VE125_randls_42.json,http://54.235.29.9/FacialAge/BNav_EC2/DepthDuration/v2_depth_duration_MTurk/v2_DepthDuration_HTML.html#28,28,1280,881,1280,1024,9-3-2022,11-27-0,40,depth_duration_stimuli/000549_2014-06-08_22-10-24_260595134347_rgbf000247-resize_3/000549_2014-06-08_22-10-24_260595134347_rgbf000247-resize_3-target.png,125,1.841,0,2687,125,feet,jsons/VE125_randls_42.json,745600,844656,52,Man
40,970492,DepthScenes,duration_manipulation_targetAtFixation,jsons/VE125_randls_42.json,http://54.235.29.9/FacialAge/BNav_EC2/DepthDuration/v2_depth_duration_MTurk/v2_DepthDuration_HTML.html#28,28,1280,881,1280,1024,9-3-2022,11-27-0,41,depth_duration_stimuli/002748_2014-06-22_19-07-22_094959634447_rgbf000078-resize_1/002748_2014-06-22_19-07-22_094959634447_rgbf000078-resize_1-target.png,125,4.6705,5,3421,127,feet,jsons/VE125_randls_42.json,745600,844656,52,Man
41,970492,DepthScenes,duration_manipulation_targetAtFixation,jsons/VE125_randls_42.json,http://54.235.29.9/FacialAge/BNav_EC2/DepthDuration/v2_depth_duration_MTurk/v2_DepthDuration_HTML.html#28,28,1280,881,1280,1024,9-3-2022,11-27-0,42,depth_duration_stimuli/002995_2014-06-15_12-31-26_094959634447_rgbf000150-resize_1/002995_2014-06-15_12-31-26_094959634447_rgbf000150-resize_1-target.png,125,3.8360000000000003,3,2592,126,feet,jsons/VE125_randls_42.json,745600,844656,52,Man
42,970492,DepthScenes,duration_manipulation_targetAtFixation,jsons/VE125_randls_42.json,http://54.235.29.9/FacialAge/BNav_EC2/DepthDuration/v2_depth_duration_MTurk/v2_DepthDuration_HTML.html#28,28,1280,881,1280,1024,9-3-2022,11-27-0,43,depth_duration_stimuli/003534_2014-05-22_15-06-10_094959634447_rgbf000102-resize_4/003534_2014-05-22_15-06-10_094959634447_rgbf000102-resize_4-target.png,125,1.426,1,2730,126,feet,jsons/VE125_randls_42.json,745600,844656,52,Man
43,970492,DepthScenes,duration_manipulation_targetAtFixation,jsons/VE125_randls_42.json,http://54.235.29.9/FacialAge/BNav_EC2/DepthDuration/v2_depth_duration_MTurk/v2_DepthDuration_HTML.html#28,28,1280,881,1280,1024,9-3-2022,11-27-0,44,depth_duration_stimuli/002637_2014-06-24_14-51-13_094959634447_rgbf000066-resize_4/002637_2014-06-24_14-51-13_094959634447_rgbf000066-resize_4-target.png,125,1.9955,2,2483,126,feet,jsons/VE125_randls_42.json,745600,844656,52,Man
44,970492,DepthScenes,duration_manipulation_targetAtFixation,jsons/VE125_randls_42.json,http://54.235.29.9/FacialAge/BNav_EC2/DepthDuration/v2_depth_duration_MTurk/v2_DepthDuration_HTML.html#28,28,1280,881,1280,1024,9-3-2022,11-27-0,45,depth_duration_stimuli/000787_2014-06-08_22-33-53_260595134347_rgbf000175-resize_1/000787_2014-06-08_22-33-53_260595134347_rgbf000175-resize-original.jpg,125,4.784,3,3905,129,feet,jsons/VE125_randls_42.json,745600,844656,52,Man
45,970492,DepthScenes,duration_manipulation_targetAtFixation,jsons/VE125_randls_42.json,http://54.235.29.9/FacialAge/BNav_EC2/DepthDuration/v2_depth_duration_MTurk/v2_DepthDuration_HTML.html#28,28,1280,881,1280,1024,9-3-2022,11-27-0,46,depth_duration_stimuli/000506_2014-06-08_23-21-00_260595134347_rgbf000070-resize_7/000506_2014-06-08_23-21-00_260595134347_rgbf000070-resize_7-target.png,125,4.0585,3,3092,125,feet,jsons/VE125_randls_42.json,745600,844656,52,Man
46,970492,DepthScenes,duration_manipulation_targetAtFixation,jsons/VE125_randls_42.json,http://54.235.29.9/FacialAge/BNav_EC2/DepthDuration/v2_depth_duration_MTurk/v2_DepthDuration_HTML.html#28,28,1280,881,1280,1024,9-3-2022,11-27-0,47,depth_duration_stimuli/003079_2014-06-15_15-18-20_094959634447_rgbf000152-resize_8/003079_2014-06-15_15-18-20_094959634447_rgbf000152-resize_8-target.png,125,2.8775,3,3155,125,feet,jsons/VE125_randls_42.json,745600,844656,52,Man
47,970492,DepthScenes,duration_manipulation_targetAtFixation,jsons/VE125_randls_42.json,http://54.235.29.9/FacialAge/BNav_EC2/DepthDuration/v2_depth_duration_MTurk/v2_DepthDuration_HTML.html#28,28,1280,881,1280,1024,9-3-2022,11-27-0,48,depth_duration_stimuli/001110_2014-06-15_17-25-28_260595134347_rgbf000150-resize_1/001110_2014-06-15_17-25-28_260595134347_rgbf000150-resize_1-target.png,125,1.7115,2,3180,125,feet,jsons/VE125_randls_42.json,745600,844656,52,Man
48,970492,DepthScenes,duration_manipulation_targetAtFixation,jsons/VE125_randls_42.json,http://54.235.29.9/FacialAge/BNav_EC2/DepthDuration/v2_depth_duration_MTurk/v2_DepthDuration_HTML.html#28,28,1280,881,1280,1024,9-3-2022,11-27-0,49,depth_duration_stimuli/000927_2014-06-09_16-32-30_260595134347_rgbf000123-resize_3/000927_2014-06-09_16-32-30_260595134347_rgbf000123-resize_3-target.png,125,2.6785,0,2986,126,feet,jsons/VE125_randls_42.json,745600,844656,52,Man
49,970492,DepthScenes,duration_manipulation_targetAtFixation,jsons/VE125_randls_42.json,http://54.235.29.9/FacialAge/BNav_EC2/DepthDuration/v2_depth_duration_MTurk/v2_DepthDuration_HTML.html#28,28,1280,881,1280,1024,9-3-2022,11-27-0,50,depth_duration_stimuli/000739_2014-06-08_18-45-58_260595134347_rgbf000068-resize_1/000739_2014-06-08_18-45-58_260595134347_rgbf000068-resize_1-target.png,125,3.534,4,3244,124,feet,jsons/VE125_randls_42.json,745600,844656,52,Man
50,970492,DepthScenes,duration_manipulation_targetAtFixation,jsons/VE125_randls_42.json,http://54.235.29.9/FacialAge/BNav_EC2/DepthDuration/v2_depth_duration_MTurk/v2_DepthDuration_HTML.html#28,28,1280,881,1280,1024,9-3-2022,11-27-0,51,depth_duration_stimuli/000734_2014-06-08_17-39-11_260595134347_rgbf000128-resize_2/000734_2014-06-08_17-39-11_260595134347_rgbf000128-resize_2-target.png,125,4.098,0,4638,125,feet,jsons/VE125_randls_42.json,745600,844656,52,Man
51,970492,DepthScenes,duration_manipulation_targetAtFixation,jsons/VE125_randls_42.json,http://54.235.29.9/FacialAge/BNav_EC2/DepthDuration/v2_depth_duration_MTurk/v2_DepthDuration_HTML.html#28,28,1280,881,1280,1024,9-3-2022,11-27-0,52,depth_duration_stimuli/000642_2014-06-08_16-59-25_260595134347_rgbf000098-resize_2/000642_2014-06-08_16-59-25_260595134347_rgbf000098-resize_2-target.png,125,2.8815,3,3235,126,feet,jsons/VE125_randls_42.json,745600,844656,52,Man
52,970492,DepthScenes,duration_manipulation_targetAtFixation,jsons/VE125_randls_42.json,http://54.235.29.9/FacialAge/BNav_EC2/DepthDuration/v2_depth_duration_MTurk/v2_DepthDuration_HTML.html#28,28,1280,881,1280,1024,9-3-2022,11-27-0,53,depth_duration_stimuli/002425_2014-06-28_20-27-29_260595134347_rgbf000031-resize_8/002425_2014-06-28_20-27-29_260595134347_rgbf000031-resize_8-target.png,125,3.8960000000000004,3,3351,124,feet,jsons/VE125_randls_42.json,745600,844656,52,Man
53,970492,DepthScenes,duration_manipulation_targetAtFixation,jsons/VE125_randls_42.json,http://54.235.29.9/FacialAge/BNav_EC2/DepthDuration/v2_depth_duration_MTurk/v2_DepthDuration_HTML.html#28,28,1280,881,1280,1024,9-3-2022,11-27-0,54,depth_duration_stimuli/000878_2014-06-08_22-52-45_260595134347_rgbf000045-resize_2/000878_2014-06-08_22-52-45_260595134347_rgbf000045-resize_2-target.png,125,2.092,3,2989,125,feet,jsons/VE125_randls_42.json,745600,844656,52,Man
54,970492,DepthScenes,duration_manipulation_targetAtFixation,jsons/VE125_randls_42.json,http://54.235.29.9/FacialAge/BNav_EC2/DepthDuration/v2_depth_duration_MTurk/v2_DepthDuration_HTML.html#28,28,1280,881,1280,1024,9-3-2022,11-27-0,55,depth_duration_stimuli/002953_2014-06-08_17-32-18_094959634447_rgbf000059-resize_5/002953_2014-06-08_17-32-18_094959634447_rgbf000059-resize_5-target.png,125,1.551,2,3489,126,feet,jsons/VE125_randls_42.json,745600,844656,52,Man
55,970492,DepthScenes,duration_manipulation_targetAtFixation,jsons/VE125_randls_42.json,http://54.235.29.9/FacialAge/BNav_EC2/DepthDuration/v2_depth_duration_MTurk/v2_DepthDuration_HTML.html#28,28,1280,881,1280,1024,9-3-2022,11-27-0,56,depth_duration_stimuli/000692_2014-06-08_13-09-42_260595134347_rgbf000199-resize_2/000692_2014-06-08_13-09-42_260595134347_rgbf000199-resize_2-target.png,125,3.661,5,3019,125,feet,jsons/VE125_randls_42.json,745600,844656,52,Man
56,970492,DepthScenes,duration_manipulation_targetAtFixation,jsons/VE125_randls_42.json,http://54.235.29.9/FacialAge/BNav_EC2/DepthDuration/v2_depth_duration_MTurk/v2_DepthDuration_HTML.html#28,28,1280,881,1280,1024,9-3-2022,11-27-0,57,depth_duration_stimuli/001094_2014-06-15_17-36-00_260595134347_rgbf000205-resize_0/001094_2014-06-15_17-36-00_260595134347_rgbf000205-resize_0-target.png,125,4.2175,0,5483,126,feet,jsons/VE125_randls_42.json,745600,844656,52,Man
57,970492,DepthScenes,duration_manipulation_targetAtFixation,jsons/VE125_randls_42.json,http://54.235.29.9/FacialAge/BNav_EC2/DepthDuration/v2_depth_duration_MTurk/v2_DepthDuration_HTML.html#28,28,1280,881,1280,1024,9-3-2022,11-27-0,58,depth_duration_stimuli/002788_2014-06-22_19-36-03_094959634447_rgbf000088-resize_2/002788_2014-06-22_19-36-03_094959634447_rgbf000088-resize_2-target.png,125,1.6465,4,3173,127,feet,jsons/VE125_randls_42.json,745600,844656,52,Man
58,970492,DepthScenes,duration_manipulation_targetAtFixation,jsons/VE125_randls_42.json,http://54.235.29.9/FacialAge/BNav_EC2/DepthDuration/v2_depth_duration_MTurk/v2_DepthDuration_HTML.html#28,28,1280,881,1280,1024,9-3-2022,11-27-0,59,depth_duration_stimuli/000749_2014-06-08_21-55-06_260595134347_rgbf000070-resize_2/000749_2014-06-08_21-55-06_260595134347_rgbf000070-resize_2-target.png,125,2.331,0,2763,126,feet,jsons/VE125_randls_42.json,745600,844656,52,Man
59,970492,DepthScenes,duration_manipulation_targetAtFixation,jsons/VE125_randls_42.json,http://54.235.29.9/FacialAge/BNav_EC2/DepthDuration/v2_depth_duration_MTurk/v2_DepthDuration_HTML.html#28,28,1280,881,1280,1024,9-3-2022,11-27-0,60,depth_duration_stimuli/001167_2014-06-17_15-38-07_260595134347_rgbf000108-resize_0/001167_2014-06-17_15-38-07_260595134347_rgbf000108-resize_0-target.png,125,1.8505,2,4146,125,feet,jsons/VE125_randls_42.json,745600,844656,52,Man
60,970492,DepthScenes,duration_manipulation_targetAtFixation,jsons/VE125_randls_42.json,http://54.235.29.9/FacialAge/BNav_EC2/DepthDuration/v2_depth_duration_MTurk/v2_DepthDuration_HTML.html#28,28,1280,881,1280,1024,9-3-2022,11-27-0,61,depth_duration_stimuli/003587_2014-05-23_16-48-02_094959634447_rgbf002384-resize_2/003587_2014-05-23_16-48-02_094959634447_rgbf002384-resize_2-target.png,125,1.357,1,3618,124,feet,jsons/VE125_randls_42.json,745600,844656,52,Man
61,970492,DepthScenes,duration_manipulation_targetAtFixation,jsons/VE125_randls_42.json,http://54.235.29.9/FacialAge/BNav_EC2/DepthDuration/v2_depth_duration_MTurk/v2_DepthDuration_HTML.html#28,28,1280,881,1280,1024,9-3-2022,11-27-0,62,depth_duration_stimuli/001016_2014-06-09_16-16-10_260595134347_rgbf000112-resize_5/001016_2014-06-09_16-16-10_260595134347_rgbf000112-resize_5-target.png,125,1.6565,2,3380,124,feet,jsons/VE125_randls_42.json,745600,844656,52,Man
62,970492,DepthScenes,duration_manipulation_targetAtFixation,jsons/VE125_randls_42.json,http://54.235.29.9/FacialAge/BNav_EC2/DepthDuration/v2_depth_duration_MTurk/v2_DepthDuration_HTML.html#28,28,1280,881,1280,1024,9-3-2022,11-27-0,63,depth_duration_stimuli/002340_2014-06-28_20-05-46_260595134347_rgbf000113-resize_0/002340_2014-06-28_20-05-46_260595134347_rgbf000113-resize_0-target.png,125,2.4735,3,2986,124,feet,jsons/VE125_randls_42.json,745600,844656,52,Man
63,970492,DepthScenes,duration_manipulation_targetAtFixation,jsons/VE125_randls_42.json,http://54.235.29.9/FacialAge/BNav_EC2/DepthDuration/v2_depth_duration_MTurk/v2_DepthDuration_HTML.html#28,28,1280,881,1280,1024,9-3-2022,11-27-0,64,depth_duration_stimuli/001059_2014-06-08_21-53-27_260595134347_rgbf000061-resize_4/001059_2014-06-08_21-53-27_260595134347_rgbf000061-resize_4-target.png,125,2.4185,3,3359,125,feet,jsons/VE125_randls_42.json,745600,844656,52,Man
64,970492,DepthScenes,duration_manipulation_targetAtFixation,jsons/VE125_randls_42.json,http://54.235.29.9/FacialAge/BNav_EC2/DepthDuration/v2_depth_duration_MTurk/v2_DepthDuration_HTML.html#28,28,1280,881,1280,1024,9-3-2022,11-27-0,65,depth_duration_stimuli/001032_2014-06-08_13-23-17_260595134347_rgbf000021-resize_3/001032_2014-06-08_13-23-17_260595134347_rgbf000021-resize_3-target.png,125,3.2725,0,3138,125,feet,jsons/VE125_randls_42.json,745600,844656,52,Man
65,970492,DepthScenes,duration_manipulation_targetAtFixation,jsons/VE125_randls_42.json,http://54.235.29.9/FacialAge/BNav_EC2/DepthDuration/v2_depth_duration_MTurk/v2_DepthDuration_HTML.html#28,28,1280,881,1280,1024,9-3-2022,11-27-0,66,depth_duration_stimuli/001222_2014-06-17_16-24-06_260595134347_rgbf000073-resize_0/001222_2014-06-17_16-24-06_260595134347_rgbf000073-resize-original.jpg,125,1.4385,4,3792,124,feet,jsons/VE125_randls_42.json,745600,844656,52,Man
66,970492,DepthScenes,duration_manipulation_targetAtFixation,jsons/VE125_randls_42.json,http://54.235.29.9/FacialAge/BNav_EC2/DepthDuration/v2_depth_duration_MTurk/v2_DepthDuration_HTML.html#28,28,1280,881,1280,1024,9-3-2022,11-27-0,67,depth_duration_stimuli/002043_2014-06-24_20-29-38_260595134347_rgbf000039-resize_4/002043_2014-06-24_20-29-38_260595134347_rgbf000039-resize_4-target.png,125,2.8435,3,3965,124,feet,jsons/VE125_randls_42.json,745600,844656,52,Man
67,970492,DepthScenes,duration_manipulation_targetAtFixation,jsons/VE125_randls_42.json,http://54.235.29.9/FacialAge/BNav_EC2/DepthDuration/v2_depth_duration_MTurk/v2_DepthDuration_HTML.html#28,28,1280,881,1280,1024,9-3-2022,11-27-0,68,depth_duration_stimuli/003048_2014-06-15_13-49-43_094959634447_rgbf000150-resize_1/003048_2014-06-15_13-49-43_094959634447_rgbf000150-resize_1-target.png,125,4.0035,0,3122,125,feet,jsons/VE125_randls_42.json,745600,844656,52,Man
68,970492,DepthScenes,duration_manipulation_targetAtFixation,jsons/VE125_randls_42.json,http://54.235.29.9/FacialAge/BNav_EC2/DepthDuration/v2_depth_duration_MTurk/v2_DepthDuration_HTML.html#28,28,1280,881,1280,1024,9-3-2022,11-27-0,69,depth_duration_stimuli/002570_2014-06-24_13-59-54_094959634447_rgbf000059-resize_0/002570_2014-06-24_13-59-54_094959634447_rgbf000059-resize_0-target.png,125,4.037,3,3237,125,feet,jsons/VE125_randls_42.json,745600,844656,52,Man
69,970492,DepthScenes,duration_manipulation_targetAtFixation,jsons/VE125_randls_42.json,http://54.235.29.9/FacialAge/BNav_EC2/DepthDuration/v2_depth_duration_MTurk/v2_DepthDuration_HTML.html#28,28,1280,881,1280,1024,9-3-2022,11-27-0,70,depth_duration_stimuli/002467_2014-06-28_20-38-07_260595134347_rgbf000026-resize_2/002467_2014-06-28_20-38-07_260595134347_rgbf000026-resize_2-target.png,125,4.742,1,6018,124,feet,jsons/VE125_randls_42.json,745600,844656,52,Man
70,970492,DepthScenes,duration_manipulation_targetAtFixation,jsons/VE125_randls_42.json,http://54.235.29.9/FacialAge/BNav_EC2/DepthDuration/v2_depth_duration_MTurk/v2_DepthDuration_HTML.html#28,28,1280,881,1280,1024,9-3-2022,11-27-0,71,depth_duration_stimuli/002213_2014-06-28_18-37-58_260595134347_rgbf000055-resize_1/002213_2014-06-28_18-37-58_260595134347_rgbf000055-resize_1-target.png,125,3.62,4,3658,124,feet,jsons/VE125_randls_42.json,745600,844656,52,Man
71,970492,DepthScenes,duration_manipulation_targetAtFixation,jsons/VE125_randls_42.json,http://54.235.29.9/FacialAge/BNav_EC2/DepthDuration/v2_depth_duration_MTurk/v2_DepthDuration_HTML.html#28,28,1280,881,1280,1024,9-3-2022,11-27-0,72,depth_duration_stimuli/000691_2014-06-08_13-08-50_260595134347_rgbf000132-resize_3/000691_2014-06-08_13-08-50_260595134347_rgbf000132-resize_3-target.png,125,4.1530000000000005,5,3088,125,feet,jsons/VE125_randls_42.json,745600,844656,52,Man
72,970492,DepthScenes,duration_manipulation_targetAtFixation,jsons/VE125_randls_42.json,http://54.235.29.9/FacialAge/BNav_EC2/DepthDuration/v2_depth_duration_MTurk/v2_DepthDuration_HTML.html#28,28,1280,881,1280,1024,9-3-2022,11-27-0,73,depth_duration_stimuli/000522_2014-06-08_13-35-06_260595134347_rgbf000244-resize_1/000522_2014-06-08_13-35-06_260595134347_rgbf000244-resize_1-target.png,125,2.3715,1,3227,126,feet,jsons/VE125_randls_42.json,745600,844656,52,Man
73,970492,DepthScenes,duration_manipulation_targetAtFixation,jsons/VE125_randls_42.json,http://54.235.29.9/FacialAge/BNav_EC2/DepthDuration/v2_depth_duration_MTurk/v2_DepthDuration_HTML.html#28,28,1280,881,1280,1024,9-3-2022,11-27-0,74,depth_duration_stimuli/002949_2014-06-26_15-57-42_094959634447_rgbf000079-resize_1/002949_2014-06-26_15-57-42_094959634447_rgbf000079-resize_1-target.png,125,1.8915,0,3553,125,feet,jsons/VE125_randls_42.json,745600,844656,52,Man
74,970492,DepthScenes,duration_manipulation_targetAtFixation,jsons/VE125_randls_42.json,http://54.235.29.9/FacialAge/BNav_EC2/DepthDuration/v2_depth_duration_MTurk/v2_DepthDuration_HTML.html#28,28,1280,881,1280,1024,9-3-2022,11-27-0,75,depth_duration_stimuli/002663_2014-06-13_15-50-26_094959634447_rgbf000075-resize_1/002663_2014-06-13_15-50-26_094959634447_rgbf000075-resize_1-target.png,125,4.7495,6,3877,125,feet,jsons/VE125_randls_42.json,745600,844656,52,Man
75,970492,DepthScenes,duration_manipulation_targetAtFixation,jsons/VE125_randls_42.json,http://54.235.29.9/FacialAge/BNav_EC2/DepthDuration/v2_depth_duration_MTurk/v2_DepthDuration_HTML.html#28,28,1280,881,1280,1024,9-3-2022,11-27-0,76,depth_duration_stimuli/000409_2014-06-04_19-23-33_260595134347_rgbf000067-resize_0/000409_2014-06-04_19-23-33_260595134347_rgbf000067-resize_0-target.png,125,3.7335,5,3383,127,feet,jsons/VE125_randls_42.json,745600,844656,52,Man
76,970492,DepthScenes,duration_manipulation_targetAtFixation,jsons/VE125_randls_42.json,http://54.235.29.9/FacialAge/BNav_EC2/DepthDuration/v2_depth_duration_MTurk/v2_DepthDuration_HTML.html#28,28,1280,881,1280,1024,9-3-2022,11-27-0,77,depth_duration_stimuli/000469_2014-06-09_19-42-10_260595134347_rgbf000081-resize_1/000469_2014-06-09_19-42-10_260595134347_rgbf000081-resize_1-target.png,125,1.652,1,4134,126,feet,jsons/VE125_randls_42.json,745600,844656,52,Man
77,970492,DepthScenes,duration_manipulation_targetAtFixation,jsons/VE125_randls_42.json,http://54.235.29.9/FacialAge/BNav_EC2/DepthDuration/v2_depth_duration_MTurk/v2_DepthDuration_HTML.html#28,28,1280,881,1280,1024,9-3-2022,11-27-0,78,depth_duration_stimuli/000483_2014-06-09_20-41-45_260595134347_rgbf000116-resize_4/000483_2014-06-09_20-41-45_260595134347_rgbf000116-resize_4-target.png,125,1.337,0,5805,123,feet,jsons/VE125_randls_42.json,745600,844656,52,Man
78,970492,DepthScenes,duration_manipulation_targetAtFixation,jsons/VE125_randls_42.json,http://54.235.29.9/FacialAge/BNav_EC2/DepthDuration/v2_depth_duration_MTurk/v2_DepthDuration_HTML.html#28,28,1280,881,1280,1024,9-3-2022,11-27-0,79,depth_duration_stimuli/001449_2014-06-19_17-01-27_260595134347_rgbf000116-resize_2/001449_2014-06-19_17-01-27_260595134347_rgbf000116-resize_2-target.png,125,3.452,3,3659,124,feet,jsons/VE125_randls_42.json,745600,844656,52,Man
79,970492,DepthScenes,duration_manipulation_targetAtFixation,jsons/VE125_randls_42.json,http://54.235.29.9/FacialAge/BNav_EC2/DepthDuration/v2_depth_duration_MTurk/v2_DepthDuration_HTML.html#28,28,1280,881,1280,1024,9-3-2022,11-27-0,80,depth_duration_stimuli/001450_2014-06-19_17-02-03_260595134347_rgbf000203-resize_4/001450_2014-06-19_17-02-03_260595134347_rgbf000203-resize_4-target.png,125,4.0106666666667,0,4085,123,feet,jsons/VE125_randls_42.json,745600,844656,52,Man
80,970492,DepthScenes,duration_manipulation_targetAtFixation,jsons/VE125_randls_42.json,http://54.235.29.9/FacialAge/BNav_EC2/DepthDuration/v2_depth_duration_MTurk/v2_DepthDuration_HTML.html#28,28,1280,881,1280,1024,9-3-2022,11-27-0,81,depth_duration_stimuli/002039_2014-06-24_20-22-38_260595134347_rgbf000084-resize_1/002039_2014-06-24_20-22-38_260595134347_rgbf000084-resize_1-target.png,125,4.408,5,3423,125,feet,jsons/VE125_randls_42.json,745600,844656,52,Man
81,970492,DepthScenes,duration_manipulation_targetAtFixation,jsons/VE125_randls_42.json,http://54.235.29.9/FacialAge/BNav_EC2/DepthDuration/v2_depth_duration_MTurk/v2_DepthDuration_HTML.html#28,28,1280,881,1280,1024,9-3-2022,11-27-0,82,depth_duration_stimuli/002103_2014-06-25_20-00-40_260595134347_rgbf000049-resize_0/002103_2014-06-25_20-00-40_260595134347_rgbf000049-resize_0-target.png,125,4.105,4,3523,126,feet,jsons/VE125_randls_42.json,745600,844656,52,Man
82,970492,DepthScenes,duration_manipulation_targetAtFixation,jsons/VE125_randls_42.json,http://54.235.29.9/FacialAge/BNav_EC2/DepthDuration/v2_depth_duration_MTurk/v2_DepthDuration_HTML.html#28,28,1280,881,1280,1024,9-3-2022,11-27-0,83,depth_duration_stimuli/001570_2014-06-20_17-21-09_260595134347_rgbf000135-resize_4/001570_2014-06-20_17-21-09_260595134347_rgbf000135-resize_4-target.png,125,4.467,6,3513,125,feet,jsons/VE125_randls_42.json,745600,844656,52,Man
83,970492,DepthScenes,duration_manipulation_targetAtFixation,jsons/VE125_randls_42.json,http://54.235.29.9/FacialAge/BNav_EC2/DepthDuration/v2_depth_duration_MTurk/v2_DepthDuration_HTML.html#28,28,1280,881,1280,1024,9-3-2022,11-27-0,84,depth_duration_stimuli/001392_2014-06-19_16-07-59_260595134347_rgbf000046-resize_1/001392_2014-06-19_16-07-59_260595134347_rgbf000046-resize_1-target.png,125,4.135,3,3638,127,feet,jsons/VE125_randls_42.json,745600,844656,52,Man
84,970492,DepthScenes,duration_manipulation_targetAtFixation,jsons/VE125_randls_42.json,http://54.235.29.9/FacialAge/BNav_EC2/DepthDuration/v2_depth_duration_MTurk/v2_DepthDuration_HTML.html#28,28,1280,881,1280,1024,9-3-2022,11-27-0,85,depth_duration_stimuli/003621_2014-05-23_18-06-08_094959634447_rgbf000101-resize_1/003621_2014-05-23_18-06-08_094959634447_rgbf000101-resize_1-target.png,125,3.9835,3,3404,129,feet,jsons/VE125_randls_42.json,745600,844656,52,Man
85,970492,DepthScenes,duration_manipulation_targetAtFixation,jsons/VE125_randls_42.json,http://54.235.29.9/FacialAge/BNav_EC2/DepthDuration/v2_depth_duration_MTurk/v2_DepthDuration_HTML.html#28,28,1280,881,1280,1024,9-3-2022,11-27-0,86,depth_duration_stimuli/001584_2014-06-20_11-07-43_260595134347_rgbf000002-resize_1/001584_2014-06-20_11-07-43_260595134347_rgbf000002-resize_1-target.png,125,3.53,0,3355,132,feet,jsons/VE125_randls_42.json,745600,844656,52,Man
86,970492,DepthScenes,duration_manipulation_targetAtFixation,jsons/VE125_randls_42.json,http://54.235.29.9/FacialAge/BNav_EC2/DepthDuration/v2_depth_duration_MTurk/v2_DepthDuration_HTML.html#28,28,1280,881,1280,1024,9-3-2022,11-27-0,87,depth_duration_stimuli/000436_2014-06-09_22-25-11_260595134347_rgbf000137-resize_1/000436_2014-06-09_22-25-11_260595134347_rgbf000137-resize_1-target.png,125,4.0705,5,4020,134,feet,jsons/VE125_randls_42.json,745600,844656,52,Man
87,970492,DepthScenes,duration_manipulation_targetAtFixation,jsons/VE125_randls_42.json,http://54.235.29.9/FacialAge/BNav_EC2/DepthDuration/v2_depth_duration_MTurk/v2_DepthDuration_HTML.html#28,28,1280,881,1280,1024,9-3-2022,11-27-0,88,depth_duration_stimuli/002444_2014-06-28_20-32-08_260595134347_rgbf000027-resize_0/002444_2014-06-28_20-32-08_260595134347_rgbf000027-resize_0-target.png,125,4.388999999999999,0,3778,128,feet,jsons/VE125_randls_42.json,745600,844656,52,Man
88,970492,DepthScenes,duration_manipulation_targetAtFixation,jsons/VE125_randls_42.json,http://54.235.29.9/FacialAge/BNav_EC2/DepthDuration/v2_depth_duration_MTurk/v2_DepthDuration_HTML.html#28,28,1280,881,1280,1024,9-3-2022,11-27-0,89,depth_duration_stimuli/003070_2014-06-15_14-58-27_094959634447_rgbf000150-resize_3/003070_2014-06-15_14-58-27_094959634447_rgbf000150-resize_3-target.png,125,2.9415,3,3187,129,feet,jsons/VE125_randls_42.json,745600,844656,52,Man
89,970492,DepthScenes,duration_manipulation_targetAtFixation,jsons/VE125_randls_42.json,http://54.235.29.9/FacialAge/BNav_EC2/DepthDuration/v2_depth_duration_MTurk/v2_DepthDuration_HTML.html#28,28,1280,881,1280,1024,9-3-2022,11-27-0,90,depth_duration_stimuli/000943_2014-06-09_19-31-07_260595134347_rgbf000128-resize_1/000943_2014-06-09_19-31-07_260595134347_rgbf000128-resize_1-target.png,125,1.9765,0,3515,127,feet,jsons/VE125_randls_42.json,745600,844656,52,Man
90,970492,DepthScenes,duration_manipulation_targetAtFixation,jsons/VE125_randls_42.json,http://54.235.29.9/FacialAge/BNav_EC2/DepthDuration/v2_depth_duration_MTurk/v2_DepthDuration_HTML.html#28,28,1280,881,1280,1024,9-3-2022,11-27-0,91,depth_duration_stimuli/000470_2014-06-09_19-42-40_260595134347_rgbf000094-resize_1/000470_2014-06-09_19-42-40_260595134347_rgbf000094-resize_1-target.png,125,1.831,2,3522,124,feet,jsons/VE125_randls_42.json,745600,844656,52,Man
91,970492,DepthScenes,duration_manipulation_targetAtFixation,jsons/VE125_randls_42.json,http://54.235.29.9/FacialAge/BNav_EC2/DepthDuration/v2_depth_duration_MTurk/v2_DepthDuration_HTML.html#28,28,1280,881,1280,1024,9-3-2022,11-27-0,92,depth_duration_stimuli/000109_2014-05-14_23-41-52_260595134347_rgbf000035-resize_9/000109_2014-05-14_23-41-52_260595134347_rgbf000035-resize_9-target.png,125,1.3545,0,3268,126,feet,jsons/VE125_randls_42.json,745600,844656,52,Man
92,970492,DepthScenes,duration_manipulation_targetAtFixation,jsons/VE125_randls_42.json,http://54.235.29.9/FacialAge/BNav_EC2/DepthDuration/v2_depth_duration_MTurk/v2_DepthDuration_HTML.html#28,28,1280,881,1280,1024,9-3-2022,11-27-0,93,depth_duration_stimuli/002549_2014-06-24_13-41-39_094959634447_rgbf000022-resize_3/002549_2014-06-24_13-41-39_094959634447_rgbf000022-resize_3-target.png,125,1.476,2,3186,124,feet,jsons/VE125_randls_42.json,745600,844656,52,Man
93,970492,DepthScenes,duration_manipulation_targetAtFixation,jsons/VE125_randls_42.json,http://54.235.29.9/FacialAge/BNav_EC2/DepthDuration/v2_depth_duration_MTurk/v2_DepthDuration_HTML.html#28,28,1280,881,1280,1024,9-3-2022,11-27-0,94,depth_duration_stimuli/002750_2014-06-22_19-08-03_094959634447_rgbf000094-resize_4/002750_2014-06-22_19-08-03_094959634447_rgbf000094-resize_4-target.png,125,2.354,3,2862,126,feet,jsons/VE125_randls_42.json,745600,844656,52,Man
94,970492,DepthScenes,duration_manipulation_targetAtFixation,jsons/VE125_randls_42.json,http://54.235.29.9/FacialAge/BNav_EC2/DepthDuration/v2_depth_duration_MTurk/v2_DepthDuration_HTML.html#28,28,1280,881,1280,1024,9-3-2022,11-27-0,95,depth_duration_stimuli/002905_2014-06-03_18-04-43_094959634447_rgbf000151-resize_2/002905_2014-06-03_18-04-43_094959634447_rgbf000151-resize_2-target.png,125,2.0295,2,2995,124,feet,jsons/VE125_randls_42.json,745600,844656,52,Man
95,970492,DepthScenes,duration_manipulation_targetAtFixation,jsons/VE125_randls_42.json,http://54.235.29.9/FacialAge/BNav_EC2/DepthDuration/v2_depth_duration_MTurk/v2_DepthDuration_HTML.html#28,28,1280,881,1280,1024,9-3-2022,11-27-0,96,depth_duration_stimuli/003423_2014-05-21_10-23-26_094959634447_rgbf002665-resize_2/003423_2014-05-21_10-23-26_094959634447_rgbf002665-resize_2-target.png,125,3.2575,0,3467,125,feet,jsons/VE125_randls_42.json,745600,844656,52,Man
96,970492,DepthScenes,duration_manipulation_targetAtFixation,jsons/VE125_randls_42.json,http://54.235.29.9/FacialAge/BNav_EC2/DepthDuration/v2_depth_duration_MTurk/v2_DepthDuration_HTML.html#28,28,1280,881,1280,1024,9-3-2022,11-27-0,97,depth_duration_stimuli/000773_2014-06-08_22-24-54_260595134347_rgbf000093-resize_1/000773_2014-06-08_22-24-54_260595134347_rgbf000093-resize_1-target.png,125,4.973,4,3917,125,feet,jsons/VE125_randls_42.json,745600,844656,52,Man
97,970492,DepthScenes,duration_manipulation_targetAtFixation,jsons/VE125_randls_42.json,http://54.235.29.9/FacialAge/BNav_EC2/DepthDuration/v2_depth_duration_MTurk/v2_DepthDuration_HTML.html#28,28,1280,881,1280,1024,9-3-2022,11-27-0,98,depth_duration_stimuli/002414_2014-06-28_20-24-58_260595134347_rgbf000067-resize_4/002414_2014-06-28_20-24-58_260595134347_rgbf000067-resize_4-target.png,125,4.363,4,4109,125,feet,jsons/VE125_randls_42.json,745600,844656,52,Man
98,970492,DepthScenes,duration_manipulation_targetAtFixation,jsons/VE125_randls_42.json,http://54.235.29.9/FacialAge/BNav_EC2/DepthDuration/v2_depth_duration_MTurk/v2_DepthDuration_HTML.html#28,28,1280,881,1280,1024,9-3-2022,11-27-0,99,depth_duration_stimuli/001540_2014-06-20_17-01-05_260595134347_rgbf000086-resize_2/001540_2014-06-20_17-01-05_260595134347_rgbf000086-resize-original.jpg,125,1.459,5,5290,125,feet,jsons/VE125_randls_42.json,745600,844656,52,Man
99,970492,DepthScenes,duration_manipulation_targetAtFixation,jsons/VE125_randls_42.json,http://54.235.29.9/FacialAge/BNav_EC2/DepthDuration/v2_depth_duration_MTurk/v2_DepthDuration_HTML.html#28,28,1280,881,1280,1024,9-3-2022,11-27-0,100,depth_duration_stimuli/002153_2014-06-25_21-27-18_260595134347_rgbf000038-resize_5/002153_2014-06-25_21-27-18_260595134347_rgbf000038-resize_5-target.png,125,2.505,3,3415,120,feet,jsons/VE125_randls_42.json,745600,844656,52,Man
100,970492,DepthScenes,duration_manipulation_targetAtFixation,jsons/VE125_randls_42.json,http://54.235.29.9/FacialAge/BNav_EC2/DepthDuration/v2_depth_duration_MTurk/v2_DepthDuration_HTML.html#28,28,1280,881,1280,1024,9-3-2022,11-27-0,101,depth_duration_stimuli/002660_2014-06-13_15-44-18_094959634447_rgbf001878-resize_2/002660_2014-06-13_15-44-18_094959634447_rgbf001878-resize_2-target.png,125,3.576,0,2919,122,feet,jsons/VE125_randls_42.json,745600,844656,52,Man
101,970492,DepthScenes,duration_manipulation_targetAtFixation,jsons/VE125_randls_42.json,http://54.235.29.9/FacialAge/BNav_EC2/DepthDuration/v2_depth_duration_MTurk/v2_DepthDuration_HTML.html#28,28,1280,881,1280,1024,9-3-2022,11-27-0,102,depth_duration_stimuli/001029_2014-06-08_13-17-57_260595134347_rgbf000065-resize_1/001029_2014-06-08_13-17-57_260595134347_rgbf000065-resize_1-target.png,125,3.0835,3,4442,124,feet,jsons/VE125_randls_42.json,745600,844656,52,Man
102,970492,DepthScenes,duration_manipulation_targetAtFixation,jsons/VE125_randls_42.json,http://54.235.29.9/FacialAge/BNav_EC2/DepthDuration/v2_depth_duration_MTurk/v2_DepthDuration_HTML.html#28,28,1280,881,1280,1024,9-3-2022,11-27-0,103,depth_duration_stimuli/000677_2014-06-08_23-10-32_260595134347_rgbf000158-resize_6/000677_2014-06-08_23-10-32_260595134347_rgbf000158-resize_6-target.png,125,3.556,4,4134,126,feet,jsons/VE125_randls_42.json,745600,844656,52,Man
103,970492,DepthScenes,duration_manipulation_targetAtFixation,jsons/VE125_randls_42.json,http://54.235.29.9/FacialAge/BNav_EC2/DepthDuration/v2_depth_duration_MTurk/v2_DepthDuration_HTML.html#28,28,1280,881,1280,1024,9-3-2022,11-27-0,104,depth_duration_stimuli/001133_2014-06-17_14-49-16_260595134347_rgbf000100-resize_0/001133_2014-06-17_14-49-16_260595134347_rgbf000100-resize_0-target.png,125,4.2115,5,4885,126,feet,jsons/VE125_randls_42.json,745600,844656,52,Man
104,970492,DepthScenes,duration_manipulation_targetAtFixation,jsons/VE125_randls_42.json,http://54.235.29.9/FacialAge/BNav_EC2/DepthDuration/v2_depth_duration_MTurk/v2_DepthDuration_HTML.html#28,28,1280,881,1280,1024,9-3-2022,11-27-0,105,depth_duration_stimuli/001132_2014-06-17_14-48-54_260595134347_rgbf000100-resize_2/001132_2014-06-17_14-48-54_260595134347_rgbf000100-resize_2-target.png,125,3.753,5,3173,125,feet,jsons/VE125_randls_42.json,745600,844656,52,Man
105,970492,DepthScenes,duration_manipulation_targetAtFixation,jsons/VE125_randls_42.json,http://54.235.29.9/FacialAge/BNav_EC2/DepthDuration/v2_depth_duration_MTurk/v2_DepthDuration_HTML.html#28,28,1280,881,1280,1024,9-3-2022,11-27-0,106,depth_duration_stimuli/002964_2014-06-08_17-46-11_094959634447_rgbf000091-resize_4/002964_2014-06-08_17-46-11_094959634447_rgbf000091-resize_4-target.png,125,1.6909999999999998,2,3881,126,feet,jsons/VE125_randls_42.json,745600,844656,52,Man
106,970492,DepthScenes,duration_manipulation_targetAtFixation,jsons/VE125_randls_42.json,http://54.235.29.9/FacialAge/BNav_EC2/DepthDuration/v2_depth_duration_MTurk/v2_DepthDuration_HTML.html#28,28,1280,881,1280,1024,9-3-2022,11-27-0,107,depth_duration_stimuli/002136_2014-06-25_21-18-03_260595134347_rgbf000109-resize_3/002136_2014-06-25_21-18-03_260595134347_rgbf000109-resize_3-target.png,125,1.9569999999999999,3,3386,126,feet,jsons/VE125_randls_42.json,745600,844656,52,Man
107,970492,DepthScenes,duration_manipulation_targetAtFixation,jsons/VE125_randls_42.json,http://54.235.29.9/FacialAge/BNav_EC2/DepthDuration/v2_depth_duration_MTurk/v2_DepthDuration_HTML.html#28,28,1280,881,1280,1024,9-3-2022,11-27-0,108,depth_duration_stimuli/001808_2014-06-26_20-50-58_260595134347_rgbf000029-resize_1/001808_2014-06-26_20-50-58_260595134347_rgbf000029-resize_1-target.png,125,4.249,7,4885,126,feet,jsons/VE125_randls_42.json,745600,844656,52,Man
108,970492,DepthScenes,duration_manipulation_targetAtFixation,jsons/VE125_randls_42.json,http://54.235.29.9/FacialAge/BNav_EC2/DepthDuration/v2_depth_duration_MTurk/v2_DepthDuration_HTML.html#28,28,1280,881,1280,1024,9-3-2022,11-27-0,109,depth_duration_stimuli/001815_2014-06-26_20-52-55_260595134347_rgbf000020-resize_0/001815_2014-06-26_20-52-55_260595134347_rgbf000020-resize_0-target.png,125,3.3865,2,4324,124,feet,jsons/VE125_randls_42.json,745600,844656,52,Man
109,970492,DepthScenes,duration_manipulation_targetAtFixation,jsons/VE125_randls_42.json,http://54.235.29.9/FacialAge/BNav_EC2/DepthDuration/v2_depth_duration_MTurk/v2_DepthDuration_HTML.html#28,28,1280,881,1280,1024,9-3-2022,11-27-0,110,depth_duration_stimuli/000929_2014-06-09_16-33-19_260595134347_rgbf000139-resize_0/000929_2014-06-09_16-33-19_260595134347_rgbf000139-resize_0-target.png,125,2.8680000000000003,3,3673,124,feet,jsons/VE125_randls_42.json,745600,844656,52,Man
110,970492,DepthScenes,duration_manipulation_targetAtFixation,jsons/VE125_randls_42.json,http://54.235.29.9/FacialAge/BNav_EC2/DepthDuration/v2_depth_duration_MTurk/v2_DepthDuration_HTML.html#28,28,1280,881,1280,1024,9-3-2022,11-27-0,111,depth_duration_stimuli/000457_2014-06-08_16-52-43_260595134347_rgbf000199-resize_1/000457_2014-06-08_16-52-43_260595134347_rgbf000199-resize_1-target.png,125,3.6489999999999996,4,3667,125,feet,jsons/VE125_randls_42.json,745600,844656,52,Man
111,970492,DepthScenes,duration_manipulation_targetAtFixation,jsons/VE125_randls_42.json,http://54.235.29.9/FacialAge/BNav_EC2/DepthDuration/v2_depth_duration_MTurk/v2_DepthDuration_HTML.html#28,28,1280,881,1280,1024,9-3-2022,11-27-0,112,depth_duration_stimuli/000447_2014-06-08_16-15-46_260595134347_rgbf000130-resize_1/000447_2014-06-08_16-15-46_260595134347_rgbf000130-resize_1-target.png,125,4.479,6,3765,124,feet,jsons/VE125_randls_42.json,745600,844656,52,Man
112,970492,DepthScenes,duration_manipulation_targetAtFixation,jsons/VE125_randls_42.json,http://54.235.29.9/FacialAge/BNav_EC2/DepthDuration/v2_depth_duration_MTurk/v2_DepthDuration_HTML.html#28,28,1280,881,1280,1024,9-3-2022,11-27-0,113,depth_duration_stimuli/001447_2014-06-19_17-00-32_260595134347_rgbf000082-resize_5/001447_2014-06-19_17-00-32_260595134347_rgbf000082-resize_5-target.png,125,4.13775,2,3801,125,feet,jsons/VE125_randls_42.json,745600,844656,52,Man
113,970492,DepthScenes,duration_manipulation_targetAtFixation,jsons/VE125_randls_42.json,http://54.235.29.9/FacialAge/BNav_EC2/DepthDuration/v2_depth_duration_MTurk/v2_DepthDuration_HTML.html#28,28,1280,881,1280,1024,9-3-2022,11-27-0,114,depth_duration_stimuli/000493_2014-06-09_21-01-18_260595134347_rgbf000196-resize_3/000493_2014-06-09_21-01-18_260595134347_rgbf000196-resize_3-target.png,125,3.44,1,6001,124,feet,jsons/VE125_randls_42.json,745600,844656,52,Man
114,970492,DepthScenes,duration_manipulation_targetAtFixation,jsons/VE125_randls_42.json,http://54.235.29.9/FacialAge/BNav_EC2/DepthDuration/v2_depth_duration_MTurk/v2_DepthDuration_HTML.html#28,28,1280,881,1280,1024,9-3-2022,11-27-0,115,depth_duration_stimuli/000191_2014-05-12_17-07-38_260595134347_rgbf000199-resize_0/000191_2014-05-12_17-07-38_260595134347_rgbf000199-resize_0-target.png,125,3.7995,1,26005,125,feet,jsons/VE125_randls_42.json,745600,844656,52,Man
115,970492,DepthScenes,duration_manipulation_targetAtFixation,jsons/VE125_randls_42.json,http://54.235.29.9/FacialAge/BNav_EC2/DepthDuration/v2_depth_duration_MTurk/v2_DepthDuration_HTML.html#28,28,1280,881,1280,1024,9-3-2022,11-27-0,116,depth_duration_stimuli/001170_2014-06-17_15-43-44_260595134347_rgbf000096-resize_6/001170_2014-06-17_15-43-44_260595134347_rgbf000096-resize-original.jpg,125,1.1909999999999998,2,3797,124,feet,jsons/VE125_randls_42.json,745600,844656,52,Man
116,970492,DepthScenes,duration_manipulation_targetAtFixation,jsons/VE125_randls_42.json,http://54.235.29.9/FacialAge/BNav_EC2/DepthDuration/v2_depth_duration_MTurk/v2_DepthDuration_HTML.html#28,28,1280,881,1280,1024,9-3-2022,11-27-0,117,depth_duration_stimuli/002279_2014-06-28_18-55-32_260595134347_rgbf000040-resize_5/002279_2014-06-28_18-55-32_260595134347_rgbf000040-resize_5-target.png,125,1.5043333333333,1,3154,124,feet,jsons/VE125_randls_42.json,745600,844656,52,Man
117,970492,DepthScenes,duration_manipulation_targetAtFixation,jsons/VE125_randls_42.json,http://54.235.29.9/FacialAge/BNav_EC2/DepthDuration/v2_depth_duration_MTurk/v2_DepthDuration_HTML.html#28,28,1280,881,1280,1024,9-3-2022,11-27-0,118,depth_duration_stimuli/000635_2014-06-08_16-38-42_260595134347_rgbf000106-resize_1/000635_2014-06-08_16-38-42_260595134347_rgbf000106-resize_1-target.png,125,2.074,0,3779,124,feet,jsons/VE125_randls_42.json,745600,844656,52,Man
118,970492,DepthScenes,duration_manipulation_targetAtFixation,jsons/VE125_randls_42.json,http://54.235.29.9/FacialAge/BNav_EC2/DepthDuration/v2_depth_duration_MTurk/v2_DepthDuration_HTML.html#28,28,1280,881,1280,1024,9-3-2022,11-27-0,119,depth_duration_stimuli/001175_2014-06-17_15-45-55_260595134347_rgbf000129-resize_4/001175_2014-06-17_15-45-55_260595134347_rgbf000129-resize_4-target.png,125,4.255,6,3880,126,feet,jsons/VE125_randls_42.json,745600,844656,52,Man
119,970492,DepthScenes,duration_manipulation_targetAtFixation,jsons/VE125_randls_42.json,http://54.235.29.9/FacialAge/BNav_EC2/DepthDuration/v2_depth_duration_MTurk/v2_DepthDuration_HTML.html#28,28,1280,881,1280,1024,9-3-2022,11-27-0,120,depth_duration_stimuli/003490_2014-05-21_15-50-11_094959634447_rgbf000101-resize_3/003490_2014-05-21_15-50-11_094959634447_rgbf000101-resize_3-target.png,125,3.6445,0,3758,124,feet,jsons/VE125_randls_42.json,745600,844656,52,Man
120,970492,DepthScenes,duration_manipulation_targetAtFixation,jsons/VE125_randls_42.json,http://54.235.29.9/FacialAge/BNav_EC2/DepthDuration/v2_depth_duration_MTurk/v2_DepthDuration_HTML.html#28,28,1280,881,1280,1024,9-3-2022,11-27-0,121,depth_duration_stimuli/001150_2014-06-17_15-27-34_260595134347_rgbf000108-resize_2/001150_2014-06-17_15-27-34_260595134347_rgbf000108-resize_2-target.png,125,4.0325,5,5301,125,feet,jsons/VE125_randls_42.json,745600,844656,52,Man
121,970492,DepthScenes,duration_manipulation_targetAtFixation,jsons/VE125_randls_42.json,http://54.235.29.9/FacialAge/BNav_EC2/DepthDuration/v2_depth_duration_MTurk/v2_DepthDuration_HTML.html#28,28,1280,881,1280,1024,9-3-2022,11-27-0,122,depth_duration_stimuli/000665_2014-06-09_20-42-35_260595134347_rgbf000110-resize_1/000665_2014-06-09_20-42-35_260595134347_rgbf000110-resize_1-target.png,125,3.057,4,3227,124,feet,jsons/VE125_randls_42.json,745600,844656,52,Man
122,970492,DepthScenes,duration_manipulation_targetAtFixation,jsons/VE125_randls_42.json,http://54.235.29.9/FacialAge/BNav_EC2/DepthDuration/v2_depth_duration_MTurk/v2_DepthDuration_HTML.html#28,28,1280,881,1280,1024,9-3-2022,11-27-0,123,depth_duration_stimuli/000810_2014-06-08_17-20-01_260595134347_rgbf000105-resize_0/000810_2014-06-08_17-20-01_260595134347_rgbf000105-resize_0-target.png,125,1.4865,3,3603,126,feet,jsons/VE125_randls_42.json,745600,844656,52,Man
123,970492,DepthScenes,duration_manipulation_targetAtFixation,jsons/VE125_randls_42.json,http://54.235.29.9/FacialAge/BNav_EC2/DepthDuration/v2_depth_duration_MTurk/v2_DepthDuration_HTML.html#28,28,1280,881,1280,1024,9-3-2022,11-27-0,124,depth_duration_stimuli/001214_2014-06-17_16-13-55_260595134347_rgbf000111-resize_0/001214_2014-06-17_16-13-55_260595134347_rgbf000111-resize_0-target.png,125,2.6505,0,3594,125,feet,jsons/VE125_randls_42.json,745600,844656,52,Man
124,970492,DepthScenes,duration_manipulation_targetAtFixation,jsons/VE125_randls_42.json,http://54.235.29.9/FacialAge/BNav_EC2/DepthDuration/v2_depth_duration_MTurk/v2_DepthDuration_HTML.html#28,28,1280,881,1280,1024,9-3-2022,11-27-0,125,depth_duration_stimuli/001092_2014-06-15_17-34-58_260595134347_rgbf000171-resize_3/001092_2014-06-15_17-34-58_260595134347_rgbf000171-resize_3-target.png,125,2.6935,2,3997,125,feet,jsons/VE125_randls_42.json,745600,844656,52,Man
125,970492,DepthScenes,duration_manipulation_targetAtFixation,jsons/VE125_randls_42.json,http://54.235.29.9/FacialAge/BNav_EC2/DepthDuration/v2_depth_duration_MTurk/v2_DepthDuration_HTML.html#28,28,1280,881,1280,1024,9-3-2022,11-27-0,126,depth_duration_stimuli/002545_2014-06-24_13-38-53_094959634447_rgbf000080-resize_4/002545_2014-06-24_13-38-53_094959634447_rgbf000080-resize_4-target.png,125,1.9205,0,3387,124,feet,jsons/VE125_randls_42.json,745600,844656,52,Man
126,970492,DepthScenes,duration_manipulation_targetAtFixation,jsons/VE125_randls_42.json,http://54.235.29.9/FacialAge/BNav_EC2/DepthDuration/v2_depth_duration_MTurk/v2_DepthDuration_HTML.html#28,28,1280,881,1280,1024,9-3-2022,11-27-0,127,depth_duration_stimuli/000414_2014-06-04_19-49-13_260595134347_rgbf000044-resize_0/000414_2014-06-04_19-49-13_260595134347_rgbf000044-resize_0-target.png,125,4.329,6,4449,126,feet,jsons/VE125_randls_42.json,745600,844656,52,Man
127,970492,DepthScenes,duration_manipulation_targetAtFixation,jsons/VE125_randls_42.json,http://54.235.29.9/FacialAge/BNav_EC2/DepthDuration/v2_depth_duration_MTurk/v2_DepthDuration_HTML.html#28,28,1280,881,1280,1024,9-3-2022,11-27-0,128,depth_duration_stimuli/003129_2014-05-12_10-48-10_094959634447_rgbf000100-resize_0/003129_2014-05-12_10-48-10_094959634447_rgbf000100-resize_0-target.png,125,4.9305,1,4042,125,feet,jsons/VE125_randls_42.json,745600,844656,52,Man
128,970492,DepthScenes,duration_manipulation_targetAtFixation,jsons/VE125_randls_42.json,http://54.235.29.9/FacialAge/BNav_EC2/DepthDuration/v2_depth_duration_MTurk/v2_DepthDuration_HTML.html#28,28,1280,881,1280,1024,9-3-2022,11-27-0,129,depth_duration_stimuli/002630_2014-06-24_14-47-50_094959634447_rgbf000055-resize_1/002630_2014-06-24_14-47-50_094959634447_rgbf000055-resize_1-target.png,125,3.0095,5,3558,126,feet,jsons/VE125_randls_42.json,745600,844656,52,Man
129,970492,DepthScenes,duration_manipulation_targetAtFixation,jsons/VE125_randls_42.json,http://54.235.29.9/FacialAge/BNav_EC2/DepthDuration/v2_depth_duration_MTurk/v2_DepthDuration_HTML.html#28,28,1280,881,1280,1024,9-3-2022,11-27-0,130,depth_duration_stimuli/002758_2014-06-22_19-11-20_094959634447_rgbf000128-resize_1/002758_2014-06-22_19-11-20_094959634447_rgbf000128-resize_1-target.png,125,2.555,6,3364,124,feet,jsons/VE125_randls_42.json,745600,844656,52,Man
130,970492,DepthScenes,duration_manipulation_targetAtFixation,jsons/VE125_randls_42.json,http://54.235.29.9/FacialAge/BNav_EC2/DepthDuration/v2_depth_duration_MTurk/v2_DepthDuration_HTML.html#28,28,1280,881,1280,1024,9-3-2022,11-27-0,131,depth_duration_stimuli/000917_2014-06-09_22-45-29_260595134347_rgbf000149-resize_3/000917_2014-06-09_22-45-29_260595134347_rgbf000149-resize_3-target.png,125,4.1865,4,3824,126,feet,jsons/VE125_randls_42.json,745600,844656,52,Man
131,970492,DepthScenes,duration_manipulation_targetAtFixation,jsons/VE125_randls_42.json,http://54.235.29.9/FacialAge/BNav_EC2/DepthDuration/v2_depth_duration_MTurk/v2_DepthDuration_HTML.html#28,28,1280,881,1280,1024,9-3-2022,11-27-0,132,depth_duration_stimuli/002323_2014-06-28_20-01-54_260595134347_rgbf000051-resize_4/002323_2014-06-28_20-01-54_260595134347_rgbf000051-resize_4-target.png,125,3.7310000000000003,2,3924,126,feet,jsons/VE125_randls_42.json,745600,844656,52,Man
132,970492,DepthScenes,duration_manipulation_targetAtFixation,jsons/VE125_randls_42.json,http://54.235.29.9/FacialAge/BNav_EC2/DepthDuration/v2_depth_duration_MTurk/v2_DepthDuration_HTML.html#28,28,1280,881,1280,1024,9-3-2022,11-27-0,133,depth_duration_stimuli/001806_2014-06-26_20-50-20_260595134347_rgbf000091-resize_1/001806_2014-06-26_20-50-20_260595134347_rgbf000091-resize_1-target.png,125,2.7305,2,3372,126,feet,jsons/VE125_randls_42.json,745600,844656,52,Man
133,970492,DepthScenes,duration_manipulation_targetAtFixation,jsons/VE125_randls_42.json,http://54.235.29.9/FacialAge/BNav_EC2/DepthDuration/v2_depth_duration_MTurk/v2_DepthDuration_HTML.html#28,28,1280,881,1280,1024,9-3-2022,11-27-0,134,depth_duration_stimuli/001617_2014-06-20_11-35-32_260595134347_rgbf000066-resize_1/001617_2014-06-20_11-35-32_260595134347_rgbf000066-resize_1-target.png,125,3.7910000000000004,6,3172,126,feet,jsons/VE125_randls_42.json,745600,844656,52,Man
134,970492,DepthScenes,duration_manipulation_targetAtFixation,jsons/VE125_randls_42.json,http://54.235.29.9/FacialAge/BNav_EC2/DepthDuration/v2_depth_duration_MTurk/v2_DepthDuration_HTML.html#28,28,1280,881,1280,1024,9-3-2022,11-27-0,135,depth_duration_stimuli/002072_2014-06-24_21-48-06_260595134347_rgbf000115-resize_0/002072_2014-06-24_21-48-06_260595134347_rgbf000115-resize-original.jpg,125,4.702,4,3814,125,feet,jsons/VE125_randls_42.json,745600,844656,52,Man
135,970492,DepthScenes,duration_manipulation_targetAtFixation,jsons/VE125_randls_42.json,http://54.235.29.9/FacialAge/BNav_EC2/DepthDuration/v2_depth_duration_MTurk/v2_DepthDuration_HTML.html#28,28,1280,881,1280,1024,9-3-2022,11-27-0,136,depth_duration_stimuli/001199_2014-06-17_16-03-48_260595134347_rgbf000077-resize_0/001199_2014-06-17_16-03-48_260595134347_rgbf000077-resize_0-target.png,125,3.4375,3,3227,126,feet,jsons/VE125_randls_42.json,745600,844656,52,Man
136,970492,DepthScenes,duration_manipulation_targetAtFixation,jsons/VE125_randls_42.json,http://54.235.29.9/FacialAge/BNav_EC2/DepthDuration/v2_depth_duration_MTurk/v2_DepthDuration_HTML.html#28,28,1280,881,1280,1024,9-3-2022,11-27-0,137,depth_duration_stimuli/000502_2014-06-08_23-02-32_260595134347_rgbf000063-resize_4/000502_2014-06-08_23-02-32_260595134347_rgbf000063-resize_4-target.png,125,2.431,3,2922,124,feet,jsons/VE125_randls_42.json,745600,844656,52,Man
137,970492,DepthScenes,duration_manipulation_targetAtFixation,jsons/VE125_randls_42.json,http://54.235.29.9/FacialAge/BNav_EC2/DepthDuration/v2_depth_duration_MTurk/v2_DepthDuration_HTML.html#28,28,1280,881,1280,1024,9-3-2022,11-27-0,138,depth_duration_stimuli/003492_2014-05-21_15-50-55_094959634447_rgbf000828-resize_1/003492_2014-05-21_15-50-55_094959634447_rgbf000828-resize_1-target.png,125,4.06875,6,3525,124,feet,jsons/VE125_randls_42.json,745600,844656,52,Man
138,970492,DepthScenes,duration_manipulation_targetAtFixation,jsons/VE125_randls_42.json,http://54.235.29.9/FacialAge/BNav_EC2/DepthDuration/v2_depth_duration_MTurk/v2_DepthDuration_HTML.html#28,28,1280,881,1280,1024,9-3-2022,11-27-0,139,depth_duration_stimuli/002568_2014-06-24_13-59-21_094959634447_rgbf000062-resize_4/002568_2014-06-24_13-59-21_094959634447_rgbf000062-resize_4-target.png,125,3.015,0,3652,125,feet,jsons/VE125_randls_42.json,745600,844656,52,Man
139,970492,DepthScenes,duration_manipulation_targetAtFixation,jsons/VE125_randls_42.json,http://54.235.29.9/FacialAge/BNav_EC2/DepthDuration/v2_depth_duration_MTurk/v2_DepthDuration_HTML.html#28,28,1280,881,1280,1024,9-3-2022,11-27-0,140,depth_duration_stimuli/001011_2014-06-08_23-18-54_260595134347_rgbf000044-resize_4/001011_2014-06-08_23-18-54_260595134347_rgbf000044-resize_4-target.png,125,2.4730000000000003,6,4005,124,feet,jsons/VE125_randls_42.json,745600,844656,52,Man
140,970492,DepthScenes,duration_manipulation_targetAtFixation,jsons/VE125_randls_42.json,http://54.235.29.9/FacialAge/BNav_EC2/DepthDuration/v2_depth_duration_MTurk/v2_DepthDuration_HTML.html#28,28,1280,881,1280,1024,9-3-2022,11-27-0,141,depth_duration_stimuli/002875_2014-06-01_15-19-00_094959634447_rgbf000151-resize_1/002875_2014-06-01_15-19-00_094959634447_rgbf000151-resize_1-target.png,125,1.9675,3,3204,126,feet,jsons/VE125_randls_42.json,745600,844656,52,Man
141,970492,DepthScenes,duration_manipulation_targetAtFixation,jsons/VE125_randls_42.json,http://54.235.29.9/FacialAge/BNav_EC2/DepthDuration/v2_depth_duration_MTurk/v2_DepthDuration_HTML.html#28,28,1280,881,1280,1024,9-3-2022,11-27-0,142,depth_duration_stimuli/002118_2014-06-25_20-32-08_260595134347_rgbf000078-resize_1/002118_2014-06-25_20-32-08_260595134347_rgbf000078-resize_1-target.png,125,2.6460000000000004,3,3550,125,feet,jsons/VE125_randls_42.json,745600,844656,52,Man
142,970492,DepthScenes,duration_manipulation_targetAtFixation,jsons/VE125_randls_42.json,http://54.235.29.9/FacialAge/BNav_EC2/DepthDuration/v2_depth_duration_MTurk/v2_DepthDuration_HTML.html#28,28,1280,881,1280,1024,9-3-2022,11-27-0,143,depth_duration_stimuli/001516_2014-06-20_16-25-09_260595134347_rgbf000076-resize_2/001516_2014-06-20_16-25-09_260595134347_rgbf000076-resize_2-target.png,125,1.7445,0,3986,125,feet,jsons/VE125_randls_42.json,745600,844656,52,Man
143,970492,DepthScenes,duration_manipulation_targetAtFixation,jsons/VE125_randls_42.json,http://54.235.29.9/FacialAge/BNav_EC2/DepthDuration/v2_depth_duration_MTurk/v2_DepthDuration_HTML.html#28,28,1280,881,1280,1024,9-3-2022,11-27-0,144,depth_duration_stimuli/000009_2014-05-26_14-32-05_260595134347_rgbf000034-resize_3/000009_2014-05-26_14-32-05_260595134347_rgbf000034-resize_3-target.png,125,3.8715,7,3727,124,feet,jsons/VE125_randls_42.json,745600,844656,52,Man
144,970492,DepthScenes,duration_manipulation_targetAtFixation,jsons/VE125_randls_42.json,http://54.235.29.9/FacialAge/BNav_EC2/DepthDuration/v2_depth_duration_MTurk/v2_DepthDuration_HTML.html#28,28,1280,881,1280,1024,9-3-2022,11-27-0,145,depth_duration_stimuli/001828_2014-06-26_21-40-03_260595134347_rgbf000024-resize_0/001828_2014-06-26_21-40-03_260595134347_rgbf000024-resize_0-target.png,125,4.8260000000000005,4,2981,126,feet,jsons/VE125_randls_42.json,745600,844656,52,Man
145,970492,DepthScenes,duration_manipulation_targetAtFixation,jsons/VE125_randls_42.json,http://54.235.29.9/FacialAge/BNav_EC2/DepthDuration/v2_depth_duration_MTurk/v2_DepthDuration_HTML.html#28,28,1280,881,1280,1024,9-3-2022,11-27-0,146,depth_duration_stimuli/001498_2014-06-19_17-45-14_260595134347_rgbf000129-resize_4/001498_2014-06-19_17-45-14_260595134347_rgbf000129-resize-original.jpg,125,1.4075,3,3390,126,feet,jsons/VE125_randls_42.json,745600,844656,52,Man
146,970492,DepthScenes,duration_manipulation_targetAtFixation,jsons/VE125_randls_42.json,http://54.235.29.9/FacialAge/BNav_EC2/DepthDuration/v2_depth_duration_MTurk/v2_DepthDuration_HTML.html#28,28,1280,881,1280,1024,9-3-2022,11-27-0,147,depth_duration_stimuli/000906_2014-06-08_13-35-43_260595134347_rgbf000155-resize_1/000906_2014-06-08_13-35-43_260595134347_rgbf000155-resize_1-target.png,125,2.8489999999999998,4,3048,125,feet,jsons/VE125_randls_42.json,745600,844656,52,Man
147,970492,DepthScenes,duration_manipulation_targetAtFixation,jsons/VE125_randls_42.json,http://54.235.29.9/FacialAge/BNav_EC2/DepthDuration/v2_depth_duration_MTurk/v2_DepthDuration_HTML.html#28,28,1280,881,1280,1024,9-3-2022,11-27-0,148,depth_duration_stimuli/002805_2014-06-22_19-54-03_094959634447_rgbf000079-resize_1/002805_2014-06-22_19-54-03_094959634447_rgbf000079-resize_1-target.png,125,3.1439999999999997,0,3167,124,feet,jsons/VE125_randls_42.json,745600,844656,52,Man
148,970492,DepthScenes,duration_manipulation_targetAtFixation,jsons/VE125_randls_42.json,http://54.235.29.9/FacialAge/BNav_EC2/DepthDuration/v2_depth_duration_MTurk/v2_DepthDuration_HTML.html#28,28,1280,881,1280,1024,9-3-2022,11-27-0,149,depth_duration_stimuli/000736_2014-06-08_18-24-15_260595134347_rgbf000206-resize_3/000736_2014-06-08_18-24-15_260595134347_rgbf000206-resize_3-target.png,125,3.515,4,3419,125,feet,jsons/VE125_randls_42.json,745600,844656,52,Man
149,970492,DepthScenes,duration_manipulation_targetAtFixation,jsons/VE125_randls_42.json,http://54.235.29.9/FacialAge/BNav_EC2/DepthDuration/v2_depth_duration_MTurk/v2_DepthDuration_HTML.html#28,28,1280,881,1280,1024,9-3-2022,11-27-0,150,depth_duration_stimuli/000137_2014-05-20_17-04-49_260595134347_rgbf000120-resize_1/000137_2014-05-20_17-04-49_260595134347_rgbf000120-resize_1-target.png,125,3.786,2,3195,125,feet,jsons/VE125_randls_42.json,745600,844656,52,Man
150,970492,DepthScenes,duration_manipulation_targetAtFixation,jsons/VE125_randls_42.json,http://54.235.29.9/FacialAge/BNav_EC2/DepthDuration/v2_depth_duration_MTurk/v2_DepthDuration_HTML.html#28,28,1280,881,1280,1024,9-3-2022,11-27-0,151,depth_duration_stimuli/002988_2014-06-15_12-24-20_094959634447_rgbf000150-resize_1/002988_2014-06-15_12-24-20_094959634447_rgbf000150-resize_1-target.png,125,4.7669999999999995,6,3754,126,feet,jsons/VE125_randls_42.json,745600,844656,52,Man
151,970492,DepthScenes,duration_manipulation_targetAtFixation,jsons/VE125_randls_42.json,http://54.235.29.9/FacialAge/BNav_EC2/DepthDuration/v2_depth_duration_MTurk/v2_DepthDuration_HTML.html#28,28,1280,881,1280,1024,9-3-2022,11-27-0,152,depth_duration_stimuli/001052_2014-06-08_18-24-54_260595134347_rgbf000130-resize_1/001052_2014-06-08_18-24-54_260595134347_rgbf000130-resize_1-target.png,125,4.1045,8,3150,125,feet,jsons/VE125_randls_42.json,745600,844656,52,Man
152,970492,DepthScenes,duration_manipulation_targetAtFixation,jsons/VE125_randls_42.json,http://54.235.29.9/FacialAge/BNav_EC2/DepthDuration/v2_depth_duration_MTurk/v2_DepthDuration_HTML.html#28,28,1280,881,1280,1024,9-3-2022,11-27-0,153,depth_duration_stimuli/003292_2014-05-14_21-53-49_094959634447_rgbf000100-resize_2/003292_2014-05-14_21-53-49_094959634447_rgbf000100-resize_2-target.png,125,3.4815,4,5763,126,feet,jsons/VE125_randls_42.json,745600,844656,52,Man
153,970492,DepthScenes,duration_manipulation_targetAtFixation,jsons/VE125_randls_42.json,http://54.235.29.9/FacialAge/BNav_EC2/DepthDuration/v2_depth_duration_MTurk/v2_DepthDuration_HTML.html#28,28,1280,881,1280,1024,9-3-2022,11-27-0,154,depth_duration_stimuli/002639_2014-06-24_14-51-37_094959634447_rgbf000074-resize_4/002639_2014-06-24_14-51-37_094959634447_rgbf000074-resize_4-target.png,125,4.0375,3,6180,125,feet,jsons/VE125_randls_42.json,745600,844656,52,Man
154,970492,DepthScenes,duration_manipulation_targetAtFixation,jsons/VE125_randls_42.json,http://54.235.29.9/FacialAge/BNav_EC2/DepthDuration/v2_depth_duration_MTurk/v2_DepthDuration_HTML.html#28,28,1280,881,1280,1024,9-3-2022,11-27-0,155,depth_duration_stimuli/000788_2014-06-08_22-34-36_260595134347_rgbf000131-resize_1/000788_2014-06-08_22-34-36_260595134347_rgbf000131-resize_1-target.png,125,3.359,4,4818,125,feet,jsons/VE125_randls_42.json,745600,844656,52,Man
155,970492,DepthScenes,duration_manipulation_targetAtFixation,jsons/VE125_randls_42.json,http://54.235.29.9/FacialAge/BNav_EC2/DepthDuration/v2_depth_duration_MTurk/v2_DepthDuration_HTML.html#28,28,1280,881,1280,1024,9-3-2022,11-27-0,156,depth_duration_stimuli/001235_2014-06-17_16-37-36_260595134347_rgbf000084-resize_4/001235_2014-06-17_16-37-36_260595134347_rgbf000084-resize_4-target.png,125,3.6605,3,3612,124,feet,jsons/VE125_randls_42.json,745600,844656,52,Man
156,970492,DepthScenes,duration_manipulation_targetAtFixation,jsons/VE125_randls_42.json,http://54.235.29.9/FacialAge/BNav_EC2/DepthDuration/v2_depth_duration_MTurk/v2_DepthDuration_HTML.html#28,28,1280,881,1280,1024,9-3-2022,11-27-0,157,depth_duration_stimuli/002784_2014-06-22_19-26-30_094959634447_rgbf000083-resize_3/002784_2014-06-22_19-26-30_094959634447_rgbf000083-resize_3-target.png,125,1.8046666666667,2,4338,125,feet,jsons/VE125_randls_42.json,745600,844656,52,Man
157,970492,DepthScenes,duration_manipulation_targetAtFixation,jsons/VE125_randls_42.json,http://54.235.29.9/FacialAge/BNav_EC2/DepthDuration/v2_depth_duration_MTurk/v2_DepthDuration_HTML.html#28,28,1280,881,1280,1024,9-3-2022,11-27-0,158,depth_duration_stimuli/001100_2014-06-15_17-46-26_260595134347_rgbf000225-resize_2/001100_2014-06-15_17-46-26_260595134347_rgbf000225-resize_2-target.png,125,2.24,2,2930,125,feet,jsons/VE125_randls_42.json,745600,844656,52,Man
158,970492,DepthScenes,duration_manipulation_targetAtFixation,jsons/VE125_randls_42.json,http://54.235.29.9/FacialAge/BNav_EC2/DepthDuration/v2_depth_duration_MTurk/v2_DepthDuration_HTML.html#28,28,1280,881,1280,1024,9-3-2022,11-27-0,159,depth_duration_stimuli/002445_2014-06-28_20-32-16_260595134347_rgbf000029-resize_4/002445_2014-06-28_20-32-16_260595134347_rgbf000029-resize_4-target.png,125,2.5315,3,3863,114,feet,jsons/VE125_randls_42.json,745600,844656,52,Man
159,970492,DepthScenes,duration_manipulation_targetAtFixation,jsons/VE125_randls_42.json,http://54.235.29.9/FacialAge/BNav_EC2/DepthDuration/v2_depth_duration_MTurk/v2_DepthDuration_HTML.html#28,28,1280,881,1280,1024,9-3-2022,11-27-0,160,depth_duration_stimuli/000780_2014-06-08_22-28-29_260595134347_rgbf000126-resize_1/000780_2014-06-08_22-28-29_260595134347_rgbf000126-resize_1-target.png,125,3.3825,5,3292,137,feet,jsons/VE125_randls_42.json,745600,844656,52,Man
160,970492,DepthScenes,duration_manipulation_targetAtFixation,jsons/VE125_randls_42.json,http://54.235.29.9/FacialAge/BNav_EC2/DepthDuration/v2_depth_duration_MTurk/v2_DepthDuration_HTML.html#28,28,1280,881,1280,1024,9-3-2022,11-27-0,161,depth_duration_stimuli/001810_2014-06-26_20-51-35_260595134347_rgbf000040-resize_3/001810_2014-06-26_20-51-35_260595134347_rgbf000040-resize_3-target.png,125,2.2525,3,4428,125,feet,jsons/VE125_randls_42.json,745600,844656,52,Man
161,970492,DepthScenes,duration_manipulation_targetAtFixation,jsons/VE125_randls_42.json,http://54.235.29.9/FacialAge/BNav_EC2/DepthDuration/v2_depth_duration_MTurk/v2_DepthDuration_HTML.html#28,28,1280,881,1280,1024,9-3-2022,11-27-0,162,depth_duration_stimuli/003010_2014-06-15_12-54-35_094959634447_rgbf000112-resize_0/003010_2014-06-15_12-54-35_094959634447_rgbf000112-resize_0-target.png,125,3.1185,8,3653,136,feet,jsons/VE125_randls_42.json,745600,844656,52,Man
162,970492,DepthScenes,duration_manipulation_targetAtFixation,jsons/VE125_randls_42.json,http://54.235.29.9/FacialAge/BNav_EC2/DepthDuration/v2_depth_duration_MTurk/v2_DepthDuration_HTML.html#28,28,1280,881,1280,1024,9-3-2022,11-27-0,163,depth_duration_stimuli/001056_2014-06-08_18-46-44_260595134347_rgbf000068-resize_0/001056_2014-06-08_18-46-44_260595134347_rgbf000068-resize_0-target.png,125,2.6625,5,3836,124,feet,jsons/VE125_randls_42.json,745600,844656,52,Man
163,970492,DepthScenes,duration_manipulation_targetAtFixation,jsons/VE125_randls_42.json,http://54.235.29.9/FacialAge/BNav_EC2/DepthDuration/v2_depth_duration_MTurk/v2_DepthDuration_HTML.html#28,28,1280,881,1280,1024,9-3-2022,11-27-0,164,depth_duration_stimuli/002199_2014-06-28_18-33-56_260595134347_rgbf000074-resize_0/002199_2014-06-28_18-33-56_260595134347_rgbf000074-resize_0-target.png,125,1.996,3,2739,125,feet,jsons/VE125_randls_42.json,745600,844656,52,Man
