,subjID,experimentName,versionName,sequenceName,url,selected_row,windowWidth,windowHeight,screenWidth,screenHeight,startDate,startTime,trial,stimulus,duration,actual_depth,depth_estimate,trial_RT,log_sceneDuration,unitSelection,seq_filepath,experimentTime,totalTime,age,gender
0,970981,DepthScenes,duration_manipulation_targetAtFixation,jsons/v1_VE250_randls_15_rotated.json,http://54.235.29.9/FacialAge/BNav_EC2/DepthDuration/v2_depth_duration_MTurk/v2_DepthDuration_HTML.html#38,38,1280,800,1280,800,8-29-2022,12-31-23,1,depth_duration_stimuli/000409_2014-06-04_19-23-33_260595134347_rgbf000067-resize_0/000409_2014-06-04_19-23-33_260595134347_rgbf000067-resize_0-target.png,250,3.7335,4,5150,239,feet,jsons/v1_VE250_randls_15_rotated.json,734985,1199811,36,Man
1,970981,DepthScenes,duration_manipulation_targetAtFixation,jsons/v1_VE250_randls_15_rotated.json,http://54.235.29.9/FacialAge/BNav_EC2/DepthDuration/v2_depth_duration_MTurk/v2_DepthDuration_HTML.html#38,38,1280,800,1280,800,8-29-2022,12-31-23,2,depth_duration_stimuli/002663_2014-06-13_15-50-26_094959634447_rgbf000075-resize_1/002663_2014-06-13_15-50-26_094959634447_rgbf000075-resize_1-target.png,250,4.7495,0,5487,255,feet,jsons/v1_VE250_randls_15_rotated.json,734985,1199811,36,Man
2,970981,DepthScenes,duration_manipulation_targetAtFixation,jsons/v1_VE250_randls_15_rotated.json,http://54.235.29.9/FacialAge/BNav_EC2/DepthDuration/v2_depth_duration_MTurk/v2_DepthDuration_HTML.html#38,38,1280,800,1280,800,8-29-2022,12-31-23,3,depth_duration_stimuli/000709_2014-06-08_13-51-55_260595134347_rgbf000068-resize_3/000709_2014-06-08_13-51-55_260595134347_rgbf000068-resize_3-target.png,250,1.8030000000000002,2,4473,226,feet,jsons/v1_VE250_randls_15_rotated.json,734985,1199811,36,Man
3,970981,DepthScenes,duration_manipulation_targetAtFixation,jsons/v1_VE250_randls_15_rotated.json,http://54.235.29.9/FacialAge/BNav_EC2/DepthDuration/v2_depth_duration_MTurk/v2_DepthDuration_HTML.html#38,38,1280,800,1280,800,8-29-2022,12-31-23,4,depth_duration_stimuli/002057_2014-06-24_21-00-13_260595134347_rgbf000120-resize_1/002057_2014-06-24_21-00-13_260595134347_rgbf000120-resize_1-target.png,250,2.967,4,3888,255,feet,jsons/v1_VE250_randls_15_rotated.json,734985,1199811,36,Man
4,970981,DepthScenes,duration_manipulation_targetAtFixation,jsons/v1_VE250_randls_15_rotated.json,http://54.235.29.9/FacialAge/BNav_EC2/DepthDuration/v2_depth_duration_MTurk/v2_DepthDuration_HTML.html#38,38,1280,800,1280,800,8-29-2022,12-31-23,5,depth_duration_stimuli/003490_2014-05-21_15-50-11_094959634447_rgbf000101-resize_3/003490_2014-05-21_15-50-11_094959634447_rgbf000101-resize_3-target.png,250,3.6445,3,3826,234,feet,jsons/v1_VE250_randls_15_rotated.json,734985,1199811,36,Man
5,970981,DepthScenes,duration_manipulation_targetAtFixation,jsons/v1_VE250_randls_15_rotated.json,http://54.235.29.9/FacialAge/BNav_EC2/DepthDuration/v2_depth_duration_MTurk/v2_DepthDuration_HTML.html#38,38,1280,800,1280,800,8-29-2022,12-31-23,6,depth_duration_stimuli/001175_2014-06-17_15-45-55_260595134347_rgbf000129-resize_4/001175_2014-06-17_15-45-55_260595134347_rgbf000129-resize_4-target.png,250,4.255,41,3571,251,feet,jsons/v1_VE250_randls_15_rotated.json,734985,1199811,36,Man
6,970981,DepthScenes,duration_manipulation_targetAtFixation,jsons/v1_VE250_randls_15_rotated.json,http://54.235.29.9/FacialAge/BNav_EC2/DepthDuration/v2_depth_duration_MTurk/v2_DepthDuration_HTML.html#38,38,1280,800,1280,800,8-29-2022,12-31-23,7,depth_duration_stimuli/002805_2014-06-22_19-54-03_094959634447_rgbf000079-resize_1/002805_2014-06-22_19-54-03_094959634447_rgbf000079-resize_1-target.png,250,3.1439999999999997,4,3471,262,feet,jsons/v1_VE250_randls_15_rotated.json,734985,1199811,36,Man
7,970981,DepthScenes,duration_manipulation_targetAtFixation,jsons/v1_VE250_randls_15_rotated.json,http://54.235.29.9/FacialAge/BNav_EC2/DepthDuration/v2_depth_duration_MTurk/v2_DepthDuration_HTML.html#38,38,1280,800,1280,800,8-29-2022,12-31-23,8,depth_duration_stimuli/000906_2014-06-08_13-35-43_260595134347_rgbf000155-resize_1/000906_2014-06-08_13-35-43_260595134347_rgbf000155-resize_1-target.png,250,2.8489999999999998,0,4122,199,feet,jsons/v1_VE250_randls_15_rotated.json,734985,1199811,36,Man
8,970981,DepthScenes,duration_manipulation_targetAtFixation,jsons/v1_VE250_randls_15_rotated.json,http://54.235.29.9/FacialAge/BNav_EC2/DepthDuration/v2_depth_duration_MTurk/v2_DepthDuration_HTML.html#38,38,1280,800,1280,800,8-29-2022,12-31-23,9,depth_duration_stimuli/001392_2014-06-19_16-07-59_260595134347_rgbf000046-resize_1/001392_2014-06-19_16-07-59_260595134347_rgbf000046-resize_1-target.png,250,4.135,6,3900,258,feet,jsons/v1_VE250_randls_15_rotated.json,734985,1199811,36,Man
9,970981,DepthScenes,duration_manipulation_targetAtFixation,jsons/v1_VE250_randls_15_rotated.json,http://54.235.29.9/FacialAge/BNav_EC2/DepthDuration/v2_depth_duration_MTurk/v2_DepthDuration_HTML.html#38,38,1280,800,1280,800,8-29-2022,12-31-23,10,depth_duration_stimuli/001570_2014-06-20_17-21-09_260595134347_rgbf000135-resize_4/001570_2014-06-20_17-21-09_260595134347_rgbf000135-resize_4-target.png,250,4.467,1,6395,251,feet,jsons/v1_VE250_randls_15_rotated.json,734985,1199811,36,Man
10,970981,DepthScenes,duration_manipulation_targetAtFixation,jsons/v1_VE250_randls_15_rotated.json,http://54.235.29.9/FacialAge/BNav_EC2/DepthDuration/v2_depth_duration_MTurk/v2_DepthDuration_HTML.html#38,38,1280,800,1280,800,8-29-2022,12-31-23,11,depth_duration_stimuli/001100_2014-06-15_17-46-26_260595134347_rgbf000225-resize_2/001100_2014-06-15_17-46-26_260595134347_rgbf000225-resize_2-target.png,250,2.24,1,4172,242,feet,jsons/v1_VE250_randls_15_rotated.json,734985,1199811,36,Man
11,970981,DepthScenes,duration_manipulation_targetAtFixation,jsons/v1_VE250_randls_15_rotated.json,http://54.235.29.9/FacialAge/BNav_EC2/DepthDuration/v2_depth_duration_MTurk/v2_DepthDuration_HTML.html#38,38,1280,800,1280,800,8-29-2022,12-31-23,12,depth_duration_stimuli/002784_2014-06-22_19-26-30_094959634447_rgbf000083-resize_3/002784_2014-06-22_19-26-30_094959634447_rgbf000083-resize_3-target.png,250,1.8046666666667,2,3626,244,feet,jsons/v1_VE250_randls_15_rotated.json,734985,1199811,36,Man
12,970981,DepthScenes,duration_manipulation_targetAtFixation,jsons/v1_VE250_randls_15_rotated.json,http://54.235.29.9/FacialAge/BNav_EC2/DepthDuration/v2_depth_duration_MTurk/v2_DepthDuration_HTML.html#38,38,1280,800,1280,800,8-29-2022,12-31-23,13,depth_duration_stimuli/000734_2014-06-08_17-39-11_260595134347_rgbf000128-resize_2/000734_2014-06-08_17-39-11_260595134347_rgbf000128-resize_2-target.png,250,4.098,1,2911,247,feet,jsons/v1_VE250_randls_15_rotated.json,734985,1199811,36,Man
13,970981,DepthScenes,duration_manipulation_targetAtFixation,jsons/v1_VE250_randls_15_rotated.json,http://54.235.29.9/FacialAge/BNav_EC2/DepthDuration/v2_depth_duration_MTurk/v2_DepthDuration_HTML.html#38,38,1280,800,1280,800,8-29-2022,12-31-23,14,depth_duration_stimuli/000739_2014-06-08_18-45-58_260595134347_rgbf000068-resize_1/000739_2014-06-08_18-45-58_260595134347_rgbf000068-resize_1-target.png,250,3.534,3,2437,242,feet,jsons/v1_VE250_randls_15_rotated.json,734985,1199811,36,Man
14,970981,DepthScenes,duration_manipulation_targetAtFixation,jsons/v1_VE250_randls_15_rotated.json,http://54.235.29.9/FacialAge/BNav_EC2/DepthDuration/v2_depth_duration_MTurk/v2_DepthDuration_HTML.html#38,38,1280,800,1280,800,8-29-2022,12-31-23,15,depth_duration_stimuli/000749_2014-06-08_21-55-06_260595134347_rgbf000070-resize_2/000749_2014-06-08_21-55-06_260595134347_rgbf000070-resize_2-target.png,250,2.331,2,2347,235,feet,jsons/v1_VE250_randls_15_rotated.json,734985,1199811,36,Man
15,970981,DepthScenes,duration_manipulation_targetAtFixation,jsons/v1_VE250_randls_15_rotated.json,http://54.235.29.9/FacialAge/BNav_EC2/DepthDuration/v2_depth_duration_MTurk/v2_DepthDuration_HTML.html#38,38,1280,800,1280,800,8-29-2022,12-31-23,16,depth_duration_stimuli/002788_2014-06-22_19-36-03_094959634447_rgbf000088-resize_2/002788_2014-06-22_19-36-03_094959634447_rgbf000088-resize_2-target.png,250,1.6465,1,2950,261,feet,jsons/v1_VE250_randls_15_rotated.json,734985,1199811,36,Man
16,970981,DepthScenes,duration_manipulation_targetAtFixation,jsons/v1_VE250_randls_15_rotated.json,http://54.235.29.9/FacialAge/BNav_EC2/DepthDuration/v2_depth_duration_MTurk/v2_DepthDuration_HTML.html#38,38,1280,800,1280,800,8-29-2022,12-31-23,17,depth_duration_stimuli/000677_2014-06-08_23-10-32_260595134347_rgbf000158-resize_6/000677_2014-06-08_23-10-32_260595134347_rgbf000158-resize_6-target.png,250,3.556,54,6937,239,feet,jsons/v1_VE250_randls_15_rotated.json,734985,1199811,36,Man
17,970981,DepthScenes,duration_manipulation_targetAtFixation,jsons/v1_VE250_randls_15_rotated.json,http://54.235.29.9/FacialAge/BNav_EC2/DepthDuration/v2_depth_duration_MTurk/v2_DepthDuration_HTML.html#38,38,1280,800,1280,800,8-29-2022,12-31-23,18,depth_duration_stimuli/001029_2014-06-08_13-17-57_260595134347_rgbf000065-resize_1/001029_2014-06-08_13-17-57_260595134347_rgbf000065-resize_1-target.png,250,3.0835,1,9920,250,feet,jsons/v1_VE250_randls_15_rotated.json,734985,1199811,36,Man
18,970981,DepthScenes,duration_manipulation_targetAtFixation,jsons/v1_VE250_randls_15_rotated.json,http://54.235.29.9/FacialAge/BNav_EC2/DepthDuration/v2_depth_duration_MTurk/v2_DepthDuration_HTML.html#38,38,1280,800,1280,800,8-29-2022,12-31-23,19,depth_duration_stimuli/001498_2014-06-19_17-45-14_260595134347_rgbf000129-resize_4/001498_2014-06-19_17-45-14_260595134347_rgbf000129-resize-original.jpg,250,1.4075,2,27879,250,feet,jsons/v1_VE250_randls_15_rotated.json,734985,1199811,36,Man
19,970981,DepthScenes,duration_manipulation_targetAtFixation,jsons/v1_VE250_randls_15_rotated.json,http://54.235.29.9/FacialAge/BNav_EC2/DepthDuration/v2_depth_duration_MTurk/v2_DepthDuration_HTML.html#38,38,1280,800,1280,800,8-29-2022,12-31-23,20,depth_duration_stimuli/000457_2014-06-08_16-52-43_260595134347_rgbf000199-resize_1/000457_2014-06-08_16-52-43_260595134347_rgbf000199-resize_1-target.png,250,3.6489999999999996,0,2160,242,feet,jsons/v1_VE250_randls_15_rotated.json,734985,1199811,36,Man
20,970981,DepthScenes,duration_manipulation_targetAtFixation,jsons/v1_VE250_randls_15_rotated.json,http://54.235.29.9/FacialAge/BNav_EC2/DepthDuration/v2_depth_duration_MTurk/v2_DepthDuration_HTML.html#38,38,1280,800,1280,800,8-29-2022,12-31-23,21,depth_duration_stimuli/000929_2014-06-09_16-33-19_260595134347_rgbf000139-resize_0/000929_2014-06-09_16-33-19_260595134347_rgbf000139-resize_0-target.png,250,2.8680000000000003,1,3078,250,feet,jsons/v1_VE250_randls_15_rotated.json,734985,1199811,36,Man
21,970981,DepthScenes,duration_manipulation_targetAtFixation,jsons/v1_VE250_randls_15_rotated.json,http://54.235.29.9/FacialAge/BNav_EC2/DepthDuration/v2_depth_duration_MTurk/v2_DepthDuration_HTML.html#38,38,1280,800,1280,800,8-29-2022,12-31-23,22,depth_duration_stimuli/002467_2014-06-28_20-38-07_260595134347_rgbf000026-resize_2/002467_2014-06-28_20-38-07_260595134347_rgbf000026-resize_2-target.png,250,4.742,3,3535,249,feet,jsons/v1_VE250_randls_15_rotated.json,734985,1199811,36,Man
22,970981,DepthScenes,duration_manipulation_targetAtFixation,jsons/v1_VE250_randls_15_rotated.json,http://54.235.29.9/FacialAge/BNav_EC2/DepthDuration/v2_depth_duration_MTurk/v2_DepthDuration_HTML.html#38,38,1280,800,1280,800,8-29-2022,12-31-23,23,depth_duration_stimuli/002570_2014-06-24_13-59-54_094959634447_rgbf000059-resize_0/002570_2014-06-24_13-59-54_094959634447_rgbf000059-resize_0-target.png,250,4.037,2,13110,243,feet,jsons/v1_VE250_randls_15_rotated.json,734985,1199811,36,Man
23,970981,DepthScenes,duration_manipulation_targetAtFixation,jsons/v1_VE250_randls_15_rotated.json,http://54.235.29.9/FacialAge/BNav_EC2/DepthDuration/v2_depth_duration_MTurk/v2_DepthDuration_HTML.html#38,38,1280,800,1280,800,8-29-2022,12-31-23,24,depth_duration_stimuli/001450_2014-06-19_17-02-03_260595134347_rgbf000203-resize_4/001450_2014-06-19_17-02-03_260595134347_rgbf000203-resize_4-target.png,250,4.0106666666667,3,3303,245,feet,jsons/v1_VE250_randls_15_rotated.json,734985,1199811,36,Man
24,970981,DepthScenes,duration_manipulation_targetAtFixation,jsons/v1_VE250_randls_15_rotated.json,http://54.235.29.9/FacialAge/BNav_EC2/DepthDuration/v2_depth_duration_MTurk/v2_DepthDuration_HTML.html#38,38,1280,800,1280,800,8-29-2022,12-31-23,25,depth_duration_stimuli/001449_2014-06-19_17-01-27_260595134347_rgbf000116-resize_2/001449_2014-06-19_17-01-27_260595134347_rgbf000116-resize_2-target.png,250,3.452,2,3032,250,feet,jsons/v1_VE250_randls_15_rotated.json,734985,1199811,36,Man
25,970981,DepthScenes,duration_manipulation_targetAtFixation,jsons/v1_VE250_randls_15_rotated.json,http://54.235.29.9/FacialAge/BNav_EC2/DepthDuration/v2_depth_duration_MTurk/v2_DepthDuration_HTML.html#38,38,1280,800,1280,800,8-29-2022,12-31-23,26,depth_duration_stimuli/002953_2014-06-08_17-32-18_094959634447_rgbf000059-resize_5/002953_2014-06-08_17-32-18_094959634447_rgbf000059-resize_5-target.png,250,1.551,2,2727,250,feet,jsons/v1_VE250_randls_15_rotated.json,734985,1199811,36,Man
26,970981,DepthScenes,duration_manipulation_targetAtFixation,jsons/v1_VE250_randls_15_rotated.json,http://54.235.29.9/FacialAge/BNav_EC2/DepthDuration/v2_depth_duration_MTurk/v2_DepthDuration_HTML.html#38,38,1280,800,1280,800,8-29-2022,12-31-23,27,depth_duration_stimuli/000878_2014-06-08_22-52-45_260595134347_rgbf000045-resize_2/000878_2014-06-08_22-52-45_260595134347_rgbf000045-resize_2-target.png,250,2.092,6,3657,246,feet,jsons/v1_VE250_randls_15_rotated.json,734985,1199811,36,Man
27,970981,DepthScenes,duration_manipulation_targetAtFixation,jsons/v1_VE250_randls_15_rotated.json,http://54.235.29.9/FacialAge/BNav_EC2/DepthDuration/v2_depth_duration_MTurk/v2_DepthDuration_HTML.html#38,38,1280,800,1280,800,8-29-2022,12-31-23,28,depth_duration_stimuli/000854_2014-06-09_19-43-13_260595134347_rgbf000066-resize_0/000854_2014-06-09_19-43-13_260595134347_rgbf000066-resize_0-target.png,250,3.068,1,2344,240,feet,jsons/v1_VE250_randls_15_rotated.json,734985,1199811,36,Man
28,970981,DepthScenes,duration_manipulation_targetAtFixation,jsons/v1_VE250_randls_15_rotated.json,http://54.235.29.9/FacialAge/BNav_EC2/DepthDuration/v2_depth_duration_MTurk/v2_DepthDuration_HTML.html#38,38,1280,800,1280,800,8-29-2022,12-31-23,29,depth_duration_stimuli/000758_2014-06-08_22-05-08_260595134347_rgbf000085-resize_0/000758_2014-06-08_22-05-08_260595134347_rgbf000085-resize_0-target.png,250,3.3810000000000002,3,4329,235,feet,jsons/v1_VE250_randls_15_rotated.json,734985,1199811,36,Man
29,970981,DepthScenes,duration_manipulation_targetAtFixation,jsons/v1_VE250_randls_15_rotated.json,http://54.235.29.9/FacialAge/BNav_EC2/DepthDuration/v2_depth_duration_MTurk/v2_DepthDuration_HTML.html#38,38,1280,800,1280,800,8-29-2022,12-31-23,30,depth_duration_stimuli/002072_2014-06-24_21-48-06_260595134347_rgbf000115-resize_0/002072_2014-06-24_21-48-06_260595134347_rgbf000115-resize-original.jpg,250,4.702,0,2775,251,feet,jsons/v1_VE250_randls_15_rotated.json,734985,1199811,36,Man
30,970981,DepthScenes,duration_manipulation_targetAtFixation,jsons/v1_VE250_randls_15_rotated.json,http://54.235.29.9/FacialAge/BNav_EC2/DepthDuration/v2_depth_duration_MTurk/v2_DepthDuration_HTML.html#38,38,1280,800,1280,800,8-29-2022,12-31-23,31,depth_duration_stimuli/001132_2014-06-17_14-48-54_260595134347_rgbf000100-resize_2/001132_2014-06-17_14-48-54_260595134347_rgbf000100-resize_2-target.png,250,3.753,2,2884,247,feet,jsons/v1_VE250_randls_15_rotated.json,734985,1199811,36,Man
31,970981,DepthScenes,duration_manipulation_targetAtFixation,jsons/v1_VE250_randls_15_rotated.json,http://54.235.29.9/FacialAge/BNav_EC2/DepthDuration/v2_depth_duration_MTurk/v2_DepthDuration_HTML.html#38,38,1280,800,1280,800,8-29-2022,12-31-23,32,depth_duration_stimuli/001133_2014-06-17_14-49-16_260595134347_rgbf000100-resize_0/001133_2014-06-17_14-49-16_260595134347_rgbf000100-resize_0-target.png,250,4.2115,3,2769,283,feet,jsons/v1_VE250_randls_15_rotated.json,734985,1199811,36,Man
32,970981,DepthScenes,duration_manipulation_targetAtFixation,jsons/v1_VE250_randls_15_rotated.json,http://54.235.29.9/FacialAge/BNav_EC2/DepthDuration/v2_depth_duration_MTurk/v2_DepthDuration_HTML.html#38,38,1280,800,1280,800,8-29-2022,12-31-23,33,depth_duration_stimuli/001447_2014-06-19_17-00-32_260595134347_rgbf000082-resize_5/001447_2014-06-19_17-00-32_260595134347_rgbf000082-resize_5-target.png,250,4.13775,1,3329,241,feet,jsons/v1_VE250_randls_15_rotated.json,734985,1199811,36,Man
33,970981,DepthScenes,duration_manipulation_targetAtFixation,jsons/v1_VE250_randls_15_rotated.json,http://54.235.29.9/FacialAge/BNav_EC2/DepthDuration/v2_depth_duration_MTurk/v2_DepthDuration_HTML.html#38,38,1280,800,1280,800,8-29-2022,12-31-23,34,depth_duration_stimuli/000447_2014-06-08_16-15-46_260595134347_rgbf000130-resize_1/000447_2014-06-08_16-15-46_260595134347_rgbf000130-resize_1-target.png,250,4.479,2,5440,261,feet,jsons/v1_VE250_randls_15_rotated.json,734985,1199811,36,Man
34,970981,DepthScenes,duration_manipulation_targetAtFixation,jsons/v1_VE250_randls_15_rotated.json,http://54.235.29.9/FacialAge/BNav_EC2/DepthDuration/v2_depth_duration_MTurk/v2_DepthDuration_HTML.html#38,38,1280,800,1280,800,8-29-2022,12-31-23,35,depth_duration_stimuli/000191_2014-05-12_17-07-38_260595134347_rgbf000199-resize_0/000191_2014-05-12_17-07-38_260595134347_rgbf000199-resize_0-target.png,250,3.7995,2,5207,252,feet,jsons/v1_VE250_randls_15_rotated.json,734985,1199811,36,Man
35,970981,DepthScenes,duration_manipulation_targetAtFixation,jsons/v1_VE250_randls_15_rotated.json,http://54.235.29.9/FacialAge/BNav_EC2/DepthDuration/v2_depth_duration_MTurk/v2_DepthDuration_HTML.html#38,38,1280,800,1280,800,8-29-2022,12-31-23,36,depth_duration_stimuli/000493_2014-06-09_21-01-18_260595134347_rgbf000196-resize_3/000493_2014-06-09_21-01-18_260595134347_rgbf000196-resize_3-target.png,250,3.44,1,2696,248,feet,jsons/v1_VE250_randls_15_rotated.json,734985,1199811,36,Man
36,970981,DepthScenes,duration_manipulation_targetAtFixation,jsons/v1_VE250_randls_15_rotated.json,http://54.235.29.9/FacialAge/BNav_EC2/DepthDuration/v2_depth_duration_MTurk/v2_DepthDuration_HTML.html#38,38,1280,800,1280,800,8-29-2022,12-31-23,37,depth_duration_stimuli/000691_2014-06-08_13-08-50_260595134347_rgbf000132-resize_3/000691_2014-06-08_13-08-50_260595134347_rgbf000132-resize_3-target.png,250,4.1530000000000005,3,4121,249,feet,jsons/v1_VE250_randls_15_rotated.json,734985,1199811,36,Man
37,970981,DepthScenes,duration_manipulation_targetAtFixation,jsons/v1_VE250_randls_15_rotated.json,http://54.235.29.9/FacialAge/BNav_EC2/DepthDuration/v2_depth_duration_MTurk/v2_DepthDuration_HTML.html#38,38,1280,800,1280,800,8-29-2022,12-31-23,38,depth_duration_stimuli/002213_2014-06-28_18-37-58_260595134347_rgbf000055-resize_1/002213_2014-06-28_18-37-58_260595134347_rgbf000055-resize_1-target.png,250,3.62,5,2518,254,feet,jsons/v1_VE250_randls_15_rotated.json,734985,1199811,36,Man
38,970981,DepthScenes,duration_manipulation_targetAtFixation,jsons/v1_VE250_randls_15_rotated.json,http://54.235.29.9/FacialAge/BNav_EC2/DepthDuration/v2_depth_duration_MTurk/v2_DepthDuration_HTML.html#38,38,1280,800,1280,800,8-29-2022,12-31-23,39,depth_duration_stimuli/002103_2014-06-25_20-00-40_260595134347_rgbf000049-resize_0/002103_2014-06-25_20-00-40_260595134347_rgbf000049-resize_0-target.png,250,4.105,2,4457,257,feet,jsons/v1_VE250_randls_15_rotated.json,734985,1199811,36,Man
39,970981,DepthScenes,duration_manipulation_targetAtFixation,jsons/v1_VE250_randls_15_rotated.json,http://54.235.29.9/FacialAge/BNav_EC2/DepthDuration/v2_depth_duration_MTurk/v2_DepthDuration_HTML.html#38,38,1280,800,1280,800,8-29-2022,12-31-23,40,depth_duration_stimuli/002039_2014-06-24_20-22-38_260595134347_rgbf000084-resize_1/002039_2014-06-24_20-22-38_260595134347_rgbf000084-resize_1-target.png,250,4.408,0,2902,251,feet,jsons/v1_VE250_randls_15_rotated.json,734985,1199811,36,Man
40,970981,DepthScenes,duration_manipulation_targetAtFixation,jsons/v1_VE250_randls_15_rotated.json,http://54.235.29.9/FacialAge/BNav_EC2/DepthDuration/v2_depth_duration_MTurk/v2_DepthDuration_HTML.html#38,38,1280,800,1280,800,8-29-2022,12-31-23,41,depth_duration_stimuli/003048_2014-06-15_13-49-43_094959634447_rgbf000150-resize_1/003048_2014-06-15_13-49-43_094959634447_rgbf000150-resize_1-target.png,250,4.0035,3,3061,249,feet,jsons/v1_VE250_randls_15_rotated.json,734985,1199811,36,Man
41,970981,DepthScenes,duration_manipulation_targetAtFixation,jsons/v1_VE250_randls_15_rotated.json,http://54.235.29.9/FacialAge/BNav_EC2/DepthDuration/v2_depth_duration_MTurk/v2_DepthDuration_HTML.html#38,38,1280,800,1280,800,8-29-2022,12-31-23,42,depth_duration_stimuli/002043_2014-06-24_20-29-38_260595134347_rgbf000039-resize_4/002043_2014-06-24_20-29-38_260595134347_rgbf000039-resize_4-target.png,250,2.8435,1,2535,249,feet,jsons/v1_VE250_randls_15_rotated.json,734985,1199811,36,Man
42,970981,DepthScenes,duration_manipulation_targetAtFixation,jsons/v1_VE250_randls_15_rotated.json,http://54.235.29.9/FacialAge/BNav_EC2/DepthDuration/v2_depth_duration_MTurk/v2_DepthDuration_HTML.html#38,38,1280,800,1280,800,8-29-2022,12-31-23,43,depth_duration_stimuli/001136_2014-06-17_15-19-41_260595134347_rgbf000076-resize_3/001136_2014-06-17_15-19-41_260595134347_rgbf000076-resize_3-target.png,250,1.8655,0,3400,249,feet,jsons/v1_VE250_randls_15_rotated.json,734985,1199811,36,Man
43,970981,DepthScenes,duration_manipulation_targetAtFixation,jsons/v1_VE250_randls_15_rotated.json,http://54.235.29.9/FacialAge/BNav_EC2/DepthDuration/v2_depth_duration_MTurk/v2_DepthDuration_HTML.html#38,38,1280,800,1280,800,8-29-2022,12-31-23,44,depth_duration_stimuli/001164_2014-06-17_15-35-46_260595134347_rgbf000085-resize_3/001164_2014-06-17_15-35-46_260595134347_rgbf000085-resize_3-target.png,250,2.354,3,2797,133,feet,jsons/v1_VE250_randls_15_rotated.json,734985,1199811,36,Man
44,970981,DepthScenes,duration_manipulation_targetAtFixation,jsons/v1_VE250_randls_15_rotated.json,http://54.235.29.9/FacialAge/BNav_EC2/DepthDuration/v2_depth_duration_MTurk/v2_DepthDuration_HTML.html#38,38,1280,800,1280,800,8-29-2022,12-31-23,45,depth_duration_stimuli/002545_2014-06-24_13-38-53_094959634447_rgbf000080-resize_4/002545_2014-06-24_13-38-53_094959634447_rgbf000080-resize_4-target.png,250,1.9205,3,4108,310,feet,jsons/v1_VE250_randls_15_rotated.json,734985,1199811,36,Man
45,970981,DepthScenes,duration_manipulation_targetAtFixation,jsons/v1_VE250_randls_15_rotated.json,http://54.235.29.9/FacialAge/BNav_EC2/DepthDuration/v2_depth_duration_MTurk/v2_DepthDuration_HTML.html#38,38,1280,800,1280,800,8-29-2022,12-31-23,46,depth_duration_stimuli/001092_2014-06-15_17-34-58_260595134347_rgbf000171-resize_3/001092_2014-06-15_17-34-58_260595134347_rgbf000171-resize_3-target.png,250,2.6935,3,2667,243,feet,jsons/v1_VE250_randls_15_rotated.json,734985,1199811,36,Man
46,970981,DepthScenes,duration_manipulation_targetAtFixation,jsons/v1_VE250_randls_15_rotated.json,http://54.235.29.9/FacialAge/BNav_EC2/DepthDuration/v2_depth_duration_MTurk/v2_DepthDuration_HTML.html#38,38,1280,800,1280,800,8-29-2022,12-31-23,47,depth_duration_stimuli/002750_2014-06-22_19-08-03_094959634447_rgbf000094-resize_4/002750_2014-06-22_19-08-03_094959634447_rgbf000094-resize_4-target.png,250,2.354,1,2504,257,feet,jsons/v1_VE250_randls_15_rotated.json,734985,1199811,36,Man
47,970981,DepthScenes,duration_manipulation_targetAtFixation,jsons/v1_VE250_randls_15_rotated.json,http://54.235.29.9/FacialAge/BNav_EC2/DepthDuration/v2_depth_duration_MTurk/v2_DepthDuration_HTML.html#38,38,1280,800,1280,800,8-29-2022,12-31-23,48,depth_duration_stimuli/002549_2014-06-24_13-41-39_094959634447_rgbf000022-resize_3/002549_2014-06-24_13-41-39_094959634447_rgbf000022-resize_3-target.png,250,1.476,1,3535,240,feet,jsons/v1_VE250_randls_15_rotated.json,734985,1199811,36,Man
48,970981,DepthScenes,duration_manipulation_targetAtFixation,jsons/v1_VE250_randls_15_rotated.json,http://54.235.29.9/FacialAge/BNav_EC2/DepthDuration/v2_depth_duration_MTurk/v2_DepthDuration_HTML.html#38,38,1280,800,1280,800,8-29-2022,12-31-23,49,depth_duration_stimuli/001170_2014-06-17_15-43-44_260595134347_rgbf000096-resize_6/001170_2014-06-17_15-43-44_260595134347_rgbf000096-resize-original.jpg,250,1.1909999999999998,0,3346,242,feet,jsons/v1_VE250_randls_15_rotated.json,734985,1199811,36,Man
49,970981,DepthScenes,duration_manipulation_targetAtFixation,jsons/v1_VE250_randls_15_rotated.json,http://54.235.29.9/FacialAge/BNav_EC2/DepthDuration/v2_depth_duration_MTurk/v2_DepthDuration_HTML.html#38,38,1280,800,1280,800,8-29-2022,12-31-23,50,depth_duration_stimuli/001032_2014-06-08_13-23-17_260595134347_rgbf000021-resize_3/001032_2014-06-08_13-23-17_260595134347_rgbf000021-resize_3-target.png,250,3.2725,2,4209,246,feet,jsons/v1_VE250_randls_15_rotated.json,734985,1199811,36,Man
50,970981,DepthScenes,duration_manipulation_targetAtFixation,jsons/v1_VE250_randls_15_rotated.json,http://54.235.29.9/FacialAge/BNav_EC2/DepthDuration/v2_depth_duration_MTurk/v2_DepthDuration_HTML.html#38,38,1280,800,1280,800,8-29-2022,12-31-23,51,depth_duration_stimuli/001059_2014-06-08_21-53-27_260595134347_rgbf000061-resize_4/001059_2014-06-08_21-53-27_260595134347_rgbf000061-resize_4-target.png,250,2.4185,2,2840,250,feet,jsons/v1_VE250_randls_15_rotated.json,734985,1199811,36,Man
51,970981,DepthScenes,duration_manipulation_targetAtFixation,jsons/v1_VE250_randls_15_rotated.json,http://54.235.29.9/FacialAge/BNav_EC2/DepthDuration/v2_depth_duration_MTurk/v2_DepthDuration_HTML.html#38,38,1280,800,1280,800,8-29-2022,12-31-23,52,depth_duration_stimuli/000109_2014-05-14_23-41-52_260595134347_rgbf000035-resize_9/000109_2014-05-14_23-41-52_260595134347_rgbf000035-resize_9-target.png,250,1.3545,1,3172,251,feet,jsons/v1_VE250_randls_15_rotated.json,734985,1199811,36,Man
52,970981,DepthScenes,duration_manipulation_targetAtFixation,jsons/v1_VE250_randls_15_rotated.json,http://54.235.29.9/FacialAge/BNav_EC2/DepthDuration/v2_depth_duration_MTurk/v2_DepthDuration_HTML.html#38,38,1280,800,1280,800,8-29-2022,12-31-23,53,depth_duration_stimuli/000470_2014-06-09_19-42-40_260595134347_rgbf000094-resize_1/000470_2014-06-09_19-42-40_260595134347_rgbf000094-resize_1-target.png,250,1.831,1,2693,260,feet,jsons/v1_VE250_randls_15_rotated.json,734985,1199811,36,Man
53,970981,DepthScenes,duration_manipulation_targetAtFixation,jsons/v1_VE250_randls_15_rotated.json,http://54.235.29.9/FacialAge/BNav_EC2/DepthDuration/v2_depth_duration_MTurk/v2_DepthDuration_HTML.html#38,38,1280,800,1280,800,8-29-2022,12-31-23,54,depth_duration_stimuli/002199_2014-06-28_18-33-56_260595134347_rgbf000074-resize_0/002199_2014-06-28_18-33-56_260595134347_rgbf000074-resize_0-target.png,250,1.996,3,2621,244,feet,jsons/v1_VE250_randls_15_rotated.json,734985,1199811,36,Man
54,970981,DepthScenes,duration_manipulation_targetAtFixation,jsons/v1_VE250_randls_15_rotated.json,http://54.235.29.9/FacialAge/BNav_EC2/DepthDuration/v2_depth_duration_MTurk/v2_DepthDuration_HTML.html#38,38,1280,800,1280,800,8-29-2022,12-31-23,55,depth_duration_stimuli/001056_2014-06-08_18-46-44_260595134347_rgbf000068-resize_0/001056_2014-06-08_18-46-44_260595134347_rgbf000068-resize_0-target.png,250,2.6625,4,2912,248,feet,jsons/v1_VE250_randls_15_rotated.json,734985,1199811,36,Man
55,970981,DepthScenes,duration_manipulation_targetAtFixation,jsons/v1_VE250_randls_15_rotated.json,http://54.235.29.9/FacialAge/BNav_EC2/DepthDuration/v2_depth_duration_MTurk/v2_DepthDuration_HTML.html#38,38,1280,800,1280,800,8-29-2022,12-31-23,56,depth_duration_stimuli/000483_2014-06-09_20-41-45_260595134347_rgbf000116-resize_4/000483_2014-06-09_20-41-45_260595134347_rgbf000116-resize_4-target.png,250,1.337,1,2564,256,feet,jsons/v1_VE250_randls_15_rotated.json,734985,1199811,36,Man
56,970981,DepthScenes,duration_manipulation_targetAtFixation,jsons/v1_VE250_randls_15_rotated.json,http://54.235.29.9/FacialAge/BNav_EC2/DepthDuration/v2_depth_duration_MTurk/v2_DepthDuration_HTML.html#38,38,1280,800,1280,800,8-29-2022,12-31-23,57,depth_duration_stimuli/000469_2014-06-09_19-42-10_260595134347_rgbf000081-resize_1/000469_2014-06-09_19-42-10_260595134347_rgbf000081-resize_1-target.png,250,1.652,1,3194,248,feet,jsons/v1_VE250_randls_15_rotated.json,734985,1199811,36,Man
57,970981,DepthScenes,duration_manipulation_targetAtFixation,jsons/v1_VE250_randls_15_rotated.json,http://54.235.29.9/FacialAge/BNav_EC2/DepthDuration/v2_depth_duration_MTurk/v2_DepthDuration_HTML.html#38,38,1280,800,1280,800,8-29-2022,12-31-23,58,depth_duration_stimuli/001516_2014-06-20_16-25-09_260595134347_rgbf000076-resize_2/001516_2014-06-20_16-25-09_260595134347_rgbf000076-resize_2-target.png,250,1.7445,2,3366,205,feet,jsons/v1_VE250_randls_15_rotated.json,734985,1199811,36,Man
58,970981,DepthScenes,duration_manipulation_targetAtFixation,jsons/v1_VE250_randls_15_rotated.json,http://54.235.29.9/FacialAge/BNav_EC2/DepthDuration/v2_depth_duration_MTurk/v2_DepthDuration_HTML.html#38,38,1280,800,1280,800,8-29-2022,12-31-23,59,depth_duration_stimuli/002118_2014-06-25_20-32-08_260595134347_rgbf000078-resize_1/002118_2014-06-25_20-32-08_260595134347_rgbf000078-resize_1-target.png,250,2.6460000000000004,1,2380,250,feet,jsons/v1_VE250_randls_15_rotated.json,734985,1199811,36,Man
59,970981,DepthScenes,duration_manipulation_targetAtFixation,jsons/v1_VE250_randls_15_rotated.json,http://54.235.29.9/FacialAge/BNav_EC2/DepthDuration/v2_depth_duration_MTurk/v2_DepthDuration_HTML.html#38,38,1280,800,1280,800,8-29-2022,12-31-23,60,depth_duration_stimuli/002639_2014-06-24_14-51-37_094959634447_rgbf000074-resize_4/002639_2014-06-24_14-51-37_094959634447_rgbf000074-resize_4-target.png,250,4.0375,2,2848,218,feet,jsons/v1_VE250_randls_15_rotated.json,734985,1199811,36,Man
60,970981,DepthScenes,duration_manipulation_targetAtFixation,jsons/v1_VE250_randls_15_rotated.json,http://54.235.29.9/FacialAge/BNav_EC2/DepthDuration/v2_depth_duration_MTurk/v2_DepthDuration_HTML.html#38,38,1280,800,1280,800,8-29-2022,12-31-23,61,depth_duration_stimuli/003292_2014-05-14_21-53-49_094959634447_rgbf000100-resize_2/003292_2014-05-14_21-53-49_094959634447_rgbf000100-resize_2-target.png,250,3.4815,3,3724,272,feet,jsons/v1_VE250_randls_15_rotated.json,734985,1199811,36,Man
61,970981,DepthScenes,duration_manipulation_targetAtFixation,jsons/v1_VE250_randls_15_rotated.json,http://54.235.29.9/FacialAge/BNav_EC2/DepthDuration/v2_depth_duration_MTurk/v2_DepthDuration_HTML.html#38,38,1280,800,1280,800,8-29-2022,12-31-23,62,depth_duration_stimuli/001214_2014-06-17_16-13-55_260595134347_rgbf000111-resize_0/001214_2014-06-17_16-13-55_260595134347_rgbf000111-resize_0-target.png,250,2.6505,4,2958,243,feet,jsons/v1_VE250_randls_15_rotated.json,734985,1199811,36,Man
62,970981,DepthScenes,duration_manipulation_targetAtFixation,jsons/v1_VE250_randls_15_rotated.json,http://54.235.29.9/FacialAge/BNav_EC2/DepthDuration/v2_depth_duration_MTurk/v2_DepthDuration_HTML.html#38,38,1280,800,1280,800,8-29-2022,12-31-23,63,depth_duration_stimuli/000810_2014-06-08_17-20-01_260595134347_rgbf000105-resize_0/000810_2014-06-08_17-20-01_260595134347_rgbf000105-resize_0-target.png,250,1.4865,6,2537,248,feet,jsons/v1_VE250_randls_15_rotated.json,734985,1199811,36,Man
63,970981,DepthScenes,duration_manipulation_targetAtFixation,jsons/v1_VE250_randls_15_rotated.json,http://54.235.29.9/FacialAge/BNav_EC2/DepthDuration/v2_depth_duration_MTurk/v2_DepthDuration_HTML.html#38,38,1280,800,1280,800,8-29-2022,12-31-23,64,depth_duration_stimuli/001094_2014-06-15_17-36-00_260595134347_rgbf000205-resize_0/001094_2014-06-15_17-36-00_260595134347_rgbf000205-resize_0-target.png,250,4.2175,1,2622,247,feet,jsons/v1_VE250_randls_15_rotated.json,734985,1199811,36,Man
64,970981,DepthScenes,duration_manipulation_targetAtFixation,jsons/v1_VE250_randls_15_rotated.json,http://54.235.29.9/FacialAge/BNav_EC2/DepthDuration/v2_depth_duration_MTurk/v2_DepthDuration_HTML.html#38,38,1280,800,1280,800,8-29-2022,12-31-23,65,depth_duration_stimuli/000692_2014-06-08_13-09-42_260595134347_rgbf000199-resize_2/000692_2014-06-08_13-09-42_260595134347_rgbf000199-resize_2-target.png,250,3.661,2,4436,246,feet,jsons/v1_VE250_randls_15_rotated.json,734985,1199811,36,Man
65,970981,DepthScenes,duration_manipulation_targetAtFixation,jsons/v1_VE250_randls_15_rotated.json,http://54.235.29.9/FacialAge/BNav_EC2/DepthDuration/v2_depth_duration_MTurk/v2_DepthDuration_HTML.html#38,38,1280,800,1280,800,8-29-2022,12-31-23,66,depth_duration_stimuli/001540_2014-06-20_17-01-05_260595134347_rgbf000086-resize_2/001540_2014-06-20_17-01-05_260595134347_rgbf000086-resize-original.jpg,250,1.459,0,4547,237,feet,jsons/v1_VE250_randls_15_rotated.json,734985,1199811,36,Man
66,970981,DepthScenes,duration_manipulation_targetAtFixation,jsons/v1_VE250_randls_15_rotated.json,http://54.235.29.9/FacialAge/BNav_EC2/DepthDuration/v2_depth_duration_MTurk/v2_DepthDuration_HTML.html#38,38,1280,800,1280,800,8-29-2022,12-31-23,67,depth_duration_stimuli/001235_2014-06-17_16-37-36_260595134347_rgbf000084-resize_4/001235_2014-06-17_16-37-36_260595134347_rgbf000084-resize_4-target.png,250,3.6605,2,3249,252,feet,jsons/v1_VE250_randls_15_rotated.json,734985,1199811,36,Man
67,970981,DepthScenes,duration_manipulation_targetAtFixation,jsons/v1_VE250_randls_15_rotated.json,http://54.235.29.9/FacialAge/BNav_EC2/DepthDuration/v2_depth_duration_MTurk/v2_DepthDuration_HTML.html#38,38,1280,800,1280,800,8-29-2022,12-31-23,68,depth_duration_stimuli/000788_2014-06-08_22-34-36_260595134347_rgbf000131-resize_1/000788_2014-06-08_22-34-36_260595134347_rgbf000131-resize_1-target.png,250,3.359,2,3057,246,feet,jsons/v1_VE250_randls_15_rotated.json,734985,1199811,36,Man
68,970981,DepthScenes,duration_manipulation_targetAtFixation,jsons/v1_VE250_randls_15_rotated.json,http://54.235.29.9/FacialAge/BNav_EC2/DepthDuration/v2_depth_duration_MTurk/v2_DepthDuration_HTML.html#38,38,1280,800,1280,800,8-29-2022,12-31-23,69,depth_duration_stimuli/000780_2014-06-08_22-28-29_260595134347_rgbf000126-resize_1/000780_2014-06-08_22-28-29_260595134347_rgbf000126-resize_1-target.png,250,3.3825,1,3140,238,feet,jsons/v1_VE250_randls_15_rotated.json,734985,1199811,36,Man
69,970981,DepthScenes,duration_manipulation_targetAtFixation,jsons/v1_VE250_randls_15_rotated.json,http://54.235.29.9/FacialAge/BNav_EC2/DepthDuration/v2_depth_duration_MTurk/v2_DepthDuration_HTML.html#38,38,1280,800,1280,800,8-29-2022,12-31-23,70,depth_duration_stimuli/002445_2014-06-28_20-32-16_260595134347_rgbf000029-resize_4/002445_2014-06-28_20-32-16_260595134347_rgbf000029-resize_4-target.png,250,2.5315,4,3628,257,feet,jsons/v1_VE250_randls_15_rotated.json,734985,1199811,36,Man
70,970981,DepthScenes,duration_manipulation_targetAtFixation,jsons/v1_VE250_randls_15_rotated.json,http://54.235.29.9/FacialAge/BNav_EC2/DepthDuration/v2_depth_duration_MTurk/v2_DepthDuration_HTML.html#38,38,1280,800,1280,800,8-29-2022,12-31-23,71,depth_duration_stimuli/001650_2014-06-20_12-09-00_260595134347_rgbf000087-resize_3/001650_2014-06-20_12-09-00_260595134347_rgbf000087-resize_3-target.png,250,1.9505,2,2621,242,feet,jsons/v1_VE250_randls_15_rotated.json,734985,1199811,36,Man
71,970981,DepthScenes,duration_manipulation_targetAtFixation,jsons/v1_VE250_randls_15_rotated.json,http://54.235.29.9/FacialAge/BNav_EC2/DepthDuration/v2_depth_duration_MTurk/v2_DepthDuration_HTML.html#38,38,1280,800,1280,800,8-29-2022,12-31-23,72,depth_duration_stimuli/000682_2014-06-08_23-14-58_260595134347_rgbf000041-resize_5/000682_2014-06-08_23-14-58_260595134347_rgbf000041-resize_5-target.png,250,2.7239999999999998,3,2860,243,feet,jsons/v1_VE250_randls_15_rotated.json,734985,1199811,36,Man
72,970981,DepthScenes,duration_manipulation_targetAtFixation,jsons/v1_VE250_randls_15_rotated.json,http://54.235.29.9/FacialAge/BNav_EC2/DepthDuration/v2_depth_duration_MTurk/v2_DepthDuration_HTML.html#38,38,1280,800,1280,800,8-29-2022,12-31-23,73,depth_duration_stimuli/003228_2014-05-14_13-42-35_094959634447_rgbf000101-resize_1/003228_2014-05-14_13-42-35_094959634447_rgbf000101-resize_1-target.png,250,1.9680000000000002,4,2308,256,feet,jsons/v1_VE250_randls_15_rotated.json,734985,1199811,36,Man
73,970981,DepthScenes,duration_manipulation_targetAtFixation,jsons/v1_VE250_randls_15_rotated.json,http://54.235.29.9/FacialAge/BNav_EC2/DepthDuration/v2_depth_duration_MTurk/v2_DepthDuration_HTML.html#38,38,1280,800,1280,800,8-29-2022,12-31-23,74,depth_duration_stimuli/002600_2014-06-24_14-27-04_094959634447_rgbf000074-resize_2/002600_2014-06-24_14-27-04_094959634447_rgbf000074-resize_2-target.png,250,2.7575,3,2977,239,feet,jsons/v1_VE250_randls_15_rotated.json,734985,1199811,36,Man
74,970981,DepthScenes,duration_manipulation_targetAtFixation,jsons/v1_VE250_randls_15_rotated.json,http://54.235.29.9/FacialAge/BNav_EC2/DepthDuration/v2_depth_duration_MTurk/v2_DepthDuration_HTML.html#38,38,1280,800,1280,800,8-29-2022,12-31-23,75,depth_duration_stimuli/002444_2014-06-28_20-32-08_260595134347_rgbf000027-resize_0/002444_2014-06-28_20-32-08_260595134347_rgbf000027-resize_0-target.png,250,4.388999999999999,2,5480,247,feet,jsons/v1_VE250_randls_15_rotated.json,734985,1199811,36,Man
75,970981,DepthScenes,duration_manipulation_targetAtFixation,jsons/v1_VE250_randls_15_rotated.json,http://54.235.29.9/FacialAge/BNav_EC2/DepthDuration/v2_depth_duration_MTurk/v2_DepthDuration_HTML.html#38,38,1280,800,1280,800,8-29-2022,12-31-23,76,depth_duration_stimuli/000436_2014-06-09_22-25-11_260595134347_rgbf000137-resize_1/000436_2014-06-09_22-25-11_260595134347_rgbf000137-resize_1-target.png,250,4.0705,3,3938,250,feet,jsons/v1_VE250_randls_15_rotated.json,734985,1199811,36,Man
76,970981,DepthScenes,duration_manipulation_targetAtFixation,jsons/v1_VE250_randls_15_rotated.json,http://54.235.29.9/FacialAge/BNav_EC2/DepthDuration/v2_depth_duration_MTurk/v2_DepthDuration_HTML.html#38,38,1280,800,1280,800,8-29-2022,12-31-23,77,depth_duration_stimuli/000137_2014-05-20_17-04-49_260595134347_rgbf000120-resize_1/000137_2014-05-20_17-04-49_260595134347_rgbf000120-resize_1-target.png,250,3.786,4,3276,256,feet,jsons/v1_VE250_randls_15_rotated.json,734985,1199811,36,Man
77,970981,DepthScenes,duration_manipulation_targetAtFixation,jsons/v1_VE250_randls_15_rotated.json,http://54.235.29.9/FacialAge/BNav_EC2/DepthDuration/v2_depth_duration_MTurk/v2_DepthDuration_HTML.html#38,38,1280,800,1280,800,8-29-2022,12-31-23,78,depth_duration_stimuli/000736_2014-06-08_18-24-15_260595134347_rgbf000206-resize_3/000736_2014-06-08_18-24-15_260595134347_rgbf000206-resize_3-target.png,250,3.515,5,4089,253,feet,jsons/v1_VE250_randls_15_rotated.json,734985,1199811,36,Man
78,970981,DepthScenes,duration_manipulation_targetAtFixation,jsons/v1_VE250_randls_15_rotated.json,http://54.235.29.9/FacialAge/BNav_EC2/DepthDuration/v2_depth_duration_MTurk/v2_DepthDuration_HTML.html#38,38,1280,800,1280,800,8-29-2022,12-31-23,79,depth_duration_stimuli/002344_2014-06-28_20-06-29_260595134347_rgbf000030-resize_1/002344_2014-06-28_20-06-29_260595134347_rgbf000030-resize_1-target.png,250,1.5795,1,2600,238,feet,jsons/v1_VE250_randls_15_rotated.json,734985,1199811,36,Man
79,970981,DepthScenes,duration_manipulation_targetAtFixation,jsons/v1_VE250_randls_15_rotated.json,http://54.235.29.9/FacialAge/BNav_EC2/DepthDuration/v2_depth_duration_MTurk/v2_DepthDuration_HTML.html#38,38,1280,800,1280,800,8-29-2022,12-31-23,80,depth_duration_stimuli/002725_2014-06-22_11-47-51_094959634447_rgbf000070-resize_1/002725_2014-06-22_11-47-51_094959634447_rgbf000070-resize_1-target.png,250,2.195,3,2352,257,feet,jsons/v1_VE250_randls_15_rotated.json,734985,1199811,36,Man
80,970981,DepthScenes,duration_manipulation_targetAtFixation,jsons/v1_VE250_randls_15_rotated.json,http://54.235.29.9/FacialAge/BNav_EC2/DepthDuration/v2_depth_duration_MTurk/v2_DepthDuration_HTML.html#38,38,1280,800,1280,800,8-29-2022,12-31-23,81,depth_duration_stimuli/003587_2014-05-23_16-48-02_094959634447_rgbf002384-resize_2/003587_2014-05-23_16-48-02_094959634447_rgbf002384-resize_2-target.png,250,1.357,1,2412,222,feet,jsons/v1_VE250_randls_15_rotated.json,734985,1199811,36,Man
81,970981,DepthScenes,duration_manipulation_targetAtFixation,jsons/v1_VE250_randls_15_rotated.json,http://54.235.29.9/FacialAge/BNav_EC2/DepthDuration/v2_depth_duration_MTurk/v2_DepthDuration_HTML.html#38,38,1280,800,1280,800,8-29-2022,12-31-23,82,depth_duration_stimuli/001167_2014-06-17_15-38-07_260595134347_rgbf000108-resize_0/001167_2014-06-17_15-38-07_260595134347_rgbf000108-resize_0-target.png,250,1.8505,2,2958,242,feet,jsons/v1_VE250_randls_15_rotated.json,734985,1199811,36,Man
82,970981,DepthScenes,duration_manipulation_targetAtFixation,jsons/v1_VE250_randls_15_rotated.json,http://54.235.29.9/FacialAge/BNav_EC2/DepthDuration/v2_depth_duration_MTurk/v2_DepthDuration_HTML.html#38,38,1280,800,1280,800,8-29-2022,12-31-23,83,depth_duration_stimuli/000556_2014-06-09_22-42-56_260595134347_rgbf000214-resize_1/000556_2014-06-09_22-42-56_260595134347_rgbf000214-resize_1-target.png,250,4.8415,3,2715,239,feet,jsons/v1_VE250_randls_15_rotated.json,734985,1199811,36,Man
83,970981,DepthScenes,duration_manipulation_targetAtFixation,jsons/v1_VE250_randls_15_rotated.json,http://54.235.29.9/FacialAge/BNav_EC2/DepthDuration/v2_depth_duration_MTurk/v2_DepthDuration_HTML.html#38,38,1280,800,1280,800,8-29-2022,12-31-23,84,depth_duration_stimuli/001158_2014-06-17_15-32-16_260595134347_rgbf000138-resize_2/001158_2014-06-17_15-32-16_260595134347_rgbf000138-resize_2-target.png,250,4.5315,8,4661,261,feet,jsons/v1_VE250_randls_15_rotated.json,734985,1199811,36,Man
84,970981,DepthScenes,duration_manipulation_targetAtFixation,jsons/v1_VE250_randls_15_rotated.json,http://54.235.29.9/FacialAge/BNav_EC2/DepthDuration/v2_depth_duration_MTurk/v2_DepthDuration_HTML.html#38,38,1280,800,1280,800,8-29-2022,12-31-23,85,depth_duration_stimuli/002758_2014-06-22_19-11-20_094959634447_rgbf000128-resize_1/002758_2014-06-22_19-11-20_094959634447_rgbf000128-resize_1-target.png,250,2.555,1,2527,249,feet,jsons/v1_VE250_randls_15_rotated.json,734985,1199811,36,Man
85,970981,DepthScenes,duration_manipulation_targetAtFixation,jsons/v1_VE250_randls_15_rotated.json,http://54.235.29.9/FacialAge/BNav_EC2/DepthDuration/v2_depth_duration_MTurk/v2_DepthDuration_HTML.html#38,38,1280,800,1280,800,8-29-2022,12-31-23,86,depth_duration_stimuli/002630_2014-06-24_14-47-50_094959634447_rgbf000055-resize_1/002630_2014-06-24_14-47-50_094959634447_rgbf000055-resize_1-target.png,250,3.0095,4,3180,245,feet,jsons/v1_VE250_randls_15_rotated.json,734985,1199811,36,Man
86,970981,DepthScenes,duration_manipulation_targetAtFixation,jsons/v1_VE250_randls_15_rotated.json,http://54.235.29.9/FacialAge/BNav_EC2/DepthDuration/v2_depth_duration_MTurk/v2_DepthDuration_HTML.html#38,38,1280,800,1280,800,8-29-2022,12-31-23,87,depth_duration_stimuli/002425_2014-06-28_20-27-29_260595134347_rgbf000031-resize_8/002425_2014-06-28_20-27-29_260595134347_rgbf000031-resize_8-target.png,250,3.8960000000000004,6,3160,253,feet,jsons/v1_VE250_randls_15_rotated.json,734985,1199811,36,Man
87,970981,DepthScenes,duration_manipulation_targetAtFixation,jsons/v1_VE250_randls_15_rotated.json,http://54.235.29.9/FacialAge/BNav_EC2/DepthDuration/v2_depth_duration_MTurk/v2_DepthDuration_HTML.html#38,38,1280,800,1280,800,8-29-2022,12-31-23,88,depth_duration_stimuli/000642_2014-06-08_16-59-25_260595134347_rgbf000098-resize_2/000642_2014-06-08_16-59-25_260595134347_rgbf000098-resize_2-target.png,250,2.8815,2,2564,251,feet,jsons/v1_VE250_randls_15_rotated.json,734985,1199811,36,Man
88,970981,DepthScenes,duration_manipulation_targetAtFixation,jsons/v1_VE250_randls_15_rotated.json,http://54.235.29.9/FacialAge/BNav_EC2/DepthDuration/v2_depth_duration_MTurk/v2_DepthDuration_HTML.html#38,38,1280,800,1280,800,8-29-2022,12-31-23,89,depth_duration_stimuli/001828_2014-06-26_21-40-03_260595134347_rgbf000024-resize_0/001828_2014-06-26_21-40-03_260595134347_rgbf000024-resize_0-target.png,250,4.8260000000000005,3,3518,246,feet,jsons/v1_VE250_randls_15_rotated.json,734985,1199811,36,Man
89,970981,DepthScenes,duration_manipulation_targetAtFixation,jsons/v1_VE250_randls_15_rotated.json,http://54.235.29.9/FacialAge/BNav_EC2/DepthDuration/v2_depth_duration_MTurk/v2_DepthDuration_HTML.html#38,38,1280,800,1280,800,8-29-2022,12-31-23,90,depth_duration_stimuli/000009_2014-05-26_14-32-05_260595134347_rgbf000034-resize_3/000009_2014-05-26_14-32-05_260595134347_rgbf000034-resize_3-target.png,250,3.8715,4,2723,252,feet,jsons/v1_VE250_randls_15_rotated.json,734985,1199811,36,Man
90,970981,DepthScenes,duration_manipulation_targetAtFixation,jsons/v1_VE250_randls_15_rotated.json,http://54.235.29.9/FacialAge/BNav_EC2/DepthDuration/v2_depth_duration_MTurk/v2_DepthDuration_HTML.html#38,38,1280,800,1280,800,8-29-2022,12-31-23,91,depth_duration_stimuli/000103_2014-05-14_22-01-17_260595134347_rgbf000152-resize_5/000103_2014-05-14_22-01-17_260595134347_rgbf000152-resize_5-target.png,250,1.993,1,2238,247,feet,jsons/v1_VE250_randls_15_rotated.json,734985,1199811,36,Man
91,970981,DepthScenes,duration_manipulation_targetAtFixation,jsons/v1_VE250_randls_15_rotated.json,http://54.235.29.9/FacialAge/BNav_EC2/DepthDuration/v2_depth_duration_MTurk/v2_DepthDuration_HTML.html#38,38,1280,800,1280,800,8-29-2022,12-31-23,92,depth_duration_stimuli/001555_2014-06-20_17-12-10_260595134347_rgbf000065-resize_4/001555_2014-06-20_17-12-10_260595134347_rgbf000065-resize_4-target.png,250,1.633,2,3993,248,feet,jsons/v1_VE250_randls_15_rotated.json,734985,1199811,36,Man
92,970981,DepthScenes,duration_manipulation_targetAtFixation,jsons/v1_VE250_randls_15_rotated.json,http://54.235.29.9/FacialAge/BNav_EC2/DepthDuration/v2_depth_duration_MTurk/v2_DepthDuration_HTML.html#38,38,1280,800,1280,800,8-29-2022,12-31-23,93,depth_duration_stimuli/000943_2014-06-09_19-31-07_260595134347_rgbf000128-resize_1/000943_2014-06-09_19-31-07_260595134347_rgbf000128-resize_1-target.png,250,1.9765,2,3859,237,feet,jsons/v1_VE250_randls_15_rotated.json,734985,1199811,36,Man
93,970981,DepthScenes,duration_manipulation_targetAtFixation,jsons/v1_VE250_randls_15_rotated.json,http://54.235.29.9/FacialAge/BNav_EC2/DepthDuration/v2_depth_duration_MTurk/v2_DepthDuration_HTML.html#38,38,1280,800,1280,800,8-29-2022,12-31-23,94,depth_duration_stimuli/003070_2014-06-15_14-58-27_094959634447_rgbf000150-resize_3/003070_2014-06-15_14-58-27_094959634447_rgbf000150-resize_3-target.png,250,2.9415,3,2602,246,feet,jsons/v1_VE250_randls_15_rotated.json,734985,1199811,36,Man
94,970981,DepthScenes,duration_manipulation_targetAtFixation,jsons/v1_VE250_randls_15_rotated.json,http://54.235.29.9/FacialAge/BNav_EC2/DepthDuration/v2_depth_duration_MTurk/v2_DepthDuration_HTML.html#38,38,1280,800,1280,800,8-29-2022,12-31-23,95,depth_duration_stimuli/003338_2014-05-20_11-01-23_094959634447_rgbf000051-resize_6/003338_2014-05-20_11-01-23_094959634447_rgbf000051-resize_6-target.png,250,1.693,4,2841,252,feet,jsons/v1_VE250_randls_15_rotated.json,734985,1199811,36,Man
95,970981,DepthScenes,duration_manipulation_targetAtFixation,jsons/v1_VE250_randls_15_rotated.json,http://54.235.29.9/FacialAge/BNav_EC2/DepthDuration/v2_depth_duration_MTurk/v2_DepthDuration_HTML.html#38,38,1280,800,1280,800,8-29-2022,12-31-23,96,depth_duration_stimuli/002509_2014-06-24_13-19-22_094959634447_rgbf000077-resize_0/002509_2014-06-24_13-19-22_094959634447_rgbf000077-resize_0-target.png,250,1.3065,5,2876,249,feet,jsons/v1_VE250_randls_15_rotated.json,734985,1199811,36,Man
96,970981,DepthScenes,duration_manipulation_targetAtFixation,jsons/v1_VE250_randls_15_rotated.json,http://54.235.29.9/FacialAge/BNav_EC2/DepthDuration/v2_depth_duration_MTurk/v2_DepthDuration_HTML.html#38,38,1280,800,1280,800,8-29-2022,12-31-23,97,depth_duration_stimuli/002660_2014-06-13_15-44-18_094959634447_rgbf001878-resize_2/002660_2014-06-13_15-44-18_094959634447_rgbf001878-resize_2-target.png,250,3.576,2,33523,249,feet,jsons/v1_VE250_randls_15_rotated.json,734985,1199811,36,Man
97,970981,DepthScenes,duration_manipulation_targetAtFixation,jsons/v1_VE250_randls_15_rotated.json,http://54.235.29.9/FacialAge/BNav_EC2/DepthDuration/v2_depth_duration_MTurk/v2_DepthDuration_HTML.html#38,38,1280,800,1280,800,8-29-2022,12-31-23,98,depth_duration_stimuli/002153_2014-06-25_21-27-18_260595134347_rgbf000038-resize_5/002153_2014-06-25_21-27-18_260595134347_rgbf000038-resize_5-target.png,250,2.505,2,4079,262,feet,jsons/v1_VE250_randls_15_rotated.json,734985,1199811,36,Man
98,970981,DepthScenes,duration_manipulation_targetAtFixation,jsons/v1_VE250_randls_15_rotated.json,http://54.235.29.9/FacialAge/BNav_EC2/DepthDuration/v2_depth_duration_MTurk/v2_DepthDuration_HTML.html#38,38,1280,800,1280,800,8-29-2022,12-31-23,99,depth_duration_stimuli/001222_2014-06-17_16-24-06_260595134347_rgbf000073-resize_0/001222_2014-06-17_16-24-06_260595134347_rgbf000073-resize-original.jpg,250,1.4385,2,5844,248,feet,jsons/v1_VE250_randls_15_rotated.json,734985,1199811,36,Man
99,970981,DepthScenes,duration_manipulation_targetAtFixation,jsons/v1_VE250_randls_15_rotated.json,http://54.235.29.9/FacialAge/BNav_EC2/DepthDuration/v2_depth_duration_MTurk/v2_DepthDuration_HTML.html#38,38,1280,800,1280,800,8-29-2022,12-31-23,100,depth_duration_stimuli/001815_2014-06-26_20-52-55_260595134347_rgbf000020-resize_0/001815_2014-06-26_20-52-55_260595134347_rgbf000020-resize_0-target.png,250,3.3865,2,4644,249,feet,jsons/v1_VE250_randls_15_rotated.json,734985,1199811,36,Man
100,970981,DepthScenes,duration_manipulation_targetAtFixation,jsons/v1_VE250_randls_15_rotated.json,http://54.235.29.9/FacialAge/BNav_EC2/DepthDuration/v2_depth_duration_MTurk/v2_DepthDuration_HTML.html#38,38,1280,800,1280,800,8-29-2022,12-31-23,101,depth_duration_stimuli/001808_2014-06-26_20-50-58_260595134347_rgbf000029-resize_1/001808_2014-06-26_20-50-58_260595134347_rgbf000029-resize_1-target.png,250,4.249,3,2838,236,feet,jsons/v1_VE250_randls_15_rotated.json,734985,1199811,36,Man
101,970981,DepthScenes,duration_manipulation_targetAtFixation,jsons/v1_VE250_randls_15_rotated.json,http://54.235.29.9/FacialAge/BNav_EC2/DepthDuration/v2_depth_duration_MTurk/v2_DepthDuration_HTML.html#38,38,1280,800,1280,800,8-29-2022,12-31-23,102,depth_duration_stimuli/000549_2014-06-08_22-10-24_260595134347_rgbf000247-resize_3/000549_2014-06-08_22-10-24_260595134347_rgbf000247-resize_3-target.png,250,1.841,1,2857,257,feet,jsons/v1_VE250_randls_15_rotated.json,734985,1199811,36,Man
102,970981,DepthScenes,duration_manipulation_targetAtFixation,jsons/v1_VE250_randls_15_rotated.json,http://54.235.29.9/FacialAge/BNav_EC2/DepthDuration/v2_depth_duration_MTurk/v2_DepthDuration_HTML.html#38,38,1280,800,1280,800,8-29-2022,12-31-23,103,depth_duration_stimuli/001055_2014-06-08_18-45-35_260595134347_rgbf000111-resize_4/001055_2014-06-08_18-45-35_260595134347_rgbf000111-resize_4-target.png,250,2.4290000000000003,4,3175,263,feet,jsons/v1_VE250_randls_15_rotated.json,734985,1199811,36,Man
103,970981,DepthScenes,duration_manipulation_targetAtFixation,jsons/v1_VE250_randls_15_rotated.json,http://54.235.29.9/FacialAge/BNav_EC2/DepthDuration/v2_depth_duration_MTurk/v2_DepthDuration_HTML.html#38,38,1280,800,1280,800,8-29-2022,12-31-23,104,depth_duration_stimuli/002949_2014-06-26_15-57-42_094959634447_rgbf000079-resize_1/002949_2014-06-26_15-57-42_094959634447_rgbf000079-resize_1-target.png,250,1.8915,2,6593,249,feet,jsons/v1_VE250_randls_15_rotated.json,734985,1199811,36,Man
104,970981,DepthScenes,duration_manipulation_targetAtFixation,jsons/v1_VE250_randls_15_rotated.json,http://54.235.29.9/FacialAge/BNav_EC2/DepthDuration/v2_depth_duration_MTurk/v2_DepthDuration_HTML.html#38,38,1280,800,1280,800,8-29-2022,12-31-23,105,depth_duration_stimuli/000522_2014-06-08_13-35-06_260595134347_rgbf000244-resize_1/000522_2014-06-08_13-35-06_260595134347_rgbf000244-resize_1-target.png,250,2.3715,2,4158,243,feet,jsons/v1_VE250_randls_15_rotated.json,734985,1199811,36,Man
105,970981,DepthScenes,duration_manipulation_targetAtFixation,jsons/v1_VE250_randls_15_rotated.json,http://54.235.29.9/FacialAge/BNav_EC2/DepthDuration/v2_depth_duration_MTurk/v2_DepthDuration_HTML.html#38,38,1280,800,1280,800,8-29-2022,12-31-23,106,depth_duration_stimuli/001584_2014-06-20_11-07-43_260595134347_rgbf000002-resize_1/001584_2014-06-20_11-07-43_260595134347_rgbf000002-resize_1-target.png,250,3.53,3,3871,255,feet,jsons/v1_VE250_randls_15_rotated.json,734985,1199811,36,Man
106,970981,DepthScenes,duration_manipulation_targetAtFixation,jsons/v1_VE250_randls_15_rotated.json,http://54.235.29.9/FacialAge/BNav_EC2/DepthDuration/v2_depth_duration_MTurk/v2_DepthDuration_HTML.html#38,38,1280,800,1280,800,8-29-2022,12-31-23,107,depth_duration_stimuli/003621_2014-05-23_18-06-08_094959634447_rgbf000101-resize_1/003621_2014-05-23_18-06-08_094959634447_rgbf000101-resize_1-target.png,250,3.9835,1,4076,249,feet,jsons/v1_VE250_randls_15_rotated.json,734985,1199811,36,Man
107,970981,DepthScenes,duration_manipulation_targetAtFixation,jsons/v1_VE250_randls_15_rotated.json,http://54.235.29.9/FacialAge/BNav_EC2/DepthDuration/v2_depth_duration_MTurk/v2_DepthDuration_HTML.html#38,38,1280,800,1280,800,8-29-2022,12-31-23,108,depth_duration_stimuli/002637_2014-06-24_14-51-13_094959634447_rgbf000066-resize_4/002637_2014-06-24_14-51-13_094959634447_rgbf000066-resize_4-target.png,250,1.9955,3,3255,245,feet,jsons/v1_VE250_randls_15_rotated.json,734985,1199811,36,Man
108,970981,DepthScenes,duration_manipulation_targetAtFixation,jsons/v1_VE250_randls_15_rotated.json,http://54.235.29.9/FacialAge/BNav_EC2/DepthDuration/v2_depth_duration_MTurk/v2_DepthDuration_HTML.html#38,38,1280,800,1280,800,8-29-2022,12-31-23,109,depth_duration_stimuli/003534_2014-05-22_15-06-10_094959634447_rgbf000102-resize_4/003534_2014-05-22_15-06-10_094959634447_rgbf000102-resize_4-target.png,250,1.426,2,3895,236,feet,jsons/v1_VE250_randls_15_rotated.json,734985,1199811,36,Man
109,970981,DepthScenes,duration_manipulation_targetAtFixation,jsons/v1_VE250_randls_15_rotated.json,http://54.235.29.9/FacialAge/BNav_EC2/DepthDuration/v2_depth_duration_MTurk/v2_DepthDuration_HTML.html#38,38,1280,800,1280,800,8-29-2022,12-31-23,110,depth_duration_stimuli/003495_2014-05-21_16-01-51_094959634447_rgbf000100-resize_3/003495_2014-05-21_16-01-51_094959634447_rgbf000100-resize_3-target.png,250,1.6255,5,4771,250,feet,jsons/v1_VE250_randls_15_rotated.json,734985,1199811,36,Man
110,970981,DepthScenes,duration_manipulation_targetAtFixation,jsons/v1_VE250_randls_15_rotated.json,http://54.235.29.9/FacialAge/BNav_EC2/DepthDuration/v2_depth_duration_MTurk/v2_DepthDuration_HTML.html#38,38,1280,800,1280,800,8-29-2022,12-31-23,111,depth_duration_stimuli/001244_2014-06-17_16-47-45_260595134347_rgbf000030-resize_4/001244_2014-06-17_16-47-45_260595134347_rgbf000030-resize_4-target.png,250,2.0425,3,3368,245,feet,jsons/v1_VE250_randls_15_rotated.json,734985,1199811,36,Man
111,970981,DepthScenes,duration_manipulation_targetAtFixation,jsons/v1_VE250_randls_15_rotated.json,http://54.235.29.9/FacialAge/BNav_EC2/DepthDuration/v2_depth_duration_MTurk/v2_DepthDuration_HTML.html#38,38,1280,800,1280,800,8-29-2022,12-31-23,112,depth_duration_stimuli/000665_2014-06-09_20-42-35_260595134347_rgbf000110-resize_1/000665_2014-06-09_20-42-35_260595134347_rgbf000110-resize_1-target.png,250,3.057,2,4649,247,feet,jsons/v1_VE250_randls_15_rotated.json,734985,1199811,36,Man
112,970981,DepthScenes,duration_manipulation_targetAtFixation,jsons/v1_VE250_randls_15_rotated.json,http://54.235.29.9/FacialAge/BNav_EC2/DepthDuration/v2_depth_duration_MTurk/v2_DepthDuration_HTML.html#38,38,1280,800,1280,800,8-29-2022,12-31-23,113,depth_duration_stimuli/001150_2014-06-17_15-27-34_260595134347_rgbf000108-resize_2/001150_2014-06-17_15-27-34_260595134347_rgbf000108-resize_2-target.png,250,4.0325,3,2744,251,feet,jsons/v1_VE250_randls_15_rotated.json,734985,1199811,36,Man
113,970981,DepthScenes,duration_manipulation_targetAtFixation,jsons/v1_VE250_randls_15_rotated.json,http://54.235.29.9/FacialAge/BNav_EC2/DepthDuration/v2_depth_duration_MTurk/v2_DepthDuration_HTML.html#38,38,1280,800,1280,800,8-29-2022,12-31-23,114,depth_duration_stimuli/002323_2014-06-28_20-01-54_260595134347_rgbf000051-resize_4/002323_2014-06-28_20-01-54_260595134347_rgbf000051-resize_4-target.png,250,3.7310000000000003,1,2934,243,feet,jsons/v1_VE250_randls_15_rotated.json,734985,1199811,36,Man
114,970981,DepthScenes,duration_manipulation_targetAtFixation,jsons/v1_VE250_randls_15_rotated.json,http://54.235.29.9/FacialAge/BNav_EC2/DepthDuration/v2_depth_duration_MTurk/v2_DepthDuration_HTML.html#38,38,1280,800,1280,800,8-29-2022,12-31-23,115,depth_duration_stimuli/000917_2014-06-09_22-45-29_260595134347_rgbf000149-resize_3/000917_2014-06-09_22-45-29_260595134347_rgbf000149-resize_3-target.png,250,4.1865,4,3016,249,feet,jsons/v1_VE250_randls_15_rotated.json,734985,1199811,36,Man
115,970981,DepthScenes,duration_manipulation_targetAtFixation,jsons/v1_VE250_randls_15_rotated.json,http://54.235.29.9/FacialAge/BNav_EC2/DepthDuration/v2_depth_duration_MTurk/v2_DepthDuration_HTML.html#38,38,1280,800,1280,800,8-29-2022,12-31-23,116,depth_duration_stimuli/002678_2014-06-13_16-15-32_094959634447_rgbf000151-resize_6/002678_2014-06-13_16-15-32_094959634447_rgbf000151-resize_6-target.png,250,2.1830000000000003,0,2157,250,feet,jsons/v1_VE250_randls_15_rotated.json,734985,1199811,36,Man
116,970981,DepthScenes,duration_manipulation_targetAtFixation,jsons/v1_VE250_randls_15_rotated.json,http://54.235.29.9/FacialAge/BNav_EC2/DepthDuration/v2_depth_duration_MTurk/v2_DepthDuration_HTML.html#38,38,1280,800,1280,800,8-29-2022,12-31-23,117,depth_duration_stimuli/000368_2014-06-09_15-53-01_260595134347_rgbf000155-resize_2/000368_2014-06-09_15-53-01_260595134347_rgbf000155-resize_2-target.png,250,2.4859999999999998,1,3847,263,feet,jsons/v1_VE250_randls_15_rotated.json,734985,1199811,36,Man
117,970981,DepthScenes,duration_manipulation_targetAtFixation,jsons/v1_VE250_randls_15_rotated.json,http://54.235.29.9/FacialAge/BNav_EC2/DepthDuration/v2_depth_duration_MTurk/v2_DepthDuration_HTML.html#38,38,1280,800,1280,800,8-29-2022,12-31-23,118,depth_duration_stimuli/002340_2014-06-28_20-05-46_260595134347_rgbf000113-resize_0/002340_2014-06-28_20-05-46_260595134347_rgbf000113-resize_0-target.png,250,2.4735,2,2734,266,feet,jsons/v1_VE250_randls_15_rotated.json,734985,1199811,36,Man
118,970981,DepthScenes,duration_manipulation_targetAtFixation,jsons/v1_VE250_randls_15_rotated.json,http://54.235.29.9/FacialAge/BNav_EC2/DepthDuration/v2_depth_duration_MTurk/v2_DepthDuration_HTML.html#38,38,1280,800,1280,800,8-29-2022,12-31-23,119,depth_duration_stimuli/001016_2014-06-09_16-16-10_260595134347_rgbf000112-resize_5/001016_2014-06-09_16-16-10_260595134347_rgbf000112-resize_5-target.png,250,1.6565,3,5099,252,feet,jsons/v1_VE250_randls_15_rotated.json,734985,1199811,36,Man
119,970981,DepthScenes,duration_manipulation_targetAtFixation,jsons/v1_VE250_randls_15_rotated.json,http://54.235.29.9/FacialAge/BNav_EC2/DepthDuration/v2_depth_duration_MTurk/v2_DepthDuration_HTML.html#38,38,1280,800,1280,800,8-29-2022,12-31-23,120,depth_duration_stimuli/000787_2014-06-08_22-33-53_260595134347_rgbf000175-resize_1/000787_2014-06-08_22-33-53_260595134347_rgbf000175-resize-original.jpg,250,4.784,0,2266,242,feet,jsons/v1_VE250_randls_15_rotated.json,734985,1199811,36,Man
120,970981,DepthScenes,duration_manipulation_targetAtFixation,jsons/v1_VE250_randls_15_rotated.json,http://54.235.29.9/FacialAge/BNav_EC2/DepthDuration/v2_depth_duration_MTurk/v2_DepthDuration_HTML.html#38,38,1280,800,1280,800,8-29-2022,12-31-23,121,depth_duration_stimuli/003079_2014-06-15_15-18-20_094959634447_rgbf000152-resize_8/003079_2014-06-15_15-18-20_094959634447_rgbf000152-resize_8-target.png,250,2.8775,3,2744,252,feet,jsons/v1_VE250_randls_15_rotated.json,734985,1199811,36,Man
121,970981,DepthScenes,duration_manipulation_targetAtFixation,jsons/v1_VE250_randls_15_rotated.json,http://54.235.29.9/FacialAge/BNav_EC2/DepthDuration/v2_depth_duration_MTurk/v2_DepthDuration_HTML.html#38,38,1280,800,1280,800,8-29-2022,12-31-23,122,depth_duration_stimuli/000506_2014-06-08_23-21-00_260595134347_rgbf000070-resize_7/000506_2014-06-08_23-21-00_260595134347_rgbf000070-resize_7-target.png,250,4.0585,3,6175,235,feet,jsons/v1_VE250_randls_15_rotated.json,734985,1199811,36,Man
122,970981,DepthScenes,duration_manipulation_targetAtFixation,jsons/v1_VE250_randls_15_rotated.json,http://54.235.29.9/FacialAge/BNav_EC2/DepthDuration/v2_depth_duration_MTurk/v2_DepthDuration_HTML.html#38,38,1280,800,1280,800,8-29-2022,12-31-23,123,depth_duration_stimuli/003129_2014-05-12_10-48-10_094959634447_rgbf000100-resize_0/003129_2014-05-12_10-48-10_094959634447_rgbf000100-resize_0-target.png,250,4.9305,4,3366,250,feet,jsons/v1_VE250_randls_15_rotated.json,734985,1199811,36,Man
123,970981,DepthScenes,duration_manipulation_targetAtFixation,jsons/v1_VE250_randls_15_rotated.json,http://54.235.29.9/FacialAge/BNav_EC2/DepthDuration/v2_depth_duration_MTurk/v2_DepthDuration_HTML.html#38,38,1280,800,1280,800,8-29-2022,12-31-23,124,depth_duration_stimuli/000414_2014-06-04_19-49-13_260595134347_rgbf000044-resize_0/000414_2014-06-04_19-49-13_260595134347_rgbf000044-resize_0-target.png,250,4.329,3,3588,248,feet,jsons/v1_VE250_randls_15_rotated.json,734985,1199811,36,Man
124,970981,DepthScenes,duration_manipulation_targetAtFixation,jsons/v1_VE250_randls_15_rotated.json,http://54.235.29.9/FacialAge/BNav_EC2/DepthDuration/v2_depth_duration_MTurk/v2_DepthDuration_HTML.html#38,38,1280,800,1280,800,8-29-2022,12-31-23,125,depth_duration_stimuli/002875_2014-06-01_15-19-00_094959634447_rgbf000151-resize_1/002875_2014-06-01_15-19-00_094959634447_rgbf000151-resize_1-target.png,250,1.9675,2,2681,238,feet,jsons/v1_VE250_randls_15_rotated.json,734985,1199811,36,Man
125,970981,DepthScenes,duration_manipulation_targetAtFixation,jsons/v1_VE250_randls_15_rotated.json,http://54.235.29.9/FacialAge/BNav_EC2/DepthDuration/v2_depth_duration_MTurk/v2_DepthDuration_HTML.html#38,38,1280,800,1280,800,8-29-2022,12-31-23,126,depth_duration_stimuli/001011_2014-06-08_23-18-54_260595134347_rgbf000044-resize_4/001011_2014-06-08_23-18-54_260595134347_rgbf000044-resize_4-target.png,250,2.4730000000000003,5,2636,245,feet,jsons/v1_VE250_randls_15_rotated.json,734985,1199811,36,Man
126,970981,DepthScenes,duration_manipulation_targetAtFixation,jsons/v1_VE250_randls_15_rotated.json,http://54.235.29.9/FacialAge/BNav_EC2/DepthDuration/v2_depth_duration_MTurk/v2_DepthDuration_HTML.html#38,38,1280,800,1280,800,8-29-2022,12-31-23,127,depth_duration_stimuli/003423_2014-05-21_10-23-26_094959634447_rgbf002665-resize_2/003423_2014-05-21_10-23-26_094959634447_rgbf002665-resize_2-target.png,250,3.2575,2,2550,247,feet,jsons/v1_VE250_randls_15_rotated.json,734985,1199811,36,Man
127,970981,DepthScenes,duration_manipulation_targetAtFixation,jsons/v1_VE250_randls_15_rotated.json,http://54.235.29.9/FacialAge/BNav_EC2/DepthDuration/v2_depth_duration_MTurk/v2_DepthDuration_HTML.html#38,38,1280,800,1280,800,8-29-2022,12-31-23,128,depth_duration_stimuli/002905_2014-06-03_18-04-43_094959634447_rgbf000151-resize_2/002905_2014-06-03_18-04-43_094959634447_rgbf000151-resize_2-target.png,250,2.0295,3,2369,248,feet,jsons/v1_VE250_randls_15_rotated.json,734985,1199811,36,Man
128,970981,DepthScenes,duration_manipulation_targetAtFixation,jsons/v1_VE250_randls_15_rotated.json,http://54.235.29.9/FacialAge/BNav_EC2/DepthDuration/v2_depth_duration_MTurk/v2_DepthDuration_HTML.html#38,38,1280,800,1280,800,8-29-2022,12-31-23,129,depth_duration_stimuli/002209_2014-06-28_18-36-10_260595134347_rgbf000051-resize_1/002209_2014-06-28_18-36-10_260595134347_rgbf000051-resize_1-target.png,250,2.057,1,2337,240,feet,jsons/v1_VE250_randls_15_rotated.json,734985,1199811,36,Man
129,970981,DepthScenes,duration_manipulation_targetAtFixation,jsons/v1_VE250_randls_15_rotated.json,http://54.235.29.9/FacialAge/BNav_EC2/DepthDuration/v2_depth_duration_MTurk/v2_DepthDuration_HTML.html#38,38,1280,800,1280,800,8-29-2022,12-31-23,130,depth_duration_stimuli/002763_2014-06-22_19-13-10_094959634447_rgbf000075-resize_4/002763_2014-06-22_19-13-10_094959634447_rgbf000075-resize_4-target.png,250,1.68375,6,2114,244,feet,jsons/v1_VE250_randls_15_rotated.json,734985,1199811,36,Man
130,970981,DepthScenes,duration_manipulation_targetAtFixation,jsons/v1_VE250_randls_15_rotated.json,http://54.235.29.9/FacialAge/BNav_EC2/DepthDuration/v2_depth_duration_MTurk/v2_DepthDuration_HTML.html#38,38,1280,800,1280,800,8-29-2022,12-31-23,131,depth_duration_stimuli/001617_2014-06-20_11-35-32_260595134347_rgbf000066-resize_1/001617_2014-06-20_11-35-32_260595134347_rgbf000066-resize_1-target.png,250,3.7910000000000004,4,3239,262,feet,jsons/v1_VE250_randls_15_rotated.json,734985,1199811,36,Man
131,970981,DepthScenes,duration_manipulation_targetAtFixation,jsons/v1_VE250_randls_15_rotated.json,http://54.235.29.9/FacialAge/BNav_EC2/DepthDuration/v2_depth_duration_MTurk/v2_DepthDuration_HTML.html#38,38,1280,800,1280,800,8-29-2022,12-31-23,132,depth_duration_stimuli/001806_2014-06-26_20-50-20_260595134347_rgbf000091-resize_1/001806_2014-06-26_20-50-20_260595134347_rgbf000091-resize_1-target.png,250,2.7305,3,4032,236,feet,jsons/v1_VE250_randls_15_rotated.json,734985,1199811,36,Man
132,970981,DepthScenes,duration_manipulation_targetAtFixation,jsons/v1_VE250_randls_15_rotated.json,http://54.235.29.9/FacialAge/BNav_EC2/DepthDuration/v2_depth_duration_MTurk/v2_DepthDuration_HTML.html#38,38,1280,800,1280,800,8-29-2022,12-31-23,133,depth_duration_stimuli/000742_2014-06-08_18-48-09_260595134347_rgbf000164-resize_4/000742_2014-06-08_18-48-09_260595134347_rgbf000164-resize_4-target.png,250,4.632,3,3002,247,feet,jsons/v1_VE250_randls_15_rotated.json,734985,1199811,36,Man
133,970981,DepthScenes,duration_manipulation_targetAtFixation,jsons/v1_VE250_randls_15_rotated.json,http://54.235.29.9/FacialAge/BNav_EC2/DepthDuration/v2_depth_duration_MTurk/v2_DepthDuration_HTML.html#38,38,1280,800,1280,800,8-29-2022,12-31-23,134,depth_duration_stimuli/001066_2014-06-08_22-03-20_260595134347_rgbf000066-resize_4/001066_2014-06-08_22-03-20_260595134347_rgbf000066-resize_4-target.png,250,4.2330000000000005,2,3271,255,feet,jsons/v1_VE250_randls_15_rotated.json,734985,1199811,36,Man
134,970981,DepthScenes,duration_manipulation_targetAtFixation,jsons/v1_VE250_randls_15_rotated.json,http://54.235.29.9/FacialAge/BNav_EC2/DepthDuration/v2_depth_duration_MTurk/v2_DepthDuration_HTML.html#38,38,1280,800,1280,800,8-29-2022,12-31-23,135,depth_duration_stimuli/000375_2014-06-08_11-17-29_260595134347_rgbf000133-resize_2/000375_2014-06-08_11-17-29_260595134347_rgbf000133-resize-original.jpg,250,4.718,0,3192,254,feet,jsons/v1_VE250_randls_15_rotated.json,734985,1199811,36,Man
135,970981,DepthScenes,duration_manipulation_targetAtFixation,jsons/v1_VE250_randls_15_rotated.json,http://54.235.29.9/FacialAge/BNav_EC2/DepthDuration/v2_depth_duration_MTurk/v2_DepthDuration_HTML.html#38,38,1280,800,1280,800,8-29-2022,12-31-23,136,depth_duration_stimuli/000502_2014-06-08_23-02-32_260595134347_rgbf000063-resize_4/000502_2014-06-08_23-02-32_260595134347_rgbf000063-resize_4-target.png,250,2.431,2,2849,246,feet,jsons/v1_VE250_randls_15_rotated.json,734985,1199811,36,Man
136,970981,DepthScenes,duration_manipulation_targetAtFixation,jsons/v1_VE250_randls_15_rotated.json,http://54.235.29.9/FacialAge/BNav_EC2/DepthDuration/v2_depth_duration_MTurk/v2_DepthDuration_HTML.html#38,38,1280,800,1280,800,8-29-2022,12-31-23,137,depth_duration_stimuli/001199_2014-06-17_16-03-48_260595134347_rgbf000077-resize_0/001199_2014-06-17_16-03-48_260595134347_rgbf000077-resize_0-target.png,250,3.4375,3,2165,239,feet,jsons/v1_VE250_randls_15_rotated.json,734985,1199811,36,Man
137,970981,DepthScenes,duration_manipulation_targetAtFixation,jsons/v1_VE250_randls_15_rotated.json,http://54.235.29.9/FacialAge/BNav_EC2/DepthDuration/v2_depth_duration_MTurk/v2_DepthDuration_HTML.html#38,38,1280,800,1280,800,8-29-2022,12-31-23,138,depth_duration_stimuli/002657_2014-06-13_15-29-54_094959634447_rgbf000150-resize_1/002657_2014-06-13_15-29-54_094959634447_rgbf000150-resize_1-target.png,250,4.919,2,2715,241,feet,jsons/v1_VE250_randls_15_rotated.json,734985,1199811,36,Man
138,970981,DepthScenes,duration_manipulation_targetAtFixation,jsons/v1_VE250_randls_15_rotated.json,http://54.235.29.9/FacialAge/BNav_EC2/DepthDuration/v2_depth_duration_MTurk/v2_DepthDuration_HTML.html#38,38,1280,800,1280,800,8-29-2022,12-31-23,139,depth_duration_stimuli/002375_2014-06-28_20-13-44_260595134347_rgbf000032-resize_1/002375_2014-06-28_20-13-44_260595134347_rgbf000032-resize_1-target.png,250,4.0175,3,3518,248,feet,jsons/v1_VE250_randls_15_rotated.json,734985,1199811,36,Man
139,970981,DepthScenes,duration_manipulation_targetAtFixation,jsons/v1_VE250_randls_15_rotated.json,http://54.235.29.9/FacialAge/BNav_EC2/DepthDuration/v2_depth_duration_MTurk/v2_DepthDuration_HTML.html#38,38,1280,800,1280,800,8-29-2022,12-31-23,140,depth_duration_stimuli/003083_2014-06-15_15-21-03_094959634447_rgbf000063-resize_1/003083_2014-06-15_15-21-03_094959634447_rgbf000063-resize_1-target.png,250,4.1405,4,2792,238,feet,jsons/v1_VE250_randls_15_rotated.json,734985,1199811,36,Man
140,970981,DepthScenes,duration_manipulation_targetAtFixation,jsons/v1_VE250_randls_15_rotated.json,http://54.235.29.9/FacialAge/BNav_EC2/DepthDuration/v2_depth_duration_MTurk/v2_DepthDuration_HTML.html#38,38,1280,800,1280,800,8-29-2022,12-31-23,141,depth_duration_stimuli/000486_2014-06-09_20-47-20_260595134347_rgbf000143-resize_2/000486_2014-06-09_20-47-20_260595134347_rgbf000143-resize_2-target.png,250,4.8325,5,3793,249,feet,jsons/v1_VE250_randls_15_rotated.json,734985,1199811,36,Man
141,970981,DepthScenes,duration_manipulation_targetAtFixation,jsons/v1_VE250_randls_15_rotated.json,http://54.235.29.9/FacialAge/BNav_EC2/DepthDuration/v2_depth_duration_MTurk/v2_DepthDuration_HTML.html#38,38,1280,800,1280,800,8-29-2022,12-31-23,142,depth_duration_stimuli/003010_2014-06-15_12-54-35_094959634447_rgbf000112-resize_0/003010_2014-06-15_12-54-35_094959634447_rgbf000112-resize_0-target.png,250,3.1185,4,3735,243,feet,jsons/v1_VE250_randls_15_rotated.json,734985,1199811,36,Man
142,970981,DepthScenes,duration_manipulation_targetAtFixation,jsons/v1_VE250_randls_15_rotated.json,http://54.235.29.9/FacialAge/BNav_EC2/DepthDuration/v2_depth_duration_MTurk/v2_DepthDuration_HTML.html#38,38,1280,800,1280,800,8-29-2022,12-31-23,143,depth_duration_stimuli/001810_2014-06-26_20-51-35_260595134347_rgbf000040-resize_3/001810_2014-06-26_20-51-35_260595134347_rgbf000040-resize_3-target.png,250,2.2525,41,3566,246,feet,jsons/v1_VE250_randls_15_rotated.json,734985,1199811,36,Man
143,970981,DepthScenes,duration_manipulation_targetAtFixation,jsons/v1_VE250_randls_15_rotated.json,http://54.235.29.9/FacialAge/BNav_EC2/DepthDuration/v2_depth_duration_MTurk/v2_DepthDuration_HTML.html#38,38,1280,800,1280,800,8-29-2022,12-31-23,144,depth_duration_stimuli/000866_2014-06-09_20-45-42_260595134347_rgbf000139-resize_1/000866_2014-06-09_20-45-42_260595134347_rgbf000139-resize_1-target.png,250,3.2155,2,3600,253,feet,jsons/v1_VE250_randls_15_rotated.json,734985,1199811,36,Man
144,970981,DepthScenes,duration_manipulation_targetAtFixation,jsons/v1_VE250_randls_15_rotated.json,http://54.235.29.9/FacialAge/BNav_EC2/DepthDuration/v2_depth_duration_MTurk/v2_DepthDuration_HTML.html#38,38,1280,800,1280,800,8-29-2022,12-31-23,145,depth_duration_stimuli/002989_2014-06-15_12-25-03_094959634447_rgbf000150-resize_3/002989_2014-06-15_12-25-03_094959634447_rgbf000150-resize_3-target.png,250,4.1975,3,2974,253,feet,jsons/v1_VE250_randls_15_rotated.json,734985,1199811,36,Man
145,970981,DepthScenes,duration_manipulation_targetAtFixation,jsons/v1_VE250_randls_15_rotated.json,http://54.235.29.9/FacialAge/BNav_EC2/DepthDuration/v2_depth_duration_MTurk/v2_DepthDuration_HTML.html#38,38,1280,800,1280,800,8-29-2022,12-31-23,146,depth_duration_stimuli/002568_2014-06-24_13-59-21_094959634447_rgbf000062-resize_4/002568_2014-06-24_13-59-21_094959634447_rgbf000062-resize_4-target.png,250,3.015,2,2803,243,feet,jsons/v1_VE250_randls_15_rotated.json,734985,1199811,36,Man
146,970981,DepthScenes,duration_manipulation_targetAtFixation,jsons/v1_VE250_randls_15_rotated.json,http://54.235.29.9/FacialAge/BNav_EC2/DepthDuration/v2_depth_duration_MTurk/v2_DepthDuration_HTML.html#38,38,1280,800,1280,800,8-29-2022,12-31-23,147,depth_duration_stimuli/003492_2014-05-21_15-50-55_094959634447_rgbf000828-resize_1/003492_2014-05-21_15-50-55_094959634447_rgbf000828-resize_1-target.png,250,4.06875,6,3333,243,feet,jsons/v1_VE250_randls_15_rotated.json,734985,1199811,36,Man
147,970981,DepthScenes,duration_manipulation_targetAtFixation,jsons/v1_VE250_randls_15_rotated.json,http://54.235.29.9/FacialAge/BNav_EC2/DepthDuration/v2_depth_duration_MTurk/v2_DepthDuration_HTML.html#38,38,1280,800,1280,800,8-29-2022,12-31-23,148,depth_duration_stimuli/003081_2014-06-15_15-19-16_094959634447_rgbf000150-resize_1/003081_2014-06-15_15-19-16_094959634447_rgbf000150-resize_1-target.png,250,3.9125,2,2163,251,feet,jsons/v1_VE250_randls_15_rotated.json,734985,1199811,36,Man
148,970981,DepthScenes,duration_manipulation_targetAtFixation,jsons/v1_VE250_randls_15_rotated.json,http://54.235.29.9/FacialAge/BNav_EC2/DepthDuration/v2_depth_duration_MTurk/v2_DepthDuration_HTML.html#38,38,1280,800,1280,800,8-29-2022,12-31-23,149,depth_duration_stimuli/001417_2014-06-19_16-25-36_260595134347_rgbf000115-resize_5/001417_2014-06-19_16-25-36_260595134347_rgbf000115-resize_5-target.png,250,4.6255,3,3422,248,feet,jsons/v1_VE250_randls_15_rotated.json,734985,1199811,36,Man
149,970981,DepthScenes,duration_manipulation_targetAtFixation,jsons/v1_VE250_randls_15_rotated.json,http://54.235.29.9/FacialAge/BNav_EC2/DepthDuration/v2_depth_duration_MTurk/v2_DepthDuration_HTML.html#38,38,1280,800,1280,800,8-29-2022,12-31-23,150,depth_duration_stimuli/000635_2014-06-08_16-38-42_260595134347_rgbf000106-resize_1/000635_2014-06-08_16-38-42_260595134347_rgbf000106-resize_1-target.png,250,2.074,5,4892,249,feet,jsons/v1_VE250_randls_15_rotated.json,734985,1199811,36,Man
150,970981,DepthScenes,duration_manipulation_targetAtFixation,jsons/v1_VE250_randls_15_rotated.json,http://54.235.29.9/FacialAge/BNav_EC2/DepthDuration/v2_depth_duration_MTurk/v2_DepthDuration_HTML.html#38,38,1280,800,1280,800,8-29-2022,12-31-23,151,depth_duration_stimuli/002279_2014-06-28_18-55-32_260595134347_rgbf000040-resize_5/002279_2014-06-28_18-55-32_260595134347_rgbf000040-resize_5-target.png,250,1.5043333333333,0,3883,245,feet,jsons/v1_VE250_randls_15_rotated.json,734985,1199811,36,Man
151,970981,DepthScenes,duration_manipulation_targetAtFixation,jsons/v1_VE250_randls_15_rotated.json,http://54.235.29.9/FacialAge/BNav_EC2/DepthDuration/v2_depth_duration_MTurk/v2_DepthDuration_HTML.html#38,38,1280,800,1280,800,8-29-2022,12-31-23,152,depth_duration_stimuli/000569_2014-06-09_22-51-47_260595134347_rgbf000141-resize_3/000569_2014-06-09_22-51-47_260595134347_rgbf000141-resize-original.jpg,250,4.512,3,3790,263,feet,jsons/v1_VE250_randls_15_rotated.json,734985,1199811,36,Man
152,970981,DepthScenes,duration_manipulation_targetAtFixation,jsons/v1_VE250_randls_15_rotated.json,http://54.235.29.9/FacialAge/BNav_EC2/DepthDuration/v2_depth_duration_MTurk/v2_DepthDuration_HTML.html#38,38,1280,800,1280,800,8-29-2022,12-31-23,153,depth_duration_stimuli/002414_2014-06-28_20-24-58_260595134347_rgbf000067-resize_4/002414_2014-06-28_20-24-58_260595134347_rgbf000067-resize_4-target.png,250,4.363,6,3559,250,feet,jsons/v1_VE250_randls_15_rotated.json,734985,1199811,36,Man
153,970981,DepthScenes,duration_manipulation_targetAtFixation,jsons/v1_VE250_randls_15_rotated.json,http://54.235.29.9/FacialAge/BNav_EC2/DepthDuration/v2_depth_duration_MTurk/v2_DepthDuration_HTML.html#38,38,1280,800,1280,800,8-29-2022,12-31-23,154,depth_duration_stimuli/000773_2014-06-08_22-24-54_260595134347_rgbf000093-resize_1/000773_2014-06-08_22-24-54_260595134347_rgbf000093-resize_1-target.png,250,4.973,5,2576,248,feet,jsons/v1_VE250_randls_15_rotated.json,734985,1199811,36,Man
154,970981,DepthScenes,duration_manipulation_targetAtFixation,jsons/v1_VE250_randls_15_rotated.json,http://54.235.29.9/FacialAge/BNav_EC2/DepthDuration/v2_depth_duration_MTurk/v2_DepthDuration_HTML.html#38,38,1280,800,1280,800,8-29-2022,12-31-23,155,depth_duration_stimuli/002995_2014-06-15_12-31-26_094959634447_rgbf000150-resize_1/002995_2014-06-15_12-31-26_094959634447_rgbf000150-resize_1-target.png,250,3.8360000000000003,3,2835,253,feet,jsons/v1_VE250_randls_15_rotated.json,734985,1199811,36,Man
155,970981,DepthScenes,duration_manipulation_targetAtFixation,jsons/v1_VE250_randls_15_rotated.json,http://54.235.29.9/FacialAge/BNav_EC2/DepthDuration/v2_depth_duration_MTurk/v2_DepthDuration_HTML.html#38,38,1280,800,1280,800,8-29-2022,12-31-23,156,depth_duration_stimuli/002748_2014-06-22_19-07-22_094959634447_rgbf000078-resize_1/002748_2014-06-22_19-07-22_094959634447_rgbf000078-resize_1-target.png,250,4.6705,4,2649,249,feet,jsons/v1_VE250_randls_15_rotated.json,734985,1199811,36,Man
156,970981,DepthScenes,duration_manipulation_targetAtFixation,jsons/v1_VE250_randls_15_rotated.json,http://54.235.29.9/FacialAge/BNav_EC2/DepthDuration/v2_depth_duration_MTurk/v2_DepthDuration_HTML.html#38,38,1280,800,1280,800,8-29-2022,12-31-23,157,depth_duration_stimuli/000927_2014-06-09_16-32-30_260595134347_rgbf000123-resize_3/000927_2014-06-09_16-32-30_260595134347_rgbf000123-resize_3-target.png,250,2.6785,5,2549,253,feet,jsons/v1_VE250_randls_15_rotated.json,734985,1199811,36,Man
157,970981,DepthScenes,duration_manipulation_targetAtFixation,jsons/v1_VE250_randls_15_rotated.json,http://54.235.29.9/FacialAge/BNav_EC2/DepthDuration/v2_depth_duration_MTurk/v2_DepthDuration_HTML.html#38,38,1280,800,1280,800,8-29-2022,12-31-23,158,depth_duration_stimuli/001110_2014-06-15_17-25-28_260595134347_rgbf000150-resize_1/001110_2014-06-15_17-25-28_260595134347_rgbf000150-resize_1-target.png,250,1.7115,4,3339,247,feet,jsons/v1_VE250_randls_15_rotated.json,734985,1199811,36,Man
158,970981,DepthScenes,duration_manipulation_targetAtFixation,jsons/v1_VE250_randls_15_rotated.json,http://54.235.29.9/FacialAge/BNav_EC2/DepthDuration/v2_depth_duration_MTurk/v2_DepthDuration_HTML.html#38,38,1280,800,1280,800,8-29-2022,12-31-23,159,depth_duration_stimuli/001052_2014-06-08_18-24-54_260595134347_rgbf000130-resize_1/001052_2014-06-08_18-24-54_260595134347_rgbf000130-resize_1-target.png,250,4.1045,1,31227,265,feet,jsons/v1_VE250_randls_15_rotated.json,734985,1199811,36,Man
159,970981,DepthScenes,duration_manipulation_targetAtFixation,jsons/v1_VE250_randls_15_rotated.json,http://54.235.29.9/FacialAge/BNav_EC2/DepthDuration/v2_depth_duration_MTurk/v2_DepthDuration_HTML.html#38,38,1280,800,1280,800,8-29-2022,12-31-23,160,depth_duration_stimuli/002988_2014-06-15_12-24-20_094959634447_rgbf000150-resize_1/002988_2014-06-15_12-24-20_094959634447_rgbf000150-resize_1-target.png,250,4.7669999999999995,6,3572,246,feet,jsons/v1_VE250_randls_15_rotated.json,734985,1199811,36,Man
160,970981,DepthScenes,duration_manipulation_targetAtFixation,jsons/v1_VE250_randls_15_rotated.json,http://54.235.29.9/FacialAge/BNav_EC2/DepthDuration/v2_depth_duration_MTurk/v2_DepthDuration_HTML.html#38,38,1280,800,1280,800,8-29-2022,12-31-23,161,depth_duration_stimuli/001571_2014-06-20_17-21-32_260595134347_rgbf000089-resize_1/001571_2014-06-20_17-21-32_260595134347_rgbf000089-resize_1-target.png,250,1.86,4,3327,254,feet,jsons/v1_VE250_randls_15_rotated.json,734985,1199811,36,Man
161,970981,DepthScenes,duration_manipulation_targetAtFixation,jsons/v1_VE250_randls_15_rotated.json,http://54.235.29.9/FacialAge/BNav_EC2/DepthDuration/v2_depth_duration_MTurk/v2_DepthDuration_HTML.html#38,38,1280,800,1280,800,8-29-2022,12-31-23,162,depth_duration_stimuli/002272_2014-06-28_18-53-56_260595134347_rgbf000067-resize_2/002272_2014-06-28_18-53-56_260595134347_rgbf000067-resize_2-target.png,250,1.138,3,2554,241,feet,jsons/v1_VE250_randls_15_rotated.json,734985,1199811,36,Man
162,970981,DepthScenes,duration_manipulation_targetAtFixation,jsons/v1_VE250_randls_15_rotated.json,http://54.235.29.9/FacialAge/BNav_EC2/DepthDuration/v2_depth_duration_MTurk/v2_DepthDuration_HTML.html#38,38,1280,800,1280,800,8-29-2022,12-31-23,163,depth_duration_stimuli/002136_2014-06-25_21-18-03_260595134347_rgbf000109-resize_3/002136_2014-06-25_21-18-03_260595134347_rgbf000109-resize_3-target.png,250,1.9569999999999999,4,2377,315,feet,jsons/v1_VE250_randls_15_rotated.json,734985,1199811,36,Man
163,970981,DepthScenes,duration_manipulation_targetAtFixation,jsons/v1_VE250_randls_15_rotated.json,http://54.235.29.9/FacialAge/BNav_EC2/DepthDuration/v2_depth_duration_MTurk/v2_DepthDuration_HTML.html#38,38,1280,800,1280,800,8-29-2022,12-31-23,164,depth_duration_stimuli/002964_2014-06-08_17-46-11_094959634447_rgbf000091-resize_4/002964_2014-06-08_17-46-11_094959634447_rgbf000091-resize_4-target.png,250,1.6909999999999998,2,2731,247,feet,jsons/v1_VE250_randls_15_rotated.json,734985,1199811,36,Man
