,subjID,experimentName,versionName,sequenceName,url,selected_row,windowWidth,windowHeight,screenWidth,screenHeight,startDate,startTime,trial,stimulus,duration,actual_depth,depth_estimate,trial_RT,log_sceneDuration,unitSelection,seq_filepath,experimentTime,totalTime,age,gender
0,971348,DepthScenes,duration_manipulation_targetAtFixation,jsons/v1_VE1000_randls_32.json,http://54.235.29.9/FacialAge/BNav_EC2/DepthDuration/v2_depth_duration_MTurk/v2_DepthDuration_HTML.html#124,124,1366,768,1366,768,8-22-2022,8-0-35,1,depth_duration_stimuli/000773_2014-06-08_22-24-54_260595134347_rgbf000093-resize_1/000773_2014-06-08_22-24-54_260595134347_rgbf000093-resize_1-target.png,1000,4.973,2,4480,1005,meters,jsons/v1_VE1000_randls_32.json,806071,1031998,55,Man
1,971348,DepthScenes,duration_manipulation_targetAtFixation,jsons/v1_VE1000_randls_32.json,http://54.235.29.9/FacialAge/BNav_EC2/DepthDuration/v2_depth_duration_MTurk/v2_DepthDuration_HTML.html#124,124,1366,768,1366,768,8-22-2022,8-0-35,2,depth_duration_stimuli/002414_2014-06-28_20-24-58_260595134347_rgbf000067-resize_4/002414_2014-06-28_20-24-58_260595134347_rgbf000067-resize_4-target.png,1000,4.363,2,4039,992,meters,jsons/v1_VE1000_randls_32.json,806071,1031998,55,Man
2,971348,DepthScenes,duration_manipulation_targetAtFixation,jsons/v1_VE1000_randls_32.json,http://54.235.29.9/FacialAge/BNav_EC2/DepthDuration/v2_depth_duration_MTurk/v2_DepthDuration_HTML.html#124,124,1366,768,1366,768,8-22-2022,8-0-35,3,depth_duration_stimuli/000906_2014-06-08_13-35-43_260595134347_rgbf000155-resize_1/000906_2014-06-08_13-35-43_260595134347_rgbf000155-resize_1-target.png,1000,2.8489999999999998,2,4754,990,meters,jsons/v1_VE1000_randls_32.json,806071,1031998,55,Man
3,971348,DepthScenes,duration_manipulation_targetAtFixation,jsons/v1_VE1000_randls_32.json,http://54.235.29.9/FacialAge/BNav_EC2/DepthDuration/v2_depth_duration_MTurk/v2_DepthDuration_HTML.html#124,124,1366,768,1366,768,8-22-2022,8-0-35,4,depth_duration_stimuli/002805_2014-06-22_19-54-03_094959634447_rgbf000079-resize_1/002805_2014-06-22_19-54-03_094959634447_rgbf000079-resize_1-target.png,1000,3.1439999999999997,2,5794,995,meters,jsons/v1_VE1000_randls_32.json,806071,1031998,55,Man
4,971348,DepthScenes,duration_manipulation_targetAtFixation,jsons/v1_VE1000_randls_32.json,http://54.235.29.9/FacialAge/BNav_EC2/DepthDuration/v2_depth_duration_MTurk/v2_DepthDuration_HTML.html#124,124,1366,768,1366,768,8-22-2022,8-0-35,5,depth_duration_stimuli/001133_2014-06-17_14-49-16_260595134347_rgbf000100-resize_0/001133_2014-06-17_14-49-16_260595134347_rgbf000100-resize_0-target.png,1000,4.2115,3,4312,1006,meters,jsons/v1_VE1000_randls_32.json,806071,1031998,55,Man
5,971348,DepthScenes,duration_manipulation_targetAtFixation,jsons/v1_VE1000_randls_32.json,http://54.235.29.9/FacialAge/BNav_EC2/DepthDuration/v2_depth_duration_MTurk/v2_DepthDuration_HTML.html#124,124,1366,768,1366,768,8-22-2022,8-0-35,6,depth_duration_stimuli/001132_2014-06-17_14-48-54_260595134347_rgbf000100-resize_2/001132_2014-06-17_14-48-54_260595134347_rgbf000100-resize_2-target.png,1000,3.753,2,4350,991,meters,jsons/v1_VE1000_randls_32.json,806071,1031998,55,Man
6,971348,DepthScenes,duration_manipulation_targetAtFixation,jsons/v1_VE1000_randls_32.json,http://54.235.29.9/FacialAge/BNav_EC2/DepthDuration/v2_depth_duration_MTurk/v2_DepthDuration_HTML.html#124,124,1366,768,1366,768,8-22-2022,8-0-35,7,depth_duration_stimuli/001806_2014-06-26_20-50-20_260595134347_rgbf000091-resize_1/001806_2014-06-26_20-50-20_260595134347_rgbf000091-resize_1-target.png,1000,2.7305,1,3935,884,meters,jsons/v1_VE1000_randls_32.json,806071,1031998,55,Man
7,971348,DepthScenes,duration_manipulation_targetAtFixation,jsons/v1_VE1000_randls_32.json,http://54.235.29.9/FacialAge/BNav_EC2/DepthDuration/v2_depth_duration_MTurk/v2_DepthDuration_HTML.html#124,124,1366,768,1366,768,8-22-2022,8-0-35,8,depth_duration_stimuli/001617_2014-06-20_11-35-32_260595134347_rgbf000066-resize_1/001617_2014-06-20_11-35-32_260595134347_rgbf000066-resize_1-target.png,1000,3.7910000000000004,2,4008,1000,meters,jsons/v1_VE1000_randls_32.json,806071,1031998,55,Man
8,971348,DepthScenes,duration_manipulation_targetAtFixation,jsons/v1_VE1000_randls_32.json,http://54.235.29.9/FacialAge/BNav_EC2/DepthDuration/v2_depth_duration_MTurk/v2_DepthDuration_HTML.html#124,124,1366,768,1366,768,8-22-2022,8-0-35,9,depth_duration_stimuli/003070_2014-06-15_14-58-27_094959634447_rgbf000150-resize_3/003070_2014-06-15_14-58-27_094959634447_rgbf000150-resize_3-target.png,1000,2.9415,1,4071,1022,meters,jsons/v1_VE1000_randls_32.json,806071,1031998,55,Man
9,971348,DepthScenes,duration_manipulation_targetAtFixation,jsons/v1_VE1000_randls_32.json,http://54.235.29.9/FacialAge/BNav_EC2/DepthDuration/v2_depth_duration_MTurk/v2_DepthDuration_HTML.html#124,124,1366,768,1366,768,8-22-2022,8-0-35,10,depth_duration_stimuli/000943_2014-06-09_19-31-07_260595134347_rgbf000128-resize_1/000943_2014-06-09_19-31-07_260595134347_rgbf000128-resize_1-target.png,1000,1.9765,1,4533,997,meters,jsons/v1_VE1000_randls_32.json,806071,1031998,55,Man
10,971348,DepthScenes,duration_manipulation_targetAtFixation,jsons/v1_VE1000_randls_32.json,http://54.235.29.9/FacialAge/BNav_EC2/DepthDuration/v2_depth_duration_MTurk/v2_DepthDuration_HTML.html#124,124,1366,768,1366,768,8-22-2022,8-0-35,11,depth_duration_stimuli/001150_2014-06-17_15-27-34_260595134347_rgbf000108-resize_2/001150_2014-06-17_15-27-34_260595134347_rgbf000108-resize_2-target.png,1000,4.0325,1,4417,995,meters,jsons/v1_VE1000_randls_32.json,806071,1031998,55,Man
11,971348,DepthScenes,duration_manipulation_targetAtFixation,jsons/v1_VE1000_randls_32.json,http://54.235.29.9/FacialAge/BNav_EC2/DepthDuration/v2_depth_duration_MTurk/v2_DepthDuration_HTML.html#124,124,1366,768,1366,768,8-22-2022,8-0-35,12,depth_duration_stimuli/000665_2014-06-09_20-42-35_260595134347_rgbf000110-resize_1/000665_2014-06-09_20-42-35_260595134347_rgbf000110-resize_1-target.png,1000,3.057,2,4179,995,meters,jsons/v1_VE1000_randls_32.json,806071,1031998,55,Man
12,971348,DepthScenes,duration_manipulation_targetAtFixation,jsons/v1_VE1000_randls_32.json,http://54.235.29.9/FacialAge/BNav_EC2/DepthDuration/v2_depth_duration_MTurk/v2_DepthDuration_HTML.html#124,124,1366,768,1366,768,8-22-2022,8-0-35,13,depth_duration_stimuli/000569_2014-06-09_22-51-47_260595134347_rgbf000141-resize_3/000569_2014-06-09_22-51-47_260595134347_rgbf000141-resize-original.jpg,1000,4.512,1,5267,976,meters,jsons/v1_VE1000_randls_32.json,806071,1031998,55,Man
13,971348,DepthScenes,duration_manipulation_targetAtFixation,jsons/v1_VE1000_randls_32.json,http://54.235.29.9/FacialAge/BNav_EC2/DepthDuration/v2_depth_duration_MTurk/v2_DepthDuration_HTML.html#124,124,1366,768,1366,768,8-22-2022,8-0-35,14,depth_duration_stimuli/002763_2014-06-22_19-13-10_094959634447_rgbf000075-resize_4/002763_2014-06-22_19-13-10_094959634447_rgbf000075-resize_4-target.png,1000,1.68375,1,10034,982,meters,jsons/v1_VE1000_randls_32.json,806071,1031998,55,Man
14,971348,DepthScenes,duration_manipulation_targetAtFixation,jsons/v1_VE1000_randls_32.json,http://54.235.29.9/FacialAge/BNav_EC2/DepthDuration/v2_depth_duration_MTurk/v2_DepthDuration_HTML.html#124,124,1366,768,1366,768,8-22-2022,8-0-35,15,depth_duration_stimuli/002209_2014-06-28_18-36-10_260595134347_rgbf000051-resize_1/002209_2014-06-28_18-36-10_260595134347_rgbf000051-resize_1-target.png,1000,2.057,1,55526,999,meters,jsons/v1_VE1000_randls_32.json,806071,1031998,55,Man
15,971348,DepthScenes,duration_manipulation_targetAtFixation,jsons/v1_VE1000_randls_32.json,http://54.235.29.9/FacialAge/BNav_EC2/DepthDuration/v2_depth_duration_MTurk/v2_DepthDuration_HTML.html#124,124,1366,768,1366,768,8-22-2022,8-0-35,16,depth_duration_stimuli/000736_2014-06-08_18-24-15_260595134347_rgbf000206-resize_3/000736_2014-06-08_18-24-15_260595134347_rgbf000206-resize_3-target.png,1000,3.515,2,3930,995,meters,jsons/v1_VE1000_randls_32.json,806071,1031998,55,Man
16,971348,DepthScenes,duration_manipulation_targetAtFixation,jsons/v1_VE1000_randls_32.json,http://54.235.29.9/FacialAge/BNav_EC2/DepthDuration/v2_depth_duration_MTurk/v2_DepthDuration_HTML.html#124,124,1366,768,1366,768,8-22-2022,8-0-35,17,depth_duration_stimuli/000137_2014-05-20_17-04-49_260595134347_rgbf000120-resize_1/000137_2014-05-20_17-04-49_260595134347_rgbf000120-resize_1-target.png,1000,3.786,1,55261,1151,meters,jsons/v1_VE1000_randls_32.json,806071,1031998,55,Man
17,971348,DepthScenes,duration_manipulation_targetAtFixation,jsons/v1_VE1000_randls_32.json,http://54.235.29.9/FacialAge/BNav_EC2/DepthDuration/v2_depth_duration_MTurk/v2_DepthDuration_HTML.html#124,124,1366,768,1366,768,8-22-2022,8-0-35,18,depth_duration_stimuli/003621_2014-05-23_18-06-08_094959634447_rgbf000101-resize_1/003621_2014-05-23_18-06-08_094959634447_rgbf000101-resize_1-target.png,1000,3.9835,2,4145,985,meters,jsons/v1_VE1000_randls_32.json,806071,1031998,55,Man
18,971348,DepthScenes,duration_manipulation_targetAtFixation,jsons/v1_VE1000_randls_32.json,http://54.235.29.9/FacialAge/BNav_EC2/DepthDuration/v2_depth_duration_MTurk/v2_DepthDuration_HTML.html#124,124,1366,768,1366,768,8-22-2022,8-0-35,19,depth_duration_stimuli/001584_2014-06-20_11-07-43_260595134347_rgbf000002-resize_1/001584_2014-06-20_11-07-43_260595134347_rgbf000002-resize_1-target.png,1000,3.53,1,4254,1001,meters,jsons/v1_VE1000_randls_32.json,806071,1031998,55,Man
19,971348,DepthScenes,duration_manipulation_targetAtFixation,jsons/v1_VE1000_randls_32.json,http://54.235.29.9/FacialAge/BNav_EC2/DepthDuration/v2_depth_duration_MTurk/v2_DepthDuration_HTML.html#124,124,1366,768,1366,768,8-22-2022,8-0-35,20,depth_duration_stimuli/000758_2014-06-08_22-05-08_260595134347_rgbf000085-resize_0/000758_2014-06-08_22-05-08_260595134347_rgbf000085-resize_0-target.png,1000,3.3810000000000002,2,3210,998,meters,jsons/v1_VE1000_randls_32.json,806071,1031998,55,Man
20,971348,DepthScenes,duration_manipulation_targetAtFixation,jsons/v1_VE1000_randls_32.json,http://54.235.29.9/FacialAge/BNav_EC2/DepthDuration/v2_depth_duration_MTurk/v2_DepthDuration_HTML.html#124,124,1366,768,1366,768,8-22-2022,8-0-35,21,depth_duration_stimuli/000854_2014-06-09_19-43-13_260595134347_rgbf000066-resize_0/000854_2014-06-09_19-43-13_260595134347_rgbf000066-resize_0-target.png,1000,3.068,1,3302,990,meters,jsons/v1_VE1000_randls_32.json,806071,1031998,55,Man
21,971348,DepthScenes,duration_manipulation_targetAtFixation,jsons/v1_VE1000_randls_32.json,http://54.235.29.9/FacialAge/BNav_EC2/DepthDuration/v2_depth_duration_MTurk/v2_DepthDuration_HTML.html#124,124,1366,768,1366,768,8-22-2022,8-0-35,22,depth_duration_stimuli/003534_2014-05-22_15-06-10_094959634447_rgbf000102-resize_4/003534_2014-05-22_15-06-10_094959634447_rgbf000102-resize_4-target.png,1000,1.426,1,3974,1007,meters,jsons/v1_VE1000_randls_32.json,806071,1031998,55,Man
22,971348,DepthScenes,duration_manipulation_targetAtFixation,jsons/v1_VE1000_randls_32.json,http://54.235.29.9/FacialAge/BNav_EC2/DepthDuration/v2_depth_duration_MTurk/v2_DepthDuration_HTML.html#124,124,1366,768,1366,768,8-22-2022,8-0-35,23,depth_duration_stimuli/002637_2014-06-24_14-51-13_094959634447_rgbf000066-resize_4/002637_2014-06-24_14-51-13_094959634447_rgbf000066-resize_4-target.png,1000,1.9955,2,3830,1006,meters,jsons/v1_VE1000_randls_32.json,806071,1031998,55,Man
23,971348,DepthScenes,duration_manipulation_targetAtFixation,jsons/v1_VE1000_randls_32.json,http://54.235.29.9/FacialAge/BNav_EC2/DepthDuration/v2_depth_duration_MTurk/v2_DepthDuration_HTML.html#124,124,1366,768,1366,768,8-22-2022,8-0-35,24,depth_duration_stimuli/000436_2014-06-09_22-25-11_260595134347_rgbf000137-resize_1/000436_2014-06-09_22-25-11_260595134347_rgbf000137-resize_1-target.png,1000,4.0705,1,3404,994,meters,jsons/v1_VE1000_randls_32.json,806071,1031998,55,Man
24,971348,DepthScenes,duration_manipulation_targetAtFixation,jsons/v1_VE1000_randls_32.json,http://54.235.29.9/FacialAge/BNav_EC2/DepthDuration/v2_depth_duration_MTurk/v2_DepthDuration_HTML.html#124,124,1366,768,1366,768,8-22-2022,8-0-35,25,depth_duration_stimuli/002444_2014-06-28_20-32-08_260595134347_rgbf000027-resize_0/002444_2014-06-28_20-32-08_260595134347_rgbf000027-resize_0-target.png,1000,4.388999999999999,3,4600,987,meters,jsons/v1_VE1000_randls_32.json,806071,1031998,55,Man
25,971348,DepthScenes,duration_manipulation_targetAtFixation,jsons/v1_VE1000_randls_32.json,http://54.235.29.9/FacialAge/BNav_EC2/DepthDuration/v2_depth_duration_MTurk/v2_DepthDuration_HTML.html#124,124,1366,768,1366,768,8-22-2022,8-0-35,26,depth_duration_stimuli/002725_2014-06-22_11-47-51_094959634447_rgbf000070-resize_1/002725_2014-06-22_11-47-51_094959634447_rgbf000070-resize_1-target.png,1000,2.195,2,3779,1000,meters,jsons/v1_VE1000_randls_32.json,806071,1031998,55,Man
26,971348,DepthScenes,duration_manipulation_targetAtFixation,jsons/v1_VE1000_randls_32.json,http://54.235.29.9/FacialAge/BNav_EC2/DepthDuration/v2_depth_duration_MTurk/v2_DepthDuration_HTML.html#124,124,1366,768,1366,768,8-22-2022,8-0-35,27,depth_duration_stimuli/002344_2014-06-28_20-06-29_260595134347_rgbf000030-resize_1/002344_2014-06-28_20-06-29_260595134347_rgbf000030-resize_1-target.png,1000,1.5795,1,3417,1002,meters,jsons/v1_VE1000_randls_32.json,806071,1031998,55,Man
27,971348,DepthScenes,duration_manipulation_targetAtFixation,jsons/v1_VE1000_randls_32.json,http://54.235.29.9/FacialAge/BNav_EC2/DepthDuration/v2_depth_duration_MTurk/v2_DepthDuration_HTML.html#124,124,1366,768,1366,768,8-22-2022,8-0-35,28,depth_duration_stimuli/000493_2014-06-09_21-01-18_260595134347_rgbf000196-resize_3/000493_2014-06-09_21-01-18_260595134347_rgbf000196-resize_3-target.png,1000,3.44,2,3742,1006,meters,jsons/v1_VE1000_randls_32.json,806071,1031998,55,Man
28,971348,DepthScenes,duration_manipulation_targetAtFixation,jsons/v1_VE1000_randls_32.json,http://54.235.29.9/FacialAge/BNav_EC2/DepthDuration/v2_depth_duration_MTurk/v2_DepthDuration_HTML.html#124,124,1366,768,1366,768,8-22-2022,8-0-35,29,depth_duration_stimuli/000191_2014-05-12_17-07-38_260595134347_rgbf000199-resize_0/000191_2014-05-12_17-07-38_260595134347_rgbf000199-resize_0-target.png,1000,3.7995,1,3218,998,meters,jsons/v1_VE1000_randls_32.json,806071,1031998,55,Man
29,971348,DepthScenes,duration_manipulation_targetAtFixation,jsons/v1_VE1000_randls_32.json,http://54.235.29.9/FacialAge/BNav_EC2/DepthDuration/v2_depth_duration_MTurk/v2_DepthDuration_HTML.html#124,124,1366,768,1366,768,8-22-2022,8-0-35,30,depth_duration_stimuli/000375_2014-06-08_11-17-29_260595134347_rgbf000133-resize_2/000375_2014-06-08_11-17-29_260595134347_rgbf000133-resize-original.jpg,1000,4.718,0,5070,1142,meters,jsons/v1_VE1000_randls_32.json,806071,1031998,55,Man
30,971348,DepthScenes,duration_manipulation_targetAtFixation,jsons/v1_VE1000_randls_32.json,http://54.235.29.9/FacialAge/BNav_EC2/DepthDuration/v2_depth_duration_MTurk/v2_DepthDuration_HTML.html#124,124,1366,768,1366,768,8-22-2022,8-0-35,31,depth_duration_stimuli/001808_2014-06-26_20-50-58_260595134347_rgbf000029-resize_1/001808_2014-06-26_20-50-58_260595134347_rgbf000029-resize_1-target.png,1000,4.249,2,4590,984,meters,jsons/v1_VE1000_randls_32.json,806071,1031998,55,Man
31,971348,DepthScenes,duration_manipulation_targetAtFixation,jsons/v1_VE1000_randls_32.json,http://54.235.29.9/FacialAge/BNav_EC2/DepthDuration/v2_depth_duration_MTurk/v2_DepthDuration_HTML.html#124,124,1366,768,1366,768,8-22-2022,8-0-35,32,depth_duration_stimuli/001815_2014-06-26_20-52-55_260595134347_rgbf000020-resize_0/001815_2014-06-26_20-52-55_260595134347_rgbf000020-resize_0-target.png,1000,3.3865,1,3750,999,meters,jsons/v1_VE1000_randls_32.json,806071,1031998,55,Man
32,971348,DepthScenes,duration_manipulation_targetAtFixation,jsons/v1_VE1000_randls_32.json,http://54.235.29.9/FacialAge/BNav_EC2/DepthDuration/v2_depth_duration_MTurk/v2_DepthDuration_HTML.html#124,124,1366,768,1366,768,8-22-2022,8-0-35,33,depth_duration_stimuli/000009_2014-05-26_14-32-05_260595134347_rgbf000034-resize_3/000009_2014-05-26_14-32-05_260595134347_rgbf000034-resize_3-target.png,1000,3.8715,1,4702,1147,meters,jsons/v1_VE1000_randls_32.json,806071,1031998,55,Man
33,971348,DepthScenes,duration_manipulation_targetAtFixation,jsons/v1_VE1000_randls_32.json,http://54.235.29.9/FacialAge/BNav_EC2/DepthDuration/v2_depth_duration_MTurk/v2_DepthDuration_HTML.html#124,124,1366,768,1366,768,8-22-2022,8-0-35,34,depth_duration_stimuli/001828_2014-06-26_21-40-03_260595134347_rgbf000024-resize_0/001828_2014-06-26_21-40-03_260595134347_rgbf000024-resize_0-target.png,1000,4.8260000000000005,2,3652,985,meters,jsons/v1_VE1000_randls_32.json,806071,1031998,55,Man
34,971348,DepthScenes,duration_manipulation_targetAtFixation,jsons/v1_VE1000_randls_32.json,http://54.235.29.9/FacialAge/BNav_EC2/DepthDuration/v2_depth_duration_MTurk/v2_DepthDuration_HTML.html#124,124,1366,768,1366,768,8-22-2022,8-0-35,35,depth_duration_stimuli/002279_2014-06-28_18-55-32_260595134347_rgbf000040-resize_5/002279_2014-06-28_18-55-32_260595134347_rgbf000040-resize_5-target.png,1000,1.5043333333333,2,4160,1002,meters,jsons/v1_VE1000_randls_32.json,806071,1031998,55,Man
35,971348,DepthScenes,duration_manipulation_targetAtFixation,jsons/v1_VE1000_randls_32.json,http://54.235.29.9/FacialAge/BNav_EC2/DepthDuration/v2_depth_duration_MTurk/v2_DepthDuration_HTML.html#124,124,1366,768,1366,768,8-22-2022,8-0-35,36,depth_duration_stimuli/000635_2014-06-08_16-38-42_260595134347_rgbf000106-resize_1/000635_2014-06-08_16-38-42_260595134347_rgbf000106-resize_1-target.png,1000,2.074,1,5265,992,meters,jsons/v1_VE1000_randls_32.json,806071,1031998,55,Man
36,971348,DepthScenes,duration_manipulation_targetAtFixation,jsons/v1_VE1000_randls_32.json,http://54.235.29.9/FacialAge/BNav_EC2/DepthDuration/v2_depth_duration_MTurk/v2_DepthDuration_HTML.html#124,124,1366,768,1366,768,8-22-2022,8-0-35,37,depth_duration_stimuli/002213_2014-06-28_18-37-58_260595134347_rgbf000055-resize_1/002213_2014-06-28_18-37-58_260595134347_rgbf000055-resize_1-target.png,1000,3.62,2,3392,999,meters,jsons/v1_VE1000_randls_32.json,806071,1031998,55,Man
37,971348,DepthScenes,duration_manipulation_targetAtFixation,jsons/v1_VE1000_randls_32.json,http://54.235.29.9/FacialAge/BNav_EC2/DepthDuration/v2_depth_duration_MTurk/v2_DepthDuration_HTML.html#124,124,1366,768,1366,768,8-22-2022,8-0-35,38,depth_duration_stimuli/000691_2014-06-08_13-08-50_260595134347_rgbf000132-resize_3/000691_2014-06-08_13-08-50_260595134347_rgbf000132-resize_3-target.png,1000,4.1530000000000005,1,3165,994,meters,jsons/v1_VE1000_randls_32.json,806071,1031998,55,Man
38,971348,DepthScenes,duration_manipulation_targetAtFixation,jsons/v1_VE1000_randls_32.json,http://54.235.29.9/FacialAge/BNav_EC2/DepthDuration/v2_depth_duration_MTurk/v2_DepthDuration_HTML.html#124,124,1366,768,1366,768,8-22-2022,8-0-35,39,depth_duration_stimuli/001810_2014-06-26_20-51-35_260595134347_rgbf000040-resize_3/001810_2014-06-26_20-51-35_260595134347_rgbf000040-resize_3-target.png,1000,2.2525,1,3214,1009,meters,jsons/v1_VE1000_randls_32.json,806071,1031998,55,Man
39,971348,DepthScenes,duration_manipulation_targetAtFixation,jsons/v1_VE1000_randls_32.json,http://54.235.29.9/FacialAge/BNav_EC2/DepthDuration/v2_depth_duration_MTurk/v2_DepthDuration_HTML.html#124,124,1366,768,1366,768,8-22-2022,8-0-35,40,depth_duration_stimuli/003010_2014-06-15_12-54-35_094959634447_rgbf000112-resize_0/003010_2014-06-15_12-54-35_094959634447_rgbf000112-resize_0-target.png,1000,3.1185,1,4436,987,meters,jsons/v1_VE1000_randls_32.json,806071,1031998,55,Man
40,971348,DepthScenes,duration_manipulation_targetAtFixation,jsons/v1_VE1000_randls_32.json,http://54.235.29.9/FacialAge/BNav_EC2/DepthDuration/v2_depth_duration_MTurk/v2_DepthDuration_HTML.html#124,124,1366,768,1366,768,8-22-2022,8-0-35,41,depth_duration_stimuli/002570_2014-06-24_13-59-54_094959634447_rgbf000059-resize_0/002570_2014-06-24_13-59-54_094959634447_rgbf000059-resize_0-target.png,1000,4.037,2,3495,1023,meters,jsons/v1_VE1000_randls_32.json,806071,1031998,55,Man
41,971348,DepthScenes,duration_manipulation_targetAtFixation,jsons/v1_VE1000_randls_32.json,http://54.235.29.9/FacialAge/BNav_EC2/DepthDuration/v2_depth_duration_MTurk/v2_DepthDuration_HTML.html#124,124,1366,768,1366,768,8-22-2022,8-0-35,42,depth_duration_stimuli/002467_2014-06-28_20-38-07_260595134347_rgbf000026-resize_2/002467_2014-06-28_20-38-07_260595134347_rgbf000026-resize_2-target.png,1000,4.742,1,3700,1004,meters,jsons/v1_VE1000_randls_32.json,806071,1031998,55,Man
42,971348,DepthScenes,duration_manipulation_targetAtFixation,jsons/v1_VE1000_randls_32.json,http://54.235.29.9/FacialAge/BNav_EC2/DepthDuration/v2_depth_duration_MTurk/v2_DepthDuration_HTML.html#124,124,1366,768,1366,768,8-22-2022,8-0-35,43,depth_duration_stimuli/002153_2014-06-25_21-27-18_260595134347_rgbf000038-resize_5/002153_2014-06-25_21-27-18_260595134347_rgbf000038-resize_5-target.png,1000,2.505,1,3430,1001,meters,jsons/v1_VE1000_randls_32.json,806071,1031998,55,Man
43,971348,DepthScenes,duration_manipulation_targetAtFixation,jsons/v1_VE1000_randls_32.json,http://54.235.29.9/FacialAge/BNav_EC2/DepthDuration/v2_depth_duration_MTurk/v2_DepthDuration_HTML.html#124,124,1366,768,1366,768,8-22-2022,8-0-35,44,depth_duration_stimuli/002660_2014-06-13_15-44-18_094959634447_rgbf001878-resize_2/002660_2014-06-13_15-44-18_094959634447_rgbf001878-resize_2-target.png,1000,3.576,2,3331,1003,meters,jsons/v1_VE1000_randls_32.json,806071,1031998,55,Man
44,971348,DepthScenes,duration_manipulation_targetAtFixation,jsons/v1_VE1000_randls_32.json,http://54.235.29.9/FacialAge/BNav_EC2/DepthDuration/v2_depth_duration_MTurk/v2_DepthDuration_HTML.html#124,124,1366,768,1366,768,8-22-2022,8-0-35,45,depth_duration_stimuli/000787_2014-06-08_22-33-53_260595134347_rgbf000175-resize_1/000787_2014-06-08_22-33-53_260595134347_rgbf000175-resize-original.jpg,1000,4.784,0,5618,1000,meters,jsons/v1_VE1000_randls_32.json,806071,1031998,55,Man
45,971348,DepthScenes,duration_manipulation_targetAtFixation,jsons/v1_VE1000_randls_32.json,http://54.235.29.9/FacialAge/BNav_EC2/DepthDuration/v2_depth_duration_MTurk/v2_DepthDuration_HTML.html#124,124,1366,768,1366,768,8-22-2022,8-0-35,46,depth_duration_stimuli/001449_2014-06-19_17-01-27_260595134347_rgbf000116-resize_2/001449_2014-06-19_17-01-27_260595134347_rgbf000116-resize_2-target.png,1000,3.452,1,3585,1007,meters,jsons/v1_VE1000_randls_32.json,806071,1031998,55,Man
46,971348,DepthScenes,duration_manipulation_targetAtFixation,jsons/v1_VE1000_randls_32.json,http://54.235.29.9/FacialAge/BNav_EC2/DepthDuration/v2_depth_duration_MTurk/v2_DepthDuration_HTML.html#124,124,1366,768,1366,768,8-22-2022,8-0-35,47,depth_duration_stimuli/001450_2014-06-19_17-02-03_260595134347_rgbf000203-resize_4/001450_2014-06-19_17-02-03_260595134347_rgbf000203-resize_4-target.png,1000,4.0106666666667,1,4305,1002,meters,jsons/v1_VE1000_randls_32.json,806071,1031998,55,Man
47,971348,DepthScenes,duration_manipulation_targetAtFixation,jsons/v1_VE1000_randls_32.json,http://54.235.29.9/FacialAge/BNav_EC2/DepthDuration/v2_depth_duration_MTurk/v2_DepthDuration_HTML.html#124,124,1366,768,1366,768,8-22-2022,8-0-35,48,depth_duration_stimuli/002964_2014-06-08_17-46-11_094959634447_rgbf000091-resize_4/002964_2014-06-08_17-46-11_094959634447_rgbf000091-resize_4-target.png,1000,1.6909999999999998,1,3557,996,meters,jsons/v1_VE1000_randls_32.json,806071,1031998,55,Man
48,971348,DepthScenes,duration_manipulation_targetAtFixation,jsons/v1_VE1000_randls_32.json,http://54.235.29.9/FacialAge/BNav_EC2/DepthDuration/v2_depth_duration_MTurk/v2_DepthDuration_HTML.html#124,124,1366,768,1366,768,8-22-2022,8-0-35,49,depth_duration_stimuli/002136_2014-06-25_21-18-03_260595134347_rgbf000109-resize_3/002136_2014-06-25_21-18-03_260595134347_rgbf000109-resize_3-target.png,1000,1.9569999999999999,1,3472,991,meters,jsons/v1_VE1000_randls_32.json,806071,1031998,55,Man
49,971348,DepthScenes,duration_manipulation_targetAtFixation,jsons/v1_VE1000_randls_32.json,http://54.235.29.9/FacialAge/BNav_EC2/DepthDuration/v2_depth_duration_MTurk/v2_DepthDuration_HTML.html#124,124,1366,768,1366,768,8-22-2022,8-0-35,50,depth_duration_stimuli/001092_2014-06-15_17-34-58_260595134347_rgbf000171-resize_3/001092_2014-06-15_17-34-58_260595134347_rgbf000171-resize_3-target.png,1000,2.6935,2,2713,812,meters,jsons/v1_VE1000_randls_32.json,806071,1031998,55,Man
50,971348,DepthScenes,duration_manipulation_targetAtFixation,jsons/v1_VE1000_randls_32.json,http://54.235.29.9/FacialAge/BNav_EC2/DepthDuration/v2_depth_duration_MTurk/v2_DepthDuration_HTML.html#124,124,1366,768,1366,768,8-22-2022,8-0-35,51,depth_duration_stimuli/002545_2014-06-24_13-38-53_094959634447_rgbf000080-resize_4/002545_2014-06-24_13-38-53_094959634447_rgbf000080-resize_4-target.png,1000,1.9205,1,3322,968,meters,jsons/v1_VE1000_randls_32.json,806071,1031998,55,Man
51,971348,DepthScenes,duration_manipulation_targetAtFixation,jsons/v1_VE1000_randls_32.json,http://54.235.29.9/FacialAge/BNav_EC2/DepthDuration/v2_depth_duration_MTurk/v2_DepthDuration_HTML.html#124,124,1366,768,1366,768,8-22-2022,8-0-35,52,depth_duration_stimuli/002445_2014-06-28_20-32-16_260595134347_rgbf000029-resize_4/002445_2014-06-28_20-32-16_260595134347_rgbf000029-resize_4-target.png,1000,2.5315,1,3660,987,meters,jsons/v1_VE1000_randls_32.json,806071,1031998,55,Man
52,971348,DepthScenes,duration_manipulation_targetAtFixation,jsons/v1_VE1000_randls_32.json,http://54.235.29.9/FacialAge/BNav_EC2/DepthDuration/v2_depth_duration_MTurk/v2_DepthDuration_HTML.html#124,124,1366,768,1366,768,8-22-2022,8-0-35,53,depth_duration_stimuli/000780_2014-06-08_22-28-29_260595134347_rgbf000126-resize_1/000780_2014-06-08_22-28-29_260595134347_rgbf000126-resize_1-target.png,1000,3.3825,2,2905,972,meters,jsons/v1_VE1000_randls_32.json,806071,1031998,55,Man
53,971348,DepthScenes,duration_manipulation_targetAtFixation,jsons/v1_VE1000_randls_32.json,http://54.235.29.9/FacialAge/BNav_EC2/DepthDuration/v2_depth_duration_MTurk/v2_DepthDuration_HTML.html#124,124,1366,768,1366,768,8-22-2022,8-0-35,54,depth_duration_stimuli/000522_2014-06-08_13-35-06_260595134347_rgbf000244-resize_1/000522_2014-06-08_13-35-06_260595134347_rgbf000244-resize_1-target.png,1000,2.3715,1,4341,775,meters,jsons/v1_VE1000_randls_32.json,806071,1031998,55,Man
54,971348,DepthScenes,duration_manipulation_targetAtFixation,jsons/v1_VE1000_randls_32.json,http://54.235.29.9/FacialAge/BNav_EC2/DepthDuration/v2_depth_duration_MTurk/v2_DepthDuration_HTML.html#124,124,1366,768,1366,768,8-22-2022,8-0-35,55,depth_duration_stimuli/002949_2014-06-26_15-57-42_094959634447_rgbf000079-resize_1/002949_2014-06-26_15-57-42_094959634447_rgbf000079-resize_1-target.png,1000,1.8915,1,3079,1006,meters,jsons/v1_VE1000_randls_32.json,806071,1031998,55,Man
55,971348,DepthScenes,duration_manipulation_targetAtFixation,jsons/v1_VE1000_randls_32.json,http://54.235.29.9/FacialAge/BNav_EC2/DepthDuration/v2_depth_duration_MTurk/v2_DepthDuration_HTML.html#124,124,1366,768,1366,768,8-22-2022,8-0-35,56,depth_duration_stimuli/000929_2014-06-09_16-33-19_260595134347_rgbf000139-resize_0/000929_2014-06-09_16-33-19_260595134347_rgbf000139-resize_0-target.png,1000,2.8680000000000003,2,3847,990,meters,jsons/v1_VE1000_randls_32.json,806071,1031998,55,Man
56,971348,DepthScenes,duration_manipulation_targetAtFixation,jsons/v1_VE1000_randls_32.json,http://54.235.29.9/FacialAge/BNav_EC2/DepthDuration/v2_depth_duration_MTurk/v2_DepthDuration_HTML.html#124,124,1366,768,1366,768,8-22-2022,8-0-35,57,depth_duration_stimuli/000457_2014-06-08_16-52-43_260595134347_rgbf000199-resize_1/000457_2014-06-08_16-52-43_260595134347_rgbf000199-resize_1-target.png,1000,3.6489999999999996,1,3070,999,meters,jsons/v1_VE1000_randls_32.json,806071,1031998,55,Man
57,971348,DepthScenes,duration_manipulation_targetAtFixation,jsons/v1_VE1000_randls_32.json,http://54.235.29.9/FacialAge/BNav_EC2/DepthDuration/v2_depth_duration_MTurk/v2_DepthDuration_HTML.html#124,124,1366,768,1366,768,8-22-2022,8-0-35,58,depth_duration_stimuli/001055_2014-06-08_18-45-35_260595134347_rgbf000111-resize_4/001055_2014-06-08_18-45-35_260595134347_rgbf000111-resize_4-target.png,1000,2.4290000000000003,1,2979,968,meters,jsons/v1_VE1000_randls_32.json,806071,1031998,55,Man
58,971348,DepthScenes,duration_manipulation_targetAtFixation,jsons/v1_VE1000_randls_32.json,http://54.235.29.9/FacialAge/BNav_EC2/DepthDuration/v2_depth_duration_MTurk/v2_DepthDuration_HTML.html#124,124,1366,768,1366,768,8-22-2022,8-0-35,59,depth_duration_stimuli/000549_2014-06-08_22-10-24_260595134347_rgbf000247-resize_3/000549_2014-06-08_22-10-24_260595134347_rgbf000247-resize_3-target.png,1000,1.841,2,3524,996,meters,jsons/v1_VE1000_randls_32.json,806071,1031998,55,Man
59,971348,DepthScenes,duration_manipulation_targetAtFixation,jsons/v1_VE1000_randls_32.json,http://54.235.29.9/FacialAge/BNav_EC2/DepthDuration/v2_depth_duration_MTurk/v2_DepthDuration_HTML.html#124,124,1366,768,1366,768,8-22-2022,8-0-35,60,depth_duration_stimuli/002788_2014-06-22_19-36-03_094959634447_rgbf000088-resize_2/002788_2014-06-22_19-36-03_094959634447_rgbf000088-resize_2-target.png,1000,1.6465,1,3800,988,meters,jsons/v1_VE1000_randls_32.json,806071,1031998,55,Man
60,971348,DepthScenes,duration_manipulation_targetAtFixation,jsons/v1_VE1000_randls_32.json,http://54.235.29.9/FacialAge/BNav_EC2/DepthDuration/v2_depth_duration_MTurk/v2_DepthDuration_HTML.html#124,124,1366,768,1366,768,8-22-2022,8-0-35,61,depth_duration_stimuli/000749_2014-06-08_21-55-06_260595134347_rgbf000070-resize_2/000749_2014-06-08_21-55-06_260595134347_rgbf000070-resize_2-target.png,1000,2.331,1,3306,982,meters,jsons/v1_VE1000_randls_32.json,806071,1031998,55,Man
61,971348,DepthScenes,duration_manipulation_targetAtFixation,jsons/v1_VE1000_randls_32.json,http://54.235.29.9/FacialAge/BNav_EC2/DepthDuration/v2_depth_duration_MTurk/v2_DepthDuration_HTML.html#124,124,1366,768,1366,768,8-22-2022,8-0-35,62,depth_duration_stimuli/001011_2014-06-08_23-18-54_260595134347_rgbf000044-resize_4/001011_2014-06-08_23-18-54_260595134347_rgbf000044-resize_4-target.png,1000,2.4730000000000003,2,3462,911,meters,jsons/v1_VE1000_randls_32.json,806071,1031998,55,Man
62,971348,DepthScenes,duration_manipulation_targetAtFixation,jsons/v1_VE1000_randls_32.json,http://54.235.29.9/FacialAge/BNav_EC2/DepthDuration/v2_depth_duration_MTurk/v2_DepthDuration_HTML.html#124,124,1366,768,1366,768,8-22-2022,8-0-35,63,depth_duration_stimuli/002875_2014-06-01_15-19-00_094959634447_rgbf000151-resize_1/002875_2014-06-01_15-19-00_094959634447_rgbf000151-resize_1-target.png,1000,1.9675,1,6629,948,meters,jsons/v1_VE1000_randls_32.json,806071,1031998,55,Man
63,971348,DepthScenes,duration_manipulation_targetAtFixation,jsons/v1_VE1000_randls_32.json,http://54.235.29.9/FacialAge/BNav_EC2/DepthDuration/v2_depth_duration_MTurk/v2_DepthDuration_HTML.html#124,124,1366,768,1366,768,8-22-2022,8-0-35,64,depth_duration_stimuli/000469_2014-06-09_19-42-10_260595134347_rgbf000081-resize_1/000469_2014-06-09_19-42-10_260595134347_rgbf000081-resize_1-target.png,1000,1.652,1,4472,999,meters,jsons/v1_VE1000_randls_32.json,806071,1031998,55,Man
64,971348,DepthScenes,duration_manipulation_targetAtFixation,jsons/v1_VE1000_randls_32.json,http://54.235.29.9/FacialAge/BNav_EC2/DepthDuration/v2_depth_duration_MTurk/v2_DepthDuration_HTML.html#124,124,1366,768,1366,768,8-22-2022,8-0-35,65,depth_duration_stimuli/000483_2014-06-09_20-41-45_260595134347_rgbf000116-resize_4/000483_2014-06-09_20-41-45_260595134347_rgbf000116-resize_4-target.png,1000,1.337,1,4929,1000,meters,jsons/v1_VE1000_randls_32.json,806071,1031998,55,Man
65,971348,DepthScenes,duration_manipulation_targetAtFixation,jsons/v1_VE1000_randls_32.json,http://54.235.29.9/FacialAge/BNav_EC2/DepthDuration/v2_depth_duration_MTurk/v2_DepthDuration_HTML.html#124,124,1366,768,1366,768,8-22-2022,8-0-35,66,depth_duration_stimuli/001222_2014-06-17_16-24-06_260595134347_rgbf000073-resize_0/001222_2014-06-17_16-24-06_260595134347_rgbf000073-resize-original.jpg,1000,1.4385,1,5086,998,meters,jsons/v1_VE1000_randls_32.json,806071,1031998,55,Man
66,971348,DepthScenes,duration_manipulation_targetAtFixation,jsons/v1_VE1000_randls_32.json,http://54.235.29.9/FacialAge/BNav_EC2/DepthDuration/v2_depth_duration_MTurk/v2_DepthDuration_HTML.html#124,124,1366,768,1366,768,8-22-2022,8-0-35,67,depth_duration_stimuli/002748_2014-06-22_19-07-22_094959634447_rgbf000078-resize_1/002748_2014-06-22_19-07-22_094959634447_rgbf000078-resize_1-target.png,1000,4.6705,1,2965,995,meters,jsons/v1_VE1000_randls_32.json,806071,1031998,55,Man
67,971348,DepthScenes,duration_manipulation_targetAtFixation,jsons/v1_VE1000_randls_32.json,http://54.235.29.9/FacialAge/BNav_EC2/DepthDuration/v2_depth_duration_MTurk/v2_DepthDuration_HTML.html#124,124,1366,768,1366,768,8-22-2022,8-0-35,68,depth_duration_stimuli/002995_2014-06-15_12-31-26_094959634447_rgbf000150-resize_1/002995_2014-06-15_12-31-26_094959634447_rgbf000150-resize_1-target.png,1000,3.8360000000000003,1,5106,999,meters,jsons/v1_VE1000_randls_32.json,806071,1031998,55,Man
68,971348,DepthScenes,duration_manipulation_targetAtFixation,jsons/v1_VE1000_randls_32.json,http://54.235.29.9/FacialAge/BNav_EC2/DepthDuration/v2_depth_duration_MTurk/v2_DepthDuration_HTML.html#124,124,1366,768,1366,768,8-22-2022,8-0-35,69,depth_duration_stimuli/002549_2014-06-24_13-41-39_094959634447_rgbf000022-resize_3/002549_2014-06-24_13-41-39_094959634447_rgbf000022-resize_3-target.png,1000,1.476,1,4615,1013,meters,jsons/v1_VE1000_randls_32.json,806071,1031998,55,Man
69,971348,DepthScenes,duration_manipulation_targetAtFixation,jsons/v1_VE1000_randls_32.json,http://54.235.29.9/FacialAge/BNav_EC2/DepthDuration/v2_depth_duration_MTurk/v2_DepthDuration_HTML.html#124,124,1366,768,1366,768,8-22-2022,8-0-35,70,depth_duration_stimuli/002750_2014-06-22_19-08-03_094959634447_rgbf000094-resize_4/002750_2014-06-22_19-08-03_094959634447_rgbf000094-resize_4-target.png,1000,2.354,2,3748,989,meters,jsons/v1_VE1000_randls_32.json,806071,1031998,55,Man
70,971348,DepthScenes,duration_manipulation_targetAtFixation,jsons/v1_VE1000_randls_32.json,http://54.235.29.9/FacialAge/BNav_EC2/DepthDuration/v2_depth_duration_MTurk/v2_DepthDuration_HTML.html#124,124,1366,768,1366,768,8-22-2022,8-0-35,71,depth_duration_stimuli/000642_2014-06-08_16-59-25_260595134347_rgbf000098-resize_2/000642_2014-06-08_16-59-25_260595134347_rgbf000098-resize_2-target.png,1000,2.8815,1,3624,984,meters,jsons/v1_VE1000_randls_32.json,806071,1031998,55,Man
71,971348,DepthScenes,duration_manipulation_targetAtFixation,jsons/v1_VE1000_randls_32.json,http://54.235.29.9/FacialAge/BNav_EC2/DepthDuration/v2_depth_duration_MTurk/v2_DepthDuration_HTML.html#124,124,1366,768,1366,768,8-22-2022,8-0-35,72,depth_duration_stimuli/002425_2014-06-28_20-27-29_260595134347_rgbf000031-resize_8/002425_2014-06-28_20-27-29_260595134347_rgbf000031-resize_8-target.png,1000,3.8960000000000004,2,3927,1016,meters,jsons/v1_VE1000_randls_32.json,806071,1031998,55,Man
72,971348,DepthScenes,duration_manipulation_targetAtFixation,jsons/v1_VE1000_randls_32.json,http://54.235.29.9/FacialAge/BNav_EC2/DepthDuration/v2_depth_duration_MTurk/v2_DepthDuration_HTML.html#124,124,1366,768,1366,768,8-22-2022,8-0-35,73,depth_duration_stimuli/001175_2014-06-17_15-45-55_260595134347_rgbf000129-resize_4/001175_2014-06-17_15-45-55_260595134347_rgbf000129-resize_4-target.png,1000,4.255,1,4751,1008,meters,jsons/v1_VE1000_randls_32.json,806071,1031998,55,Man
73,971348,DepthScenes,duration_manipulation_targetAtFixation,jsons/v1_VE1000_randls_32.json,http://54.235.29.9/FacialAge/BNav_EC2/DepthDuration/v2_depth_duration_MTurk/v2_DepthDuration_HTML.html#124,124,1366,768,1366,768,8-22-2022,8-0-35,74,depth_duration_stimuli/003490_2014-05-21_15-50-11_094959634447_rgbf000101-resize_3/003490_2014-05-21_15-50-11_094959634447_rgbf000101-resize_3-target.png,1000,3.6445,2,4382,990,meters,jsons/v1_VE1000_randls_32.json,806071,1031998,55,Man
74,971348,DepthScenes,duration_manipulation_targetAtFixation,jsons/v1_VE1000_randls_32.json,http://54.235.29.9/FacialAge/BNav_EC2/DepthDuration/v2_depth_duration_MTurk/v2_DepthDuration_HTML.html#124,124,1366,768,1366,768,8-22-2022,8-0-35,75,depth_duration_stimuli/000692_2014-06-08_13-09-42_260595134347_rgbf000199-resize_2/000692_2014-06-08_13-09-42_260595134347_rgbf000199-resize_2-target.png,1000,3.661,1,4039,992,meters,jsons/v1_VE1000_randls_32.json,806071,1031998,55,Man
75,971348,DepthScenes,duration_manipulation_targetAtFixation,jsons/v1_VE1000_randls_32.json,http://54.235.29.9/FacialAge/BNav_EC2/DepthDuration/v2_depth_duration_MTurk/v2_DepthDuration_HTML.html#124,124,1366,768,1366,768,8-22-2022,8-0-35,76,depth_duration_stimuli/001094_2014-06-15_17-36-00_260595134347_rgbf000205-resize_0/001094_2014-06-15_17-36-00_260595134347_rgbf000205-resize_0-target.png,1000,4.2175,2,4166,999,meters,jsons/v1_VE1000_randls_32.json,806071,1031998,55,Man
76,971348,DepthScenes,duration_manipulation_targetAtFixation,jsons/v1_VE1000_randls_32.json,http://54.235.29.9/FacialAge/BNav_EC2/DepthDuration/v2_depth_duration_MTurk/v2_DepthDuration_HTML.html#124,124,1366,768,1366,768,8-22-2022,8-0-35,77,depth_duration_stimuli/002905_2014-06-03_18-04-43_094959634447_rgbf000151-resize_2/002905_2014-06-03_18-04-43_094959634447_rgbf000151-resize_2-target.png,1000,2.0295,1,3997,1029,meters,jsons/v1_VE1000_randls_32.json,806071,1031998,55,Man
77,971348,DepthScenes,duration_manipulation_targetAtFixation,jsons/v1_VE1000_randls_32.json,http://54.235.29.9/FacialAge/BNav_EC2/DepthDuration/v2_depth_duration_MTurk/v2_DepthDuration_HTML.html#124,124,1366,768,1366,768,8-22-2022,8-0-35,78,depth_duration_stimuli/003423_2014-05-21_10-23-26_094959634447_rgbf002665-resize_2/003423_2014-05-21_10-23-26_094959634447_rgbf002665-resize_2-target.png,1000,3.2575,2,3685,995,meters,jsons/v1_VE1000_randls_32.json,806071,1031998,55,Man
78,971348,DepthScenes,duration_manipulation_targetAtFixation,jsons/v1_VE1000_randls_32.json,http://54.235.29.9/FacialAge/BNav_EC2/DepthDuration/v2_depth_duration_MTurk/v2_DepthDuration_HTML.html#124,124,1366,768,1366,768,8-22-2022,8-0-35,79,depth_duration_stimuli/001244_2014-06-17_16-47-45_260595134347_rgbf000030-resize_4/001244_2014-06-17_16-47-45_260595134347_rgbf000030-resize_4-target.png,1000,2.0425,2,3594,1009,meters,jsons/v1_VE1000_randls_32.json,806071,1031998,55,Man
79,971348,DepthScenes,duration_manipulation_targetAtFixation,jsons/v1_VE1000_randls_32.json,http://54.235.29.9/FacialAge/BNav_EC2/DepthDuration/v2_depth_duration_MTurk/v2_DepthDuration_HTML.html#124,124,1366,768,1366,768,8-22-2022,8-0-35,80,depth_duration_stimuli/003495_2014-05-21_16-01-51_094959634447_rgbf000100-resize_3/003495_2014-05-21_16-01-51_094959634447_rgbf000100-resize_3-target.png,1000,1.6255,1,4187,991,meters,jsons/v1_VE1000_randls_32.json,806071,1031998,55,Man
80,971348,DepthScenes,duration_manipulation_targetAtFixation,jsons/v1_VE1000_randls_32.json,http://54.235.29.9/FacialAge/BNav_EC2/DepthDuration/v2_depth_duration_MTurk/v2_DepthDuration_HTML.html#124,124,1366,768,1366,768,8-22-2022,8-0-35,81,depth_duration_stimuli/000414_2014-06-04_19-49-13_260595134347_rgbf000044-resize_0/000414_2014-06-04_19-49-13_260595134347_rgbf000044-resize_0-target.png,1000,4.329,1,3813,989,meters,jsons/v1_VE1000_randls_32.json,806071,1031998,55,Man
81,971348,DepthScenes,duration_manipulation_targetAtFixation,jsons/v1_VE1000_randls_32.json,http://54.235.29.9/FacialAge/BNav_EC2/DepthDuration/v2_depth_duration_MTurk/v2_DepthDuration_HTML.html#124,124,1366,768,1366,768,8-22-2022,8-0-35,82,depth_duration_stimuli/003129_2014-05-12_10-48-10_094959634447_rgbf000100-resize_0/003129_2014-05-12_10-48-10_094959634447_rgbf000100-resize_0-target.png,1000,4.9305,1,3856,993,meters,jsons/v1_VE1000_randls_32.json,806071,1031998,55,Man
82,971348,DepthScenes,duration_manipulation_targetAtFixation,jsons/v1_VE1000_randls_32.json,http://54.235.29.9/FacialAge/BNav_EC2/DepthDuration/v2_depth_duration_MTurk/v2_DepthDuration_HTML.html#124,124,1366,768,1366,768,8-22-2022,8-0-35,83,depth_duration_stimuli/001016_2014-06-09_16-16-10_260595134347_rgbf000112-resize_5/001016_2014-06-09_16-16-10_260595134347_rgbf000112-resize_5-target.png,1000,1.6565,1,4284,988,meters,jsons/v1_VE1000_randls_32.json,806071,1031998,55,Man
83,971348,DepthScenes,duration_manipulation_targetAtFixation,jsons/v1_VE1000_randls_32.json,http://54.235.29.9/FacialAge/BNav_EC2/DepthDuration/v2_depth_duration_MTurk/v2_DepthDuration_HTML.html#124,124,1366,768,1366,768,8-22-2022,8-0-35,84,depth_duration_stimuli/002340_2014-06-28_20-05-46_260595134347_rgbf000113-resize_0/002340_2014-06-28_20-05-46_260595134347_rgbf000113-resize_0-target.png,1000,2.4735,1,4077,1002,meters,jsons/v1_VE1000_randls_32.json,806071,1031998,55,Man
84,971348,DepthScenes,duration_manipulation_targetAtFixation,jsons/v1_VE1000_randls_32.json,http://54.235.29.9/FacialAge/BNav_EC2/DepthDuration/v2_depth_duration_MTurk/v2_DepthDuration_HTML.html#124,124,1366,768,1366,768,8-22-2022,8-0-35,85,depth_duration_stimuli/002272_2014-06-28_18-53-56_260595134347_rgbf000067-resize_2/002272_2014-06-28_18-53-56_260595134347_rgbf000067-resize_2-target.png,1000,1.138,1,3705,999,meters,jsons/v1_VE1000_randls_32.json,806071,1031998,55,Man
85,971348,DepthScenes,duration_manipulation_targetAtFixation,jsons/v1_VE1000_randls_32.json,http://54.235.29.9/FacialAge/BNav_EC2/DepthDuration/v2_depth_duration_MTurk/v2_DepthDuration_HTML.html#124,124,1366,768,1366,768,8-22-2022,8-0-35,86,depth_duration_stimuli/001571_2014-06-20_17-21-32_260595134347_rgbf000089-resize_1/001571_2014-06-20_17-21-32_260595134347_rgbf000089-resize_1-target.png,1000,1.86,1,3285,984,meters,jsons/v1_VE1000_randls_32.json,806071,1031998,55,Man
86,971348,DepthScenes,duration_manipulation_targetAtFixation,jsons/v1_VE1000_randls_32.json,http://54.235.29.9/FacialAge/BNav_EC2/DepthDuration/v2_depth_duration_MTurk/v2_DepthDuration_HTML.html#124,124,1366,768,1366,768,8-22-2022,8-0-35,87,depth_duration_stimuli/000486_2014-06-09_20-47-20_260595134347_rgbf000143-resize_2/000486_2014-06-09_20-47-20_260595134347_rgbf000143-resize_2-target.png,1000,4.8325,0,4683,986,meters,jsons/v1_VE1000_randls_32.json,806071,1031998,55,Man
87,971348,DepthScenes,duration_manipulation_targetAtFixation,jsons/v1_VE1000_randls_32.json,http://54.235.29.9/FacialAge/BNav_EC2/DepthDuration/v2_depth_duration_MTurk/v2_DepthDuration_HTML.html#124,124,1366,768,1366,768,8-22-2022,8-0-35,88,depth_duration_stimuli/003083_2014-06-15_15-21-03_094959634447_rgbf000063-resize_1/003083_2014-06-15_15-21-03_094959634447_rgbf000063-resize_1-target.png,1000,4.1405,1,3181,996,meters,jsons/v1_VE1000_randls_32.json,806071,1031998,55,Man
88,971348,DepthScenes,duration_manipulation_targetAtFixation,jsons/v1_VE1000_randls_32.json,http://54.235.29.9/FacialAge/BNav_EC2/DepthDuration/v2_depth_duration_MTurk/v2_DepthDuration_HTML.html#124,124,1366,768,1366,768,8-22-2022,8-0-35,89,depth_duration_stimuli/002039_2014-06-24_20-22-38_260595134347_rgbf000084-resize_1/002039_2014-06-24_20-22-38_260595134347_rgbf000084-resize_1-target.png,1000,4.408,1,3227,992,meters,jsons/v1_VE1000_randls_32.json,806071,1031998,55,Man
89,971348,DepthScenes,duration_manipulation_targetAtFixation,jsons/v1_VE1000_randls_32.json,http://54.235.29.9/FacialAge/BNav_EC2/DepthDuration/v2_depth_duration_MTurk/v2_DepthDuration_HTML.html#124,124,1366,768,1366,768,8-22-2022,8-0-35,90,depth_duration_stimuli/002103_2014-06-25_20-00-40_260595134347_rgbf000049-resize_0/002103_2014-06-25_20-00-40_260595134347_rgbf000049-resize_0-target.png,1000,4.105,1,4136,1001,meters,jsons/v1_VE1000_randls_32.json,806071,1031998,55,Man
90,971348,DepthScenes,duration_manipulation_targetAtFixation,jsons/v1_VE1000_randls_32.json,http://54.235.29.9/FacialAge/BNav_EC2/DepthDuration/v2_depth_duration_MTurk/v2_DepthDuration_HTML.html#124,124,1366,768,1366,768,8-22-2022,8-0-35,91,depth_duration_stimuli/002989_2014-06-15_12-25-03_094959634447_rgbf000150-resize_3/002989_2014-06-15_12-25-03_094959634447_rgbf000150-resize_3-target.png,1000,4.1975,1,4453,1056,meters,jsons/v1_VE1000_randls_32.json,806071,1031998,55,Man
91,971348,DepthScenes,duration_manipulation_targetAtFixation,jsons/v1_VE1000_randls_32.json,http://54.235.29.9/FacialAge/BNav_EC2/DepthDuration/v2_depth_duration_MTurk/v2_DepthDuration_HTML.html#124,124,1366,768,1366,768,8-22-2022,8-0-35,92,depth_duration_stimuli/000866_2014-06-09_20-45-42_260595134347_rgbf000139-resize_1/000866_2014-06-09_20-45-42_260595134347_rgbf000139-resize_1-target.png,1000,3.2155,1,5735,1004,meters,jsons/v1_VE1000_randls_32.json,806071,1031998,55,Man
92,971348,DepthScenes,duration_manipulation_targetAtFixation,jsons/v1_VE1000_randls_32.json,http://54.235.29.9/FacialAge/BNav_EC2/DepthDuration/v2_depth_duration_MTurk/v2_DepthDuration_HTML.html#124,124,1366,768,1366,768,8-22-2022,8-0-35,93,depth_duration_stimuli/001570_2014-06-20_17-21-09_260595134347_rgbf000135-resize_4/001570_2014-06-20_17-21-09_260595134347_rgbf000135-resize_4-target.png,1000,4.467,1,3827,1012,meters,jsons/v1_VE1000_randls_32.json,806071,1031998,55,Man
93,971348,DepthScenes,duration_manipulation_targetAtFixation,jsons/v1_VE1000_randls_32.json,http://54.235.29.9/FacialAge/BNav_EC2/DepthDuration/v2_depth_duration_MTurk/v2_DepthDuration_HTML.html#124,124,1366,768,1366,768,8-22-2022,8-0-35,94,depth_duration_stimuli/001392_2014-06-19_16-07-59_260595134347_rgbf000046-resize_1/001392_2014-06-19_16-07-59_260595134347_rgbf000046-resize_1-target.png,1000,4.135,2,4252,994,meters,jsons/v1_VE1000_randls_32.json,806071,1031998,55,Man
94,971348,DepthScenes,duration_manipulation_targetAtFixation,jsons/v1_VE1000_randls_32.json,http://54.235.29.9/FacialAge/BNav_EC2/DepthDuration/v2_depth_duration_MTurk/v2_DepthDuration_HTML.html#124,124,1366,768,1366,768,8-22-2022,8-0-35,95,depth_duration_stimuli/000810_2014-06-08_17-20-01_260595134347_rgbf000105-resize_0/000810_2014-06-08_17-20-01_260595134347_rgbf000105-resize_0-target.png,1000,1.4865,2,2885,988,meters,jsons/v1_VE1000_randls_32.json,806071,1031998,55,Man
95,971348,DepthScenes,duration_manipulation_targetAtFixation,jsons/v1_VE1000_randls_32.json,http://54.235.29.9/FacialAge/BNav_EC2/DepthDuration/v2_depth_duration_MTurk/v2_DepthDuration_HTML.html#124,124,1366,768,1366,768,8-22-2022,8-0-35,96,depth_duration_stimuli/001214_2014-06-17_16-13-55_260595134347_rgbf000111-resize_0/001214_2014-06-17_16-13-55_260595134347_rgbf000111-resize_0-target.png,1000,2.6505,2,4135,1030,meters,jsons/v1_VE1000_randls_32.json,806071,1031998,55,Man
96,971348,DepthScenes,duration_manipulation_targetAtFixation,jsons/v1_VE1000_randls_32.json,http://54.235.29.9/FacialAge/BNav_EC2/DepthDuration/v2_depth_duration_MTurk/v2_DepthDuration_HTML.html#124,124,1366,768,1366,768,8-22-2022,8-0-35,97,depth_duration_stimuli/002375_2014-06-28_20-13-44_260595134347_rgbf000032-resize_1/002375_2014-06-28_20-13-44_260595134347_rgbf000032-resize_1-target.png,1000,4.0175,1,3243,999,meters,jsons/v1_VE1000_randls_32.json,806071,1031998,55,Man
97,971348,DepthScenes,duration_manipulation_targetAtFixation,jsons/v1_VE1000_randls_32.json,http://54.235.29.9/FacialAge/BNav_EC2/DepthDuration/v2_depth_duration_MTurk/v2_DepthDuration_HTML.html#124,124,1366,768,1366,768,8-22-2022,8-0-35,98,depth_duration_stimuli/002657_2014-06-13_15-29-54_094959634447_rgbf000150-resize_1/002657_2014-06-13_15-29-54_094959634447_rgbf000150-resize_1-target.png,1000,4.919,1,3572,997,meters,jsons/v1_VE1000_randls_32.json,806071,1031998,55,Man
98,971348,DepthScenes,duration_manipulation_targetAtFixation,jsons/v1_VE1000_randls_32.json,http://54.235.29.9/FacialAge/BNav_EC2/DepthDuration/v2_depth_duration_MTurk/v2_DepthDuration_HTML.html#124,124,1366,768,1366,768,8-22-2022,8-0-35,99,depth_duration_stimuli/001540_2014-06-20_17-01-05_260595134347_rgbf000086-resize_2/001540_2014-06-20_17-01-05_260595134347_rgbf000086-resize-original.jpg,1000,1.459,0,3941,1004,meters,jsons/v1_VE1000_randls_32.json,806071,1031998,55,Man
99,971348,DepthScenes,duration_manipulation_targetAtFixation,jsons/v1_VE1000_randls_32.json,http://54.235.29.9/FacialAge/BNav_EC2/DepthDuration/v2_depth_duration_MTurk/v2_DepthDuration_HTML.html#124,124,1366,768,1366,768,8-22-2022,8-0-35,100,depth_duration_stimuli/002784_2014-06-22_19-26-30_094959634447_rgbf000083-resize_3/002784_2014-06-22_19-26-30_094959634447_rgbf000083-resize_3-target.png,1000,1.8046666666667,2,3939,991,meters,jsons/v1_VE1000_randls_32.json,806071,1031998,55,Man
100,971348,DepthScenes,duration_manipulation_targetAtFixation,jsons/v1_VE1000_randls_32.json,http://54.235.29.9/FacialAge/BNav_EC2/DepthDuration/v2_depth_duration_MTurk/v2_DepthDuration_HTML.html#124,124,1366,768,1366,768,8-22-2022,8-0-35,101,depth_duration_stimuli/001100_2014-06-15_17-46-26_260595134347_rgbf000225-resize_2/001100_2014-06-15_17-46-26_260595134347_rgbf000225-resize_2-target.png,1000,2.24,2,3384,999,meters,jsons/v1_VE1000_randls_32.json,806071,1031998,55,Man
101,971348,DepthScenes,duration_manipulation_targetAtFixation,jsons/v1_VE1000_randls_32.json,http://54.235.29.9/FacialAge/BNav_EC2/DepthDuration/v2_depth_duration_MTurk/v2_DepthDuration_HTML.html#124,124,1366,768,1366,768,8-22-2022,8-0-35,102,depth_duration_stimuli/001199_2014-06-17_16-03-48_260595134347_rgbf000077-resize_0/001199_2014-06-17_16-03-48_260595134347_rgbf000077-resize_0-target.png,1000,3.4375,1,3458,980,meters,jsons/v1_VE1000_randls_32.json,806071,1031998,55,Man
102,971348,DepthScenes,duration_manipulation_targetAtFixation,jsons/v1_VE1000_randls_32.json,http://54.235.29.9/FacialAge/BNav_EC2/DepthDuration/v2_depth_duration_MTurk/v2_DepthDuration_HTML.html#124,124,1366,768,1366,768,8-22-2022,8-0-35,103,depth_duration_stimuli/000502_2014-06-08_23-02-32_260595134347_rgbf000063-resize_4/000502_2014-06-08_23-02-32_260595134347_rgbf000063-resize_4-target.png,1000,2.431,2,3315,978,meters,jsons/v1_VE1000_randls_32.json,806071,1031998,55,Man
103,971348,DepthScenes,duration_manipulation_targetAtFixation,jsons/v1_VE1000_randls_32.json,http://54.235.29.9/FacialAge/BNav_EC2/DepthDuration/v2_depth_duration_MTurk/v2_DepthDuration_HTML.html#124,124,1366,768,1366,768,8-22-2022,8-0-35,104,depth_duration_stimuli/000739_2014-06-08_18-45-58_260595134347_rgbf000068-resize_1/000739_2014-06-08_18-45-58_260595134347_rgbf000068-resize_1-target.png,1000,3.534,1,3321,1005,meters,jsons/v1_VE1000_randls_32.json,806071,1031998,55,Man
104,971348,DepthScenes,duration_manipulation_targetAtFixation,jsons/v1_VE1000_randls_32.json,http://54.235.29.9/FacialAge/BNav_EC2/DepthDuration/v2_depth_duration_MTurk/v2_DepthDuration_HTML.html#124,124,1366,768,1366,768,8-22-2022,8-0-35,105,depth_duration_stimuli/000734_2014-06-08_17-39-11_260595134347_rgbf000128-resize_2/000734_2014-06-08_17-39-11_260595134347_rgbf000128-resize_2-target.png,1000,4.098,1,3022,928,meters,jsons/v1_VE1000_randls_32.json,806071,1031998,55,Man
105,971348,DepthScenes,duration_manipulation_targetAtFixation,jsons/v1_VE1000_randls_32.json,http://54.235.29.9/FacialAge/BNav_EC2/DepthDuration/v2_depth_duration_MTurk/v2_DepthDuration_HTML.html#124,124,1366,768,1366,768,8-22-2022,8-0-35,106,depth_duration_stimuli/002057_2014-06-24_21-00-13_260595134347_rgbf000120-resize_1/002057_2014-06-24_21-00-13_260595134347_rgbf000120-resize_1-target.png,1000,2.967,1,2772,992,meters,jsons/v1_VE1000_randls_32.json,806071,1031998,55,Man
106,971348,DepthScenes,duration_manipulation_targetAtFixation,jsons/v1_VE1000_randls_32.json,http://54.235.29.9/FacialAge/BNav_EC2/DepthDuration/v2_depth_duration_MTurk/v2_DepthDuration_HTML.html#124,124,1366,768,1366,768,8-22-2022,8-0-35,107,depth_duration_stimuli/000709_2014-06-08_13-51-55_260595134347_rgbf000068-resize_3/000709_2014-06-08_13-51-55_260595134347_rgbf000068-resize_3-target.png,1000,1.8030000000000002,2,2988,1002,meters,jsons/v1_VE1000_randls_32.json,806071,1031998,55,Man
107,971348,DepthScenes,duration_manipulation_targetAtFixation,jsons/v1_VE1000_randls_32.json,http://54.235.29.9/FacialAge/BNav_EC2/DepthDuration/v2_depth_duration_MTurk/v2_DepthDuration_HTML.html#124,124,1366,768,1366,768,8-22-2022,8-0-35,108,depth_duration_stimuli/000447_2014-06-08_16-15-46_260595134347_rgbf000130-resize_1/000447_2014-06-08_16-15-46_260595134347_rgbf000130-resize_1-target.png,1000,4.479,2,3874,998,meters,jsons/v1_VE1000_randls_32.json,806071,1031998,55,Man
108,971348,DepthScenes,duration_manipulation_targetAtFixation,jsons/v1_VE1000_randls_32.json,http://54.235.29.9/FacialAge/BNav_EC2/DepthDuration/v2_depth_duration_MTurk/v2_DepthDuration_HTML.html#124,124,1366,768,1366,768,8-22-2022,8-0-35,109,depth_duration_stimuli/001447_2014-06-19_17-00-32_260595134347_rgbf000082-resize_5/001447_2014-06-19_17-00-32_260595134347_rgbf000082-resize_5-target.png,1000,4.13775,1,2864,1004,meters,jsons/v1_VE1000_randls_32.json,806071,1031998,55,Man
109,971348,DepthScenes,duration_manipulation_targetAtFixation,jsons/v1_VE1000_randls_32.json,http://54.235.29.9/FacialAge/BNav_EC2/DepthDuration/v2_depth_duration_MTurk/v2_DepthDuration_HTML.html#124,124,1366,768,1366,768,8-22-2022,8-0-35,110,depth_duration_stimuli/003292_2014-05-14_21-53-49_094959634447_rgbf000100-resize_2/003292_2014-05-14_21-53-49_094959634447_rgbf000100-resize_2-target.png,1000,3.4815,2,3040,1001,meters,jsons/v1_VE1000_randls_32.json,806071,1031998,55,Man
110,971348,DepthScenes,duration_manipulation_targetAtFixation,jsons/v1_VE1000_randls_32.json,http://54.235.29.9/FacialAge/BNav_EC2/DepthDuration/v2_depth_duration_MTurk/v2_DepthDuration_HTML.html#124,124,1366,768,1366,768,8-22-2022,8-0-35,111,depth_duration_stimuli/002639_2014-06-24_14-51-37_094959634447_rgbf000074-resize_4/002639_2014-06-24_14-51-37_094959634447_rgbf000074-resize_4-target.png,1000,4.0375,2,4539,995,meters,jsons/v1_VE1000_randls_32.json,806071,1031998,55,Man
111,971348,DepthScenes,duration_manipulation_targetAtFixation,jsons/v1_VE1000_randls_32.json,http://54.235.29.9/FacialAge/BNav_EC2/DepthDuration/v2_depth_duration_MTurk/v2_DepthDuration_HTML.html#124,124,1366,768,1366,768,8-22-2022,8-0-35,112,depth_duration_stimuli/001029_2014-06-08_13-17-57_260595134347_rgbf000065-resize_1/001029_2014-06-08_13-17-57_260595134347_rgbf000065-resize_1-target.png,1000,3.0835,2,2886,1037,meters,jsons/v1_VE1000_randls_32.json,806071,1031998,55,Man
112,971348,DepthScenes,duration_manipulation_targetAtFixation,jsons/v1_VE1000_randls_32.json,http://54.235.29.9/FacialAge/BNav_EC2/DepthDuration/v2_depth_duration_MTurk/v2_DepthDuration_HTML.html#124,124,1366,768,1366,768,8-22-2022,8-0-35,113,depth_duration_stimuli/000677_2014-06-08_23-10-32_260595134347_rgbf000158-resize_6/000677_2014-06-08_23-10-32_260595134347_rgbf000158-resize_6-target.png,1000,3.556,2,2914,987,meters,jsons/v1_VE1000_randls_32.json,806071,1031998,55,Man
113,971348,DepthScenes,duration_manipulation_targetAtFixation,jsons/v1_VE1000_randls_32.json,http://54.235.29.9/FacialAge/BNav_EC2/DepthDuration/v2_depth_duration_MTurk/v2_DepthDuration_HTML.html#124,124,1366,768,1366,768,8-22-2022,8-0-35,114,depth_duration_stimuli/001167_2014-06-17_15-38-07_260595134347_rgbf000108-resize_0/001167_2014-06-17_15-38-07_260595134347_rgbf000108-resize_0-target.png,1000,1.8505,2,5091,1007,meters,jsons/v1_VE1000_randls_32.json,806071,1031998,55,Man
114,971348,DepthScenes,duration_manipulation_targetAtFixation,jsons/v1_VE1000_randls_32.json,http://54.235.29.9/FacialAge/BNav_EC2/DepthDuration/v2_depth_duration_MTurk/v2_DepthDuration_HTML.html#124,124,1366,768,1366,768,8-22-2022,8-0-35,115,depth_duration_stimuli/003587_2014-05-23_16-48-02_094959634447_rgbf002384-resize_2/003587_2014-05-23_16-48-02_094959634447_rgbf002384-resize_2-target.png,1000,1.357,1,4397,1002,meters,jsons/v1_VE1000_randls_32.json,806071,1031998,55,Man
115,971348,DepthScenes,duration_manipulation_targetAtFixation,jsons/v1_VE1000_randls_32.json,http://54.235.29.9/FacialAge/BNav_EC2/DepthDuration/v2_depth_duration_MTurk/v2_DepthDuration_HTML.html#124,124,1366,768,1366,768,8-22-2022,8-0-35,116,depth_duration_stimuli/001170_2014-06-17_15-43-44_260595134347_rgbf000096-resize_6/001170_2014-06-17_15-43-44_260595134347_rgbf000096-resize-original.jpg,1000,1.1909999999999998,2,4000,983,meters,jsons/v1_VE1000_randls_32.json,806071,1031998,55,Man
116,971348,DepthScenes,duration_manipulation_targetAtFixation,jsons/v1_VE1000_randls_32.json,http://54.235.29.9/FacialAge/BNav_EC2/DepthDuration/v2_depth_duration_MTurk/v2_DepthDuration_HTML.html#124,124,1366,768,1366,768,8-22-2022,8-0-35,117,depth_duration_stimuli/001417_2014-06-19_16-25-36_260595134347_rgbf000115-resize_5/001417_2014-06-19_16-25-36_260595134347_rgbf000115-resize_5-target.png,1000,4.6255,2,3430,962,meters,jsons/v1_VE1000_randls_32.json,806071,1031998,55,Man
117,971348,DepthScenes,duration_manipulation_targetAtFixation,jsons/v1_VE1000_randls_32.json,http://54.235.29.9/FacialAge/BNav_EC2/DepthDuration/v2_depth_duration_MTurk/v2_DepthDuration_HTML.html#124,124,1366,768,1366,768,8-22-2022,8-0-35,118,depth_duration_stimuli/003081_2014-06-15_15-19-16_094959634447_rgbf000150-resize_1/003081_2014-06-15_15-19-16_094959634447_rgbf000150-resize_1-target.png,1000,3.9125,2,3125,1003,meters,jsons/v1_VE1000_randls_32.json,806071,1031998,55,Man
118,971348,DepthScenes,duration_manipulation_targetAtFixation,jsons/v1_VE1000_randls_32.json,http://54.235.29.9/FacialAge/BNav_EC2/DepthDuration/v2_depth_duration_MTurk/v2_DepthDuration_HTML.html#124,124,1366,768,1366,768,8-22-2022,8-0-35,119,depth_duration_stimuli/001059_2014-06-08_21-53-27_260595134347_rgbf000061-resize_4/001059_2014-06-08_21-53-27_260595134347_rgbf000061-resize_4-target.png,1000,2.4185,2,2811,993,meters,jsons/v1_VE1000_randls_32.json,806071,1031998,55,Man
119,971348,DepthScenes,duration_manipulation_targetAtFixation,jsons/v1_VE1000_randls_32.json,http://54.235.29.9/FacialAge/BNav_EC2/DepthDuration/v2_depth_duration_MTurk/v2_DepthDuration_HTML.html#124,124,1366,768,1366,768,8-22-2022,8-0-35,120,depth_duration_stimuli/001032_2014-06-08_13-23-17_260595134347_rgbf000021-resize_3/001032_2014-06-08_13-23-17_260595134347_rgbf000021-resize_3-target.png,1000,3.2725,2,4442,999,meters,jsons/v1_VE1000_randls_32.json,806071,1031998,55,Man
120,971348,DepthScenes,duration_manipulation_targetAtFixation,jsons/v1_VE1000_randls_32.json,http://54.235.29.9/FacialAge/BNav_EC2/DepthDuration/v2_depth_duration_MTurk/v2_DepthDuration_HTML.html#124,124,1366,768,1366,768,8-22-2022,8-0-35,121,depth_duration_stimuli/001158_2014-06-17_15-32-16_260595134347_rgbf000138-resize_2/001158_2014-06-17_15-32-16_260595134347_rgbf000138-resize_2-target.png,1000,4.5315,2,4955,997,meters,jsons/v1_VE1000_randls_32.json,806071,1031998,55,Man
121,971348,DepthScenes,duration_manipulation_targetAtFixation,jsons/v1_VE1000_randls_32.json,http://54.235.29.9/FacialAge/BNav_EC2/DepthDuration/v2_depth_duration_MTurk/v2_DepthDuration_HTML.html#124,124,1366,768,1366,768,8-22-2022,8-0-35,122,depth_duration_stimuli/000556_2014-06-09_22-42-56_260595134347_rgbf000214-resize_1/000556_2014-06-09_22-42-56_260595134347_rgbf000214-resize_1-target.png,1000,4.8415,2,4089,946,meters,jsons/v1_VE1000_randls_32.json,806071,1031998,55,Man
122,971348,DepthScenes,duration_manipulation_targetAtFixation,jsons/v1_VE1000_randls_32.json,http://54.235.29.9/FacialAge/BNav_EC2/DepthDuration/v2_depth_duration_MTurk/v2_DepthDuration_HTML.html#124,124,1366,768,1366,768,8-22-2022,8-0-35,123,depth_duration_stimuli/001164_2014-06-17_15-35-46_260595134347_rgbf000085-resize_3/001164_2014-06-17_15-35-46_260595134347_rgbf000085-resize_3-target.png,1000,2.354,2,2892,996,meters,jsons/v1_VE1000_randls_32.json,806071,1031998,55,Man
123,971348,DepthScenes,duration_manipulation_targetAtFixation,jsons/v1_VE1000_randls_32.json,http://54.235.29.9/FacialAge/BNav_EC2/DepthDuration/v2_depth_duration_MTurk/v2_DepthDuration_HTML.html#124,124,1366,768,1366,768,8-22-2022,8-0-35,124,depth_duration_stimuli/001136_2014-06-17_15-19-41_260595134347_rgbf000076-resize_3/001136_2014-06-17_15-19-41_260595134347_rgbf000076-resize_3-target.png,1000,1.8655,1,5540,1017,meters,jsons/v1_VE1000_randls_32.json,806071,1031998,55,Man
124,971348,DepthScenes,duration_manipulation_targetAtFixation,jsons/v1_VE1000_randls_32.json,http://54.235.29.9/FacialAge/BNav_EC2/DepthDuration/v2_depth_duration_MTurk/v2_DepthDuration_HTML.html#124,124,1366,768,1366,768,8-22-2022,8-0-35,125,depth_duration_stimuli/001110_2014-06-15_17-25-28_260595134347_rgbf000150-resize_1/001110_2014-06-15_17-25-28_260595134347_rgbf000150-resize_1-target.png,1000,1.7115,2,3445,1008,meters,jsons/v1_VE1000_randls_32.json,806071,1031998,55,Man
125,971348,DepthScenes,duration_manipulation_targetAtFixation,jsons/v1_VE1000_randls_32.json,http://54.235.29.9/FacialAge/BNav_EC2/DepthDuration/v2_depth_duration_MTurk/v2_DepthDuration_HTML.html#124,124,1366,768,1366,768,8-22-2022,8-0-35,126,depth_duration_stimuli/000927_2014-06-09_16-32-30_260595134347_rgbf000123-resize_3/000927_2014-06-09_16-32-30_260595134347_rgbf000123-resize_3-target.png,1000,2.6785,2,2852,1000,meters,jsons/v1_VE1000_randls_32.json,806071,1031998,55,Man
126,971348,DepthScenes,duration_manipulation_targetAtFixation,jsons/v1_VE1000_randls_32.json,http://54.235.29.9/FacialAge/BNav_EC2/DepthDuration/v2_depth_duration_MTurk/v2_DepthDuration_HTML.html#124,124,1366,768,1366,768,8-22-2022,8-0-35,127,depth_duration_stimuli/000917_2014-06-09_22-45-29_260595134347_rgbf000149-resize_3/000917_2014-06-09_22-45-29_260595134347_rgbf000149-resize_3-target.png,1000,4.1865,1,2974,982,meters,jsons/v1_VE1000_randls_32.json,806071,1031998,55,Man
127,971348,DepthScenes,duration_manipulation_targetAtFixation,jsons/v1_VE1000_randls_32.json,http://54.235.29.9/FacialAge/BNav_EC2/DepthDuration/v2_depth_duration_MTurk/v2_DepthDuration_HTML.html#124,124,1366,768,1366,768,8-22-2022,8-0-35,128,depth_duration_stimuli/002323_2014-06-28_20-01-54_260595134347_rgbf000051-resize_4/002323_2014-06-28_20-01-54_260595134347_rgbf000051-resize_4-target.png,1000,3.7310000000000003,1,3179,992,meters,jsons/v1_VE1000_randls_32.json,806071,1031998,55,Man
128,971348,DepthScenes,duration_manipulation_targetAtFixation,jsons/v1_VE1000_randls_32.json,http://54.235.29.9/FacialAge/BNav_EC2/DepthDuration/v2_depth_duration_MTurk/v2_DepthDuration_HTML.html#124,124,1366,768,1366,768,8-22-2022,8-0-35,129,depth_duration_stimuli/000368_2014-06-09_15-53-01_260595134347_rgbf000155-resize_2/000368_2014-06-09_15-53-01_260595134347_rgbf000155-resize_2-target.png,1000,2.4859999999999998,2,4337,991,meters,jsons/v1_VE1000_randls_32.json,806071,1031998,55,Man
129,971348,DepthScenes,duration_manipulation_targetAtFixation,jsons/v1_VE1000_randls_32.json,http://54.235.29.9/FacialAge/BNav_EC2/DepthDuration/v2_depth_duration_MTurk/v2_DepthDuration_HTML.html#124,124,1366,768,1366,768,8-22-2022,8-0-35,130,depth_duration_stimuli/002678_2014-06-13_16-15-32_094959634447_rgbf000151-resize_6/002678_2014-06-13_16-15-32_094959634447_rgbf000151-resize_6-target.png,1000,2.1830000000000003,1,3496,938,meters,jsons/v1_VE1000_randls_32.json,806071,1031998,55,Man
130,971348,DepthScenes,duration_manipulation_targetAtFixation,jsons/v1_VE1000_randls_32.json,http://54.235.29.9/FacialAge/BNav_EC2/DepthDuration/v2_depth_duration_MTurk/v2_DepthDuration_HTML.html#124,124,1366,768,1366,768,8-22-2022,8-0-35,131,depth_duration_stimuli/000788_2014-06-08_22-34-36_260595134347_rgbf000131-resize_1/000788_2014-06-08_22-34-36_260595134347_rgbf000131-resize_1-target.png,1000,3.359,2,2890,993,meters,jsons/v1_VE1000_randls_32.json,806071,1031998,55,Man
131,971348,DepthScenes,duration_manipulation_targetAtFixation,jsons/v1_VE1000_randls_32.json,http://54.235.29.9/FacialAge/BNav_EC2/DepthDuration/v2_depth_duration_MTurk/v2_DepthDuration_HTML.html#124,124,1366,768,1366,768,8-22-2022,8-0-35,132,depth_duration_stimuli/001235_2014-06-17_16-37-36_260595134347_rgbf000084-resize_4/001235_2014-06-17_16-37-36_260595134347_rgbf000084-resize_4-target.png,1000,3.6605,1,3017,1005,meters,jsons/v1_VE1000_randls_32.json,806071,1031998,55,Man
132,971348,DepthScenes,duration_manipulation_targetAtFixation,jsons/v1_VE1000_randls_32.json,http://54.235.29.9/FacialAge/BNav_EC2/DepthDuration/v2_depth_duration_MTurk/v2_DepthDuration_HTML.html#124,124,1366,768,1366,768,8-22-2022,8-0-35,133,depth_duration_stimuli/002600_2014-06-24_14-27-04_094959634447_rgbf000074-resize_2/002600_2014-06-24_14-27-04_094959634447_rgbf000074-resize_2-target.png,1000,2.7575,2,2873,980,meters,jsons/v1_VE1000_randls_32.json,806071,1031998,55,Man
133,971348,DepthScenes,duration_manipulation_targetAtFixation,jsons/v1_VE1000_randls_32.json,http://54.235.29.9/FacialAge/BNav_EC2/DepthDuration/v2_depth_duration_MTurk/v2_DepthDuration_HTML.html#124,124,1366,768,1366,768,8-22-2022,8-0-35,134,depth_duration_stimuli/003228_2014-05-14_13-42-35_094959634447_rgbf000101-resize_1/003228_2014-05-14_13-42-35_094959634447_rgbf000101-resize_1-target.png,1000,1.9680000000000002,1,3462,987,meters,jsons/v1_VE1000_randls_32.json,806071,1031998,55,Man
134,971348,DepthScenes,duration_manipulation_targetAtFixation,jsons/v1_VE1000_randls_32.json,http://54.235.29.9/FacialAge/BNav_EC2/DepthDuration/v2_depth_duration_MTurk/v2_DepthDuration_HTML.html#124,124,1366,768,1366,768,8-22-2022,8-0-35,135,depth_duration_stimuli/002072_2014-06-24_21-48-06_260595134347_rgbf000115-resize_0/002072_2014-06-24_21-48-06_260595134347_rgbf000115-resize-original.jpg,1000,4.702,1,3296,994,meters,jsons/v1_VE1000_randls_32.json,806071,1031998,55,Man
135,971348,DepthScenes,duration_manipulation_targetAtFixation,jsons/v1_VE1000_randls_32.json,http://54.235.29.9/FacialAge/BNav_EC2/DepthDuration/v2_depth_duration_MTurk/v2_DepthDuration_HTML.html#124,124,1366,768,1366,768,8-22-2022,8-0-35,136,depth_duration_stimuli/002509_2014-06-24_13-19-22_094959634447_rgbf000077-resize_0/002509_2014-06-24_13-19-22_094959634447_rgbf000077-resize_0-target.png,1000,1.3065,1,3362,980,meters,jsons/v1_VE1000_randls_32.json,806071,1031998,55,Man
136,971348,DepthScenes,duration_manipulation_targetAtFixation,jsons/v1_VE1000_randls_32.json,http://54.235.29.9/FacialAge/BNav_EC2/DepthDuration/v2_depth_duration_MTurk/v2_DepthDuration_HTML.html#124,124,1366,768,1366,768,8-22-2022,8-0-35,137,depth_duration_stimuli/003338_2014-05-20_11-01-23_094959634447_rgbf000051-resize_6/003338_2014-05-20_11-01-23_094959634447_rgbf000051-resize_6-target.png,1000,1.693,2,3228,992,meters,jsons/v1_VE1000_randls_32.json,806071,1031998,55,Man
137,971348,DepthScenes,duration_manipulation_targetAtFixation,jsons/v1_VE1000_randls_32.json,http://54.235.29.9/FacialAge/BNav_EC2/DepthDuration/v2_depth_duration_MTurk/v2_DepthDuration_HTML.html#124,124,1366,768,1366,768,8-22-2022,8-0-35,138,depth_duration_stimuli/002988_2014-06-15_12-24-20_094959634447_rgbf000150-resize_1/002988_2014-06-15_12-24-20_094959634447_rgbf000150-resize_1-target.png,1000,4.7669999999999995,1,2847,986,meters,jsons/v1_VE1000_randls_32.json,806071,1031998,55,Man
138,971348,DepthScenes,duration_manipulation_targetAtFixation,jsons/v1_VE1000_randls_32.json,http://54.235.29.9/FacialAge/BNav_EC2/DepthDuration/v2_depth_duration_MTurk/v2_DepthDuration_HTML.html#124,124,1366,768,1366,768,8-22-2022,8-0-35,139,depth_duration_stimuli/001052_2014-06-08_18-24-54_260595134347_rgbf000130-resize_1/001052_2014-06-08_18-24-54_260595134347_rgbf000130-resize_1-target.png,1000,4.1045,1,3048,994,meters,jsons/v1_VE1000_randls_32.json,806071,1031998,55,Man
139,971348,DepthScenes,duration_manipulation_targetAtFixation,jsons/v1_VE1000_randls_32.json,http://54.235.29.9/FacialAge/BNav_EC2/DepthDuration/v2_depth_duration_MTurk/v2_DepthDuration_HTML.html#124,124,1366,768,1366,768,8-22-2022,8-0-35,140,depth_duration_stimuli/002043_2014-06-24_20-29-38_260595134347_rgbf000039-resize_4/002043_2014-06-24_20-29-38_260595134347_rgbf000039-resize_4-target.png,1000,2.8435,2,3342,1013,meters,jsons/v1_VE1000_randls_32.json,806071,1031998,55,Man
140,971348,DepthScenes,duration_manipulation_targetAtFixation,jsons/v1_VE1000_randls_32.json,http://54.235.29.9/FacialAge/BNav_EC2/DepthDuration/v2_depth_duration_MTurk/v2_DepthDuration_HTML.html#124,124,1366,768,1366,768,8-22-2022,8-0-35,141,depth_duration_stimuli/003048_2014-06-15_13-49-43_094959634447_rgbf000150-resize_1/003048_2014-06-15_13-49-43_094959634447_rgbf000150-resize_1-target.png,1000,4.0035,2,3282,1001,meters,jsons/v1_VE1000_randls_32.json,806071,1031998,55,Man
141,971348,DepthScenes,duration_manipulation_targetAtFixation,jsons/v1_VE1000_randls_32.json,http://54.235.29.9/FacialAge/BNav_EC2/DepthDuration/v2_depth_duration_MTurk/v2_DepthDuration_HTML.html#124,124,1366,768,1366,768,8-22-2022,8-0-35,142,depth_duration_stimuli/003492_2014-05-21_15-50-55_094959634447_rgbf000828-resize_1/003492_2014-05-21_15-50-55_094959634447_rgbf000828-resize_1-target.png,1000,4.06875,1,2852,1003,meters,jsons/v1_VE1000_randls_32.json,806071,1031998,55,Man
142,971348,DepthScenes,duration_manipulation_targetAtFixation,jsons/v1_VE1000_randls_32.json,http://54.235.29.9/FacialAge/BNav_EC2/DepthDuration/v2_depth_duration_MTurk/v2_DepthDuration_HTML.html#124,124,1366,768,1366,768,8-22-2022,8-0-35,143,depth_duration_stimuli/002568_2014-06-24_13-59-21_094959634447_rgbf000062-resize_4/002568_2014-06-24_13-59-21_094959634447_rgbf000062-resize_4-target.png,1000,3.015,2,3249,1008,meters,jsons/v1_VE1000_randls_32.json,806071,1031998,55,Man
143,971348,DepthScenes,duration_manipulation_targetAtFixation,jsons/v1_VE1000_randls_32.json,http://54.235.29.9/FacialAge/BNav_EC2/DepthDuration/v2_depth_duration_MTurk/v2_DepthDuration_HTML.html#124,124,1366,768,1366,768,8-22-2022,8-0-35,144,depth_duration_stimuli/002663_2014-06-13_15-50-26_094959634447_rgbf000075-resize_1/002663_2014-06-13_15-50-26_094959634447_rgbf000075-resize_1-target.png,1000,4.7495,1,3160,999,meters,jsons/v1_VE1000_randls_32.json,806071,1031998,55,Man
144,971348,DepthScenes,duration_manipulation_targetAtFixation,jsons/v1_VE1000_randls_32.json,http://54.235.29.9/FacialAge/BNav_EC2/DepthDuration/v2_depth_duration_MTurk/v2_DepthDuration_HTML.html#124,124,1366,768,1366,768,8-22-2022,8-0-35,145,depth_duration_stimuli/000409_2014-06-04_19-23-33_260595134347_rgbf000067-resize_0/000409_2014-06-04_19-23-33_260595134347_rgbf000067-resize_0-target.png,1000,3.7335,2,2723,1000,meters,jsons/v1_VE1000_randls_32.json,806071,1031998,55,Man
145,971348,DepthScenes,duration_manipulation_targetAtFixation,jsons/v1_VE1000_randls_32.json,http://54.235.29.9/FacialAge/BNav_EC2/DepthDuration/v2_depth_duration_MTurk/v2_DepthDuration_HTML.html#124,124,1366,768,1366,768,8-22-2022,8-0-35,146,depth_duration_stimuli/001498_2014-06-19_17-45-14_260595134347_rgbf000129-resize_4/001498_2014-06-19_17-45-14_260595134347_rgbf000129-resize-original.jpg,1000,1.4075,2,3116,1013,meters,jsons/v1_VE1000_randls_32.json,806071,1031998,55,Man
146,971348,DepthScenes,duration_manipulation_targetAtFixation,jsons/v1_VE1000_randls_32.json,http://54.235.29.9/FacialAge/BNav_EC2/DepthDuration/v2_depth_duration_MTurk/v2_DepthDuration_HTML.html#124,124,1366,768,1366,768,8-22-2022,8-0-35,147,depth_duration_stimuli/000878_2014-06-08_22-52-45_260595134347_rgbf000045-resize_2/000878_2014-06-08_22-52-45_260595134347_rgbf000045-resize_2-target.png,1000,2.092,1,2981,996,meters,jsons/v1_VE1000_randls_32.json,806071,1031998,55,Man
147,971348,DepthScenes,duration_manipulation_targetAtFixation,jsons/v1_VE1000_randls_32.json,http://54.235.29.9/FacialAge/BNav_EC2/DepthDuration/v2_depth_duration_MTurk/v2_DepthDuration_HTML.html#124,124,1366,768,1366,768,8-22-2022,8-0-35,148,depth_duration_stimuli/002953_2014-06-08_17-32-18_094959634447_rgbf000059-resize_5/002953_2014-06-08_17-32-18_094959634447_rgbf000059-resize_5-target.png,1000,1.551,2,3295,994,meters,jsons/v1_VE1000_randls_32.json,806071,1031998,55,Man
148,971348,DepthScenes,duration_manipulation_targetAtFixation,jsons/v1_VE1000_randls_32.json,http://54.235.29.9/FacialAge/BNav_EC2/DepthDuration/v2_depth_duration_MTurk/v2_DepthDuration_HTML.html#124,124,1366,768,1366,768,8-22-2022,8-0-35,149,depth_duration_stimuli/002630_2014-06-24_14-47-50_094959634447_rgbf000055-resize_1/002630_2014-06-24_14-47-50_094959634447_rgbf000055-resize_1-target.png,1000,3.0095,1,3488,987,meters,jsons/v1_VE1000_randls_32.json,806071,1031998,55,Man
149,971348,DepthScenes,duration_manipulation_targetAtFixation,jsons/v1_VE1000_randls_32.json,http://54.235.29.9/FacialAge/BNav_EC2/DepthDuration/v2_depth_duration_MTurk/v2_DepthDuration_HTML.html#124,124,1366,768,1366,768,8-22-2022,8-0-35,150,depth_duration_stimuli/002758_2014-06-22_19-11-20_094959634447_rgbf000128-resize_1/002758_2014-06-22_19-11-20_094959634447_rgbf000128-resize_1-target.png,1000,2.555,2,3584,993,meters,jsons/v1_VE1000_randls_32.json,806071,1031998,55,Man
150,971348,DepthScenes,duration_manipulation_targetAtFixation,jsons/v1_VE1000_randls_32.json,http://54.235.29.9/FacialAge/BNav_EC2/DepthDuration/v2_depth_duration_MTurk/v2_DepthDuration_HTML.html#124,124,1366,768,1366,768,8-22-2022,8-0-35,151,depth_duration_stimuli/000470_2014-06-09_19-42-40_260595134347_rgbf000094-resize_1/000470_2014-06-09_19-42-40_260595134347_rgbf000094-resize_1-target.png,1000,1.831,2,2829,992,meters,jsons/v1_VE1000_randls_32.json,806071,1031998,55,Man
151,971348,DepthScenes,duration_manipulation_targetAtFixation,jsons/v1_VE1000_randls_32.json,http://54.235.29.9/FacialAge/BNav_EC2/DepthDuration/v2_depth_duration_MTurk/v2_DepthDuration_HTML.html#124,124,1366,768,1366,768,8-22-2022,8-0-35,152,depth_duration_stimuli/000109_2014-05-14_23-41-52_260595134347_rgbf000035-resize_9/000109_2014-05-14_23-41-52_260595134347_rgbf000035-resize_9-target.png,1000,1.3545,1,3216,1003,meters,jsons/v1_VE1000_randls_32.json,806071,1031998,55,Man
152,971348,DepthScenes,duration_manipulation_targetAtFixation,jsons/v1_VE1000_randls_32.json,http://54.235.29.9/FacialAge/BNav_EC2/DepthDuration/v2_depth_duration_MTurk/v2_DepthDuration_HTML.html#124,124,1366,768,1366,768,8-22-2022,8-0-35,153,depth_duration_stimuli/000506_2014-06-08_23-21-00_260595134347_rgbf000070-resize_7/000506_2014-06-08_23-21-00_260595134347_rgbf000070-resize_7-target.png,1000,4.0585,2,3446,998,meters,jsons/v1_VE1000_randls_32.json,806071,1031998,55,Man
153,971348,DepthScenes,duration_manipulation_targetAtFixation,jsons/v1_VE1000_randls_32.json,http://54.235.29.9/FacialAge/BNav_EC2/DepthDuration/v2_depth_duration_MTurk/v2_DepthDuration_HTML.html#124,124,1366,768,1366,768,8-22-2022,8-0-35,154,depth_duration_stimuli/003079_2014-06-15_15-18-20_094959634447_rgbf000152-resize_8/003079_2014-06-15_15-18-20_094959634447_rgbf000152-resize_8-target.png,1000,2.8775,1,3332,998,meters,jsons/v1_VE1000_randls_32.json,806071,1031998,55,Man
154,971348,DepthScenes,duration_manipulation_targetAtFixation,jsons/v1_VE1000_randls_32.json,http://54.235.29.9/FacialAge/BNav_EC2/DepthDuration/v2_depth_duration_MTurk/v2_DepthDuration_HTML.html#124,124,1366,768,1366,768,8-22-2022,8-0-35,155,depth_duration_stimuli/001056_2014-06-08_18-46-44_260595134347_rgbf000068-resize_0/001056_2014-06-08_18-46-44_260595134347_rgbf000068-resize_0-target.png,1000,2.6625,1,3071,1004,meters,jsons/v1_VE1000_randls_32.json,806071,1031998,55,Man
155,971348,DepthScenes,duration_manipulation_targetAtFixation,jsons/v1_VE1000_randls_32.json,http://54.235.29.9/FacialAge/BNav_EC2/DepthDuration/v2_depth_duration_MTurk/v2_DepthDuration_HTML.html#124,124,1366,768,1366,768,8-22-2022,8-0-35,156,depth_duration_stimuli/002199_2014-06-28_18-33-56_260595134347_rgbf000074-resize_0/002199_2014-06-28_18-33-56_260595134347_rgbf000074-resize_0-target.png,1000,1.996,2,2964,1000,meters,jsons/v1_VE1000_randls_32.json,806071,1031998,55,Man
156,971348,DepthScenes,duration_manipulation_targetAtFixation,jsons/v1_VE1000_randls_32.json,http://54.235.29.9/FacialAge/BNav_EC2/DepthDuration/v2_depth_duration_MTurk/v2_DepthDuration_HTML.html#124,124,1366,768,1366,768,8-22-2022,8-0-35,157,depth_duration_stimuli/001066_2014-06-08_22-03-20_260595134347_rgbf000066-resize_4/001066_2014-06-08_22-03-20_260595134347_rgbf000066-resize_4-target.png,1000,4.2330000000000005,1,3299,968,meters,jsons/v1_VE1000_randls_32.json,806071,1031998,55,Man
157,971348,DepthScenes,duration_manipulation_targetAtFixation,jsons/v1_VE1000_randls_32.json,http://54.235.29.9/FacialAge/BNav_EC2/DepthDuration/v2_depth_duration_MTurk/v2_DepthDuration_HTML.html#124,124,1366,768,1366,768,8-22-2022,8-0-35,158,depth_duration_stimuli/000742_2014-06-08_18-48-09_260595134347_rgbf000164-resize_4/000742_2014-06-08_18-48-09_260595134347_rgbf000164-resize_4-target.png,1000,4.632,1,3861,996,meters,jsons/v1_VE1000_randls_32.json,806071,1031998,55,Man
158,971348,DepthScenes,duration_manipulation_targetAtFixation,jsons/v1_VE1000_randls_32.json,http://54.235.29.9/FacialAge/BNav_EC2/DepthDuration/v2_depth_duration_MTurk/v2_DepthDuration_HTML.html#124,124,1366,768,1366,768,8-22-2022,8-0-35,159,depth_duration_stimuli/001555_2014-06-20_17-12-10_260595134347_rgbf000065-resize_4/001555_2014-06-20_17-12-10_260595134347_rgbf000065-resize_4-target.png,1000,1.633,2,2816,1000,meters,jsons/v1_VE1000_randls_32.json,806071,1031998,55,Man
159,971348,DepthScenes,duration_manipulation_targetAtFixation,jsons/v1_VE1000_randls_32.json,http://54.235.29.9/FacialAge/BNav_EC2/DepthDuration/v2_depth_duration_MTurk/v2_DepthDuration_HTML.html#124,124,1366,768,1366,768,8-22-2022,8-0-35,160,depth_duration_stimuli/000103_2014-05-14_22-01-17_260595134347_rgbf000152-resize_5/000103_2014-05-14_22-01-17_260595134347_rgbf000152-resize_5-target.png,1000,1.993,1,2855,999,meters,jsons/v1_VE1000_randls_32.json,806071,1031998,55,Man
160,971348,DepthScenes,duration_manipulation_targetAtFixation,jsons/v1_VE1000_randls_32.json,http://54.235.29.9/FacialAge/BNav_EC2/DepthDuration/v2_depth_duration_MTurk/v2_DepthDuration_HTML.html#124,124,1366,768,1366,768,8-22-2022,8-0-35,161,depth_duration_stimuli/002118_2014-06-25_20-32-08_260595134347_rgbf000078-resize_1/002118_2014-06-25_20-32-08_260595134347_rgbf000078-resize_1-target.png,1000,2.6460000000000004,1,2813,998,meters,jsons/v1_VE1000_randls_32.json,806071,1031998,55,Man
161,971348,DepthScenes,duration_manipulation_targetAtFixation,jsons/v1_VE1000_randls_32.json,http://54.235.29.9/FacialAge/BNav_EC2/DepthDuration/v2_depth_duration_MTurk/v2_DepthDuration_HTML.html#124,124,1366,768,1366,768,8-22-2022,8-0-35,162,depth_duration_stimuli/001516_2014-06-20_16-25-09_260595134347_rgbf000076-resize_2/001516_2014-06-20_16-25-09_260595134347_rgbf000076-resize_2-target.png,1000,1.7445,1,2699,990,meters,jsons/v1_VE1000_randls_32.json,806071,1031998,55,Man
162,971348,DepthScenes,duration_manipulation_targetAtFixation,jsons/v1_VE1000_randls_32.json,http://54.235.29.9/FacialAge/BNav_EC2/DepthDuration/v2_depth_duration_MTurk/v2_DepthDuration_HTML.html#124,124,1366,768,1366,768,8-22-2022,8-0-35,163,depth_duration_stimuli/000682_2014-06-08_23-14-58_260595134347_rgbf000041-resize_5/000682_2014-06-08_23-14-58_260595134347_rgbf000041-resize_5-target.png,1000,2.7239999999999998,2,3398,1000,meters,jsons/v1_VE1000_randls_32.json,806071,1031998,55,Man
163,971348,DepthScenes,duration_manipulation_targetAtFixation,jsons/v1_VE1000_randls_32.json,http://54.235.29.9/FacialAge/BNav_EC2/DepthDuration/v2_depth_duration_MTurk/v2_DepthDuration_HTML.html#124,124,1366,768,1366,768,8-22-2022,8-0-35,164,depth_duration_stimuli/001650_2014-06-20_12-09-00_260595134347_rgbf000087-resize_3/001650_2014-06-20_12-09-00_260595134347_rgbf000087-resize_3-target.png,1000,1.9505,1,2860,1236,meters,jsons/v1_VE1000_randls_32.json,806071,1031998,55,Man
