,subjID,experimentName,versionName,sequenceName,url,selected_row,windowWidth,windowHeight,screenWidth,screenHeight,startDate,startTime,trial,stimulus,duration,actual_depth,depth_estimate,trial_RT,log_sceneDuration,unitSelection,seq_filepath,experimentTime,totalTime,age,gender
0,971887,DepthScenes,duration_manipulation_targetAtFixation,jsons/VE125_randls_40_rotated.json,http://54.235.29.9/FacialAge/BNav_EC2/DepthDuration/v2_depth_duration_MTurk/v2_DepthDuration_HTML.html#222,222,1517,730,1366,768,9-4-2022,11-33-6,1,depth_duration_stimuli/001094_2014-06-15_17-36-00_260595134347_rgbf000205-resize_0/001094_2014-06-15_17-36-00_260595134347_rgbf000205-resize_0-target.png,125,4.2175,2,4083,125,meters,jsons/VE125_randls_40_rotated.json,1474943,1971184,38,Woman
1,971887,DepthScenes,duration_manipulation_targetAtFixation,jsons/VE125_randls_40_rotated.json,http://54.235.29.9/FacialAge/BNav_EC2/DepthDuration/v2_depth_duration_MTurk/v2_DepthDuration_HTML.html#222,222,1517,730,1366,768,9-4-2022,11-33-6,2,depth_duration_stimuli/000692_2014-06-08_13-09-42_260595134347_rgbf000199-resize_2/000692_2014-06-08_13-09-42_260595134347_rgbf000199-resize_2-target.png,125,3.661,3,3908,125,meters,jsons/VE125_randls_40_rotated.json,1474943,1971184,38,Woman
2,971887,DepthScenes,duration_manipulation_targetAtFixation,jsons/VE125_randls_40_rotated.json,http://54.235.29.9/FacialAge/BNav_EC2/DepthDuration/v2_depth_duration_MTurk/v2_DepthDuration_HTML.html#222,222,1517,730,1366,768,9-4-2022,11-33-6,3,depth_duration_stimuli/003423_2014-05-21_10-23-26_094959634447_rgbf002665-resize_2/003423_2014-05-21_10-23-26_094959634447_rgbf002665-resize_2-target.png,125,3.2575,7,3869,125,meters,jsons/VE125_randls_40_rotated.json,1474943,1971184,38,Woman
3,971887,DepthScenes,duration_manipulation_targetAtFixation,jsons/VE125_randls_40_rotated.json,http://54.235.29.9/FacialAge/BNav_EC2/DepthDuration/v2_depth_duration_MTurk/v2_DepthDuration_HTML.html#222,222,1517,730,1366,768,9-4-2022,11-33-6,4,depth_duration_stimuli/002905_2014-06-03_18-04-43_094959634447_rgbf000151-resize_2/002905_2014-06-03_18-04-43_094959634447_rgbf000151-resize_2-target.png,125,2.0295,8,3709,124,meters,jsons/VE125_randls_40_rotated.json,1474943,1971184,38,Woman
4,971887,DepthScenes,duration_manipulation_targetAtFixation,jsons/VE125_randls_40_rotated.json,http://54.235.29.9/FacialAge/BNav_EC2/DepthDuration/v2_depth_duration_MTurk/v2_DepthDuration_HTML.html#222,222,1517,730,1366,768,9-4-2022,11-33-6,5,depth_duration_stimuli/001100_2014-06-15_17-46-26_260595134347_rgbf000225-resize_2/001100_2014-06-15_17-46-26_260595134347_rgbf000225-resize_2-target.png,125,2.24,6,4183,125,meters,jsons/VE125_randls_40_rotated.json,1474943,1971184,38,Woman
5,971887,DepthScenes,duration_manipulation_targetAtFixation,jsons/VE125_randls_40_rotated.json,http://54.235.29.9/FacialAge/BNav_EC2/DepthDuration/v2_depth_duration_MTurk/v2_DepthDuration_HTML.html#222,222,1517,730,1366,768,9-4-2022,11-33-6,6,depth_duration_stimuli/002784_2014-06-22_19-26-30_094959634447_rgbf000083-resize_3/002784_2014-06-22_19-26-30_094959634447_rgbf000083-resize_3-target.png,125,1.8046666666667,3,4697,125,meters,jsons/VE125_randls_40_rotated.json,1474943,1971184,38,Woman
6,971887,DepthScenes,duration_manipulation_targetAtFixation,jsons/VE125_randls_40_rotated.json,http://54.235.29.9/FacialAge/BNav_EC2/DepthDuration/v2_depth_duration_MTurk/v2_DepthDuration_HTML.html#222,222,1517,730,1366,768,9-4-2022,11-33-6,7,depth_duration_stimuli/000709_2014-06-08_13-51-55_260595134347_rgbf000068-resize_3/000709_2014-06-08_13-51-55_260595134347_rgbf000068-resize_3-target.png,125,1.8030000000000002,1,5046,123,meters,jsons/VE125_randls_40_rotated.json,1474943,1971184,38,Woman
7,971887,DepthScenes,duration_manipulation_targetAtFixation,jsons/VE125_randls_40_rotated.json,http://54.235.29.9/FacialAge/BNav_EC2/DepthDuration/v2_depth_duration_MTurk/v2_DepthDuration_HTML.html#222,222,1517,730,1366,768,9-4-2022,11-33-6,8,depth_duration_stimuli/002057_2014-06-24_21-00-13_260595134347_rgbf000120-resize_1/002057_2014-06-24_21-00-13_260595134347_rgbf000120-resize_1-target.png,125,2.967,6,4144,124,meters,jsons/VE125_randls_40_rotated.json,1474943,1971184,38,Woman
8,971887,DepthScenes,duration_manipulation_targetAtFixation,jsons/VE125_randls_40_rotated.json,http://54.235.29.9/FacialAge/BNav_EC2/DepthDuration/v2_depth_duration_MTurk/v2_DepthDuration_HTML.html#222,222,1517,730,1366,768,9-4-2022,11-33-6,9,depth_duration_stimuli/003079_2014-06-15_15-18-20_094959634447_rgbf000152-resize_8/003079_2014-06-15_15-18-20_094959634447_rgbf000152-resize_8-target.png,125,2.8775,4,3573,123,meters,jsons/VE125_randls_40_rotated.json,1474943,1971184,38,Woman
9,971887,DepthScenes,duration_manipulation_targetAtFixation,jsons/VE125_randls_40_rotated.json,http://54.235.29.9/FacialAge/BNav_EC2/DepthDuration/v2_depth_duration_MTurk/v2_DepthDuration_HTML.html#222,222,1517,730,1366,768,9-4-2022,11-33-6,10,depth_duration_stimuli/000506_2014-06-08_23-21-00_260595134347_rgbf000070-resize_7/000506_2014-06-08_23-21-00_260595134347_rgbf000070-resize_7-target.png,125,4.0585,2,3779,124,meters,jsons/VE125_randls_40_rotated.json,1474943,1971184,38,Woman
10,971887,DepthScenes,duration_manipulation_targetAtFixation,jsons/VE125_randls_40_rotated.json,http://54.235.29.9/FacialAge/BNav_EC2/DepthDuration/v2_depth_duration_MTurk/v2_DepthDuration_HTML.html#222,222,1517,730,1366,768,9-4-2022,11-33-6,11,depth_duration_stimuli/002444_2014-06-28_20-32-08_260595134347_rgbf000027-resize_0/002444_2014-06-28_20-32-08_260595134347_rgbf000027-resize_0-target.png,125,4.388999999999999,7,3688,124,meters,jsons/VE125_randls_40_rotated.json,1474943,1971184,38,Woman
11,971887,DepthScenes,duration_manipulation_targetAtFixation,jsons/VE125_randls_40_rotated.json,http://54.235.29.9/FacialAge/BNav_EC2/DepthDuration/v2_depth_duration_MTurk/v2_DepthDuration_HTML.html#222,222,1517,730,1366,768,9-4-2022,11-33-6,12,depth_duration_stimuli/000436_2014-06-09_22-25-11_260595134347_rgbf000137-resize_1/000436_2014-06-09_22-25-11_260595134347_rgbf000137-resize_1-target.png,125,4.0705,6,3907,123,meters,jsons/VE125_randls_40_rotated.json,1474943,1971184,38,Woman
12,971887,DepthScenes,duration_manipulation_targetAtFixation,jsons/VE125_randls_40_rotated.json,http://54.235.29.9/FacialAge/BNav_EC2/DepthDuration/v2_depth_duration_MTurk/v2_DepthDuration_HTML.html#222,222,1517,730,1366,768,9-4-2022,11-33-6,13,depth_duration_stimuli/002953_2014-06-08_17-32-18_094959634447_rgbf000059-resize_5/002953_2014-06-08_17-32-18_094959634447_rgbf000059-resize_5-target.png,125,1.551,3,5137,124,meters,jsons/VE125_randls_40_rotated.json,1474943,1971184,38,Woman
13,971887,DepthScenes,duration_manipulation_targetAtFixation,jsons/VE125_randls_40_rotated.json,http://54.235.29.9/FacialAge/BNav_EC2/DepthDuration/v2_depth_duration_MTurk/v2_DepthDuration_HTML.html#222,222,1517,730,1366,768,9-4-2022,11-33-6,14,depth_duration_stimuli/000878_2014-06-08_22-52-45_260595134347_rgbf000045-resize_2/000878_2014-06-08_22-52-45_260595134347_rgbf000045-resize_2-target.png,125,2.092,4,3884,124,meters,jsons/VE125_randls_40_rotated.json,1474943,1971184,38,Woman
14,971887,DepthScenes,duration_manipulation_targetAtFixation,jsons/VE125_randls_40_rotated.json,http://54.235.29.9/FacialAge/BNav_EC2/DepthDuration/v2_depth_duration_MTurk/v2_DepthDuration_HTML.html#222,222,1517,730,1366,768,9-4-2022,11-33-6,15,depth_duration_stimuli/000691_2014-06-08_13-08-50_260595134347_rgbf000132-resize_3/000691_2014-06-08_13-08-50_260595134347_rgbf000132-resize_3-target.png,125,4.1530000000000005,4,3570,125,meters,jsons/VE125_randls_40_rotated.json,1474943,1971184,38,Woman
15,971887,DepthScenes,duration_manipulation_targetAtFixation,jsons/VE125_randls_40_rotated.json,http://54.235.29.9/FacialAge/BNav_EC2/DepthDuration/v2_depth_duration_MTurk/v2_DepthDuration_HTML.html#222,222,1517,730,1366,768,9-4-2022,11-33-6,16,depth_duration_stimuli/002213_2014-06-28_18-37-58_260595134347_rgbf000055-resize_1/002213_2014-06-28_18-37-58_260595134347_rgbf000055-resize_1-target.png,125,3.62,7,3760,123,meters,jsons/VE125_randls_40_rotated.json,1474943,1971184,38,Woman
16,971887,DepthScenes,duration_manipulation_targetAtFixation,jsons/VE125_randls_40_rotated.json,http://54.235.29.9/FacialAge/BNav_EC2/DepthDuration/v2_depth_duration_MTurk/v2_DepthDuration_HTML.html#222,222,1517,730,1366,768,9-4-2022,11-33-6,17,depth_duration_stimuli/001617_2014-06-20_11-35-32_260595134347_rgbf000066-resize_1/001617_2014-06-20_11-35-32_260595134347_rgbf000066-resize_1-target.png,125,3.7910000000000004,9,3882,125,meters,jsons/VE125_randls_40_rotated.json,1474943,1971184,38,Woman
17,971887,DepthScenes,duration_manipulation_targetAtFixation,jsons/VE125_randls_40_rotated.json,http://54.235.29.9/FacialAge/BNav_EC2/DepthDuration/v2_depth_duration_MTurk/v2_DepthDuration_HTML.html#222,222,1517,730,1366,768,9-4-2022,11-33-6,18,depth_duration_stimuli/001806_2014-06-26_20-50-20_260595134347_rgbf000091-resize_1/001806_2014-06-26_20-50-20_260595134347_rgbf000091-resize_1-target.png,125,2.7305,3,4270,126,meters,jsons/VE125_randls_40_rotated.json,1474943,1971184,38,Woman
18,971887,DepthScenes,duration_manipulation_targetAtFixation,jsons/VE125_randls_40_rotated.json,http://54.235.29.9/FacialAge/BNav_EC2/DepthDuration/v2_depth_duration_MTurk/v2_DepthDuration_HTML.html#222,222,1517,730,1366,768,9-4-2022,11-33-6,19,depth_duration_stimuli/001498_2014-06-19_17-45-14_260595134347_rgbf000129-resize_4/001498_2014-06-19_17-45-14_260595134347_rgbf000129-resize-original.jpg,125,1.4075,5,3983,125,meters,jsons/VE125_randls_40_rotated.json,1474943,1971184,38,Woman
19,971887,DepthScenes,duration_manipulation_targetAtFixation,jsons/VE125_randls_40_rotated.json,http://54.235.29.9/FacialAge/BNav_EC2/DepthDuration/v2_depth_duration_MTurk/v2_DepthDuration_HTML.html#222,222,1517,730,1366,768,9-4-2022,11-33-6,20,depth_duration_stimuli/000502_2014-06-08_23-02-32_260595134347_rgbf000063-resize_4/000502_2014-06-08_23-02-32_260595134347_rgbf000063-resize_4-target.png,125,2.431,6,3883,126,meters,jsons/VE125_randls_40_rotated.json,1474943,1971184,38,Woman
20,971887,DepthScenes,duration_manipulation_targetAtFixation,jsons/VE125_randls_40_rotated.json,http://54.235.29.9/FacialAge/BNav_EC2/DepthDuration/v2_depth_duration_MTurk/v2_DepthDuration_HTML.html#222,222,1517,730,1366,768,9-4-2022,11-33-6,21,depth_duration_stimuli/001199_2014-06-17_16-03-48_260595134347_rgbf000077-resize_0/001199_2014-06-17_16-03-48_260595134347_rgbf000077-resize_0-target.png,125,3.4375,5,4370,125,meters,jsons/VE125_randls_40_rotated.json,1474943,1971184,38,Woman
21,971887,DepthScenes,duration_manipulation_targetAtFixation,jsons/VE125_randls_40_rotated.json,http://54.235.29.9/FacialAge/BNav_EC2/DepthDuration/v2_depth_duration_MTurk/v2_DepthDuration_HTML.html#222,222,1517,730,1366,768,9-4-2022,11-33-6,22,depth_duration_stimuli/002660_2014-06-13_15-44-18_094959634447_rgbf001878-resize_2/002660_2014-06-13_15-44-18_094959634447_rgbf001878-resize_2-target.png,125,3.576,7,4189,125,meters,jsons/VE125_randls_40_rotated.json,1474943,1971184,38,Woman
22,971887,DepthScenes,duration_manipulation_targetAtFixation,jsons/VE125_randls_40_rotated.json,http://54.235.29.9/FacialAge/BNav_EC2/DepthDuration/v2_depth_duration_MTurk/v2_DepthDuration_HTML.html#222,222,1517,730,1366,768,9-4-2022,11-33-6,23,depth_duration_stimuli/002153_2014-06-25_21-27-18_260595134347_rgbf000038-resize_5/002153_2014-06-25_21-27-18_260595134347_rgbf000038-resize_5-target.png,125,2.505,3,3505,125,meters,jsons/VE125_randls_40_rotated.json,1474943,1971184,38,Woman
23,971887,DepthScenes,duration_manipulation_targetAtFixation,jsons/VE125_randls_40_rotated.json,http://54.235.29.9/FacialAge/BNav_EC2/DepthDuration/v2_depth_duration_MTurk/v2_DepthDuration_HTML.html#222,222,1517,730,1366,768,9-4-2022,11-33-6,24,depth_duration_stimuli/003338_2014-05-20_11-01-23_094959634447_rgbf000051-resize_6/003338_2014-05-20_11-01-23_094959634447_rgbf000051-resize_6-target.png,125,1.693,5,3892,126,meters,jsons/VE125_randls_40_rotated.json,1474943,1971184,38,Woman
24,971887,DepthScenes,duration_manipulation_targetAtFixation,jsons/VE125_randls_40_rotated.json,http://54.235.29.9/FacialAge/BNav_EC2/DepthDuration/v2_depth_duration_MTurk/v2_DepthDuration_HTML.html#222,222,1517,730,1366,768,9-4-2022,11-33-6,25,depth_duration_stimuli/002509_2014-06-24_13-19-22_094959634447_rgbf000077-resize_0/002509_2014-06-24_13-19-22_094959634447_rgbf000077-resize_0-target.png,125,1.3065,6,3476,125,meters,jsons/VE125_randls_40_rotated.json,1474943,1971184,38,Woman
25,971887,DepthScenes,duration_manipulation_targetAtFixation,jsons/VE125_randls_40_rotated.json,http://54.235.29.9/FacialAge/BNav_EC2/DepthDuration/v2_depth_duration_MTurk/v2_DepthDuration_HTML.html#222,222,1517,730,1366,768,9-4-2022,11-33-6,26,depth_duration_stimuli/002545_2014-06-24_13-38-53_094959634447_rgbf000080-resize_4/002545_2014-06-24_13-38-53_094959634447_rgbf000080-resize_4-target.png,125,1.9205,6,3906,125,meters,jsons/VE125_randls_40_rotated.json,1474943,1971184,38,Woman
26,971887,DepthScenes,duration_manipulation_targetAtFixation,jsons/VE125_randls_40_rotated.json,http://54.235.29.9/FacialAge/BNav_EC2/DepthDuration/v2_depth_duration_MTurk/v2_DepthDuration_HTML.html#222,222,1517,730,1366,768,9-4-2022,11-33-6,27,depth_duration_stimuli/001092_2014-06-15_17-34-58_260595134347_rgbf000171-resize_3/001092_2014-06-15_17-34-58_260595134347_rgbf000171-resize_3-target.png,125,2.6935,7,4051,126,meters,jsons/VE125_randls_40_rotated.json,1474943,1971184,38,Woman
27,971887,DepthScenes,duration_manipulation_targetAtFixation,jsons/VE125_randls_40_rotated.json,http://54.235.29.9/FacialAge/BNav_EC2/DepthDuration/v2_depth_duration_MTurk/v2_DepthDuration_HTML.html#222,222,1517,730,1366,768,9-4-2022,11-33-6,28,depth_duration_stimuli/002199_2014-06-28_18-33-56_260595134347_rgbf000074-resize_0/002199_2014-06-28_18-33-56_260595134347_rgbf000074-resize_0-target.png,125,1.996,2,3420,124,meters,jsons/VE125_randls_40_rotated.json,1474943,1971184,38,Woman
28,971887,DepthScenes,duration_manipulation_targetAtFixation,jsons/VE125_randls_40_rotated.json,http://54.235.29.9/FacialAge/BNav_EC2/DepthDuration/v2_depth_duration_MTurk/v2_DepthDuration_HTML.html#222,222,1517,730,1366,768,9-4-2022,11-33-6,29,depth_duration_stimuli/001056_2014-06-08_18-46-44_260595134347_rgbf000068-resize_0/001056_2014-06-08_18-46-44_260595134347_rgbf000068-resize_0-target.png,125,2.6625,3,6667,125,meters,jsons/VE125_randls_40_rotated.json,1474943,1971184,38,Woman
29,971887,DepthScenes,duration_manipulation_targetAtFixation,jsons/VE125_randls_40_rotated.json,http://54.235.29.9/FacialAge/BNav_EC2/DepthDuration/v2_depth_duration_MTurk/v2_DepthDuration_HTML.html#222,222,1517,730,1366,768,9-4-2022,11-33-6,30,depth_duration_stimuli/002072_2014-06-24_21-48-06_260595134347_rgbf000115-resize_0/002072_2014-06-24_21-48-06_260595134347_rgbf000115-resize-original.jpg,125,4.702,3,8075,125,meters,jsons/VE125_randls_40_rotated.json,1474943,1971184,38,Woman
30,971887,DepthScenes,duration_manipulation_targetAtFixation,jsons/VE125_randls_40_rotated.json,http://54.235.29.9/FacialAge/BNav_EC2/DepthDuration/v2_depth_duration_MTurk/v2_DepthDuration_HTML.html#222,222,1517,730,1366,768,9-4-2022,11-33-6,31,depth_duration_stimuli/002637_2014-06-24_14-51-13_094959634447_rgbf000066-resize_4/002637_2014-06-24_14-51-13_094959634447_rgbf000066-resize_4-target.png,125,1.9955,4,4858,123,meters,jsons/VE125_randls_40_rotated.json,1474943,1971184,38,Woman
31,971887,DepthScenes,duration_manipulation_targetAtFixation,jsons/VE125_randls_40_rotated.json,http://54.235.29.9/FacialAge/BNav_EC2/DepthDuration/v2_depth_duration_MTurk/v2_DepthDuration_HTML.html#222,222,1517,730,1366,768,9-4-2022,11-33-6,32,depth_duration_stimuli/003534_2014-05-22_15-06-10_094959634447_rgbf000102-resize_4/003534_2014-05-22_15-06-10_094959634447_rgbf000102-resize_4-target.png,125,1.426,12,9475,125,meters,jsons/VE125_randls_40_rotated.json,1474943,1971184,38,Woman
32,971887,DepthScenes,duration_manipulation_targetAtFixation,jsons/VE125_randls_40_rotated.json,http://54.235.29.9/FacialAge/BNav_EC2/DepthDuration/v2_depth_duration_MTurk/v2_DepthDuration_HTML.html#222,222,1517,730,1366,768,9-4-2022,11-33-6,33,depth_duration_stimuli/003495_2014-05-21_16-01-51_094959634447_rgbf000100-resize_3/003495_2014-05-21_16-01-51_094959634447_rgbf000100-resize_3-target.png,125,1.6255,3,3594,124,meters,jsons/VE125_randls_40_rotated.json,1474943,1971184,38,Woman
33,971887,DepthScenes,duration_manipulation_targetAtFixation,jsons/VE125_randls_40_rotated.json,http://54.235.29.9/FacialAge/BNav_EC2/DepthDuration/v2_depth_duration_MTurk/v2_DepthDuration_HTML.html#222,222,1517,730,1366,768,9-4-2022,11-33-6,34,depth_duration_stimuli/001244_2014-06-17_16-47-45_260595134347_rgbf000030-resize_4/001244_2014-06-17_16-47-45_260595134347_rgbf000030-resize_4-target.png,125,2.0425,4,10462,126,meters,jsons/VE125_randls_40_rotated.json,1474943,1971184,38,Woman
34,971887,DepthScenes,duration_manipulation_targetAtFixation,jsons/VE125_randls_40_rotated.json,http://54.235.29.9/FacialAge/BNav_EC2/DepthDuration/v2_depth_duration_MTurk/v2_DepthDuration_HTML.html#222,222,1517,730,1366,768,9-4-2022,11-33-6,35,depth_duration_stimuli/002103_2014-06-25_20-00-40_260595134347_rgbf000049-resize_0/002103_2014-06-25_20-00-40_260595134347_rgbf000049-resize_0-target.png,125,4.105,3,4981,126,meters,jsons/VE125_randls_40_rotated.json,1474943,1971184,38,Woman
35,971887,DepthScenes,duration_manipulation_targetAtFixation,jsons/VE125_randls_40_rotated.json,http://54.235.29.9/FacialAge/BNav_EC2/DepthDuration/v2_depth_duration_MTurk/v2_DepthDuration_HTML.html#222,222,1517,730,1366,768,9-4-2022,11-33-6,36,depth_duration_stimuli/002039_2014-06-24_20-22-38_260595134347_rgbf000084-resize_1/002039_2014-06-24_20-22-38_260595134347_rgbf000084-resize_1-target.png,125,4.408,3,6842,125,meters,jsons/VE125_randls_40_rotated.json,1474943,1971184,38,Woman
36,971887,DepthScenes,duration_manipulation_targetAtFixation,jsons/VE125_randls_40_rotated.json,http://54.235.29.9/FacialAge/BNav_EC2/DepthDuration/v2_depth_duration_MTurk/v2_DepthDuration_HTML.html#222,222,1517,730,1366,768,9-4-2022,11-33-6,37,depth_duration_stimuli/000780_2014-06-08_22-28-29_260595134347_rgbf000126-resize_1/000780_2014-06-08_22-28-29_260595134347_rgbf000126-resize_1-target.png,125,3.3825,4,3520,126,meters,jsons/VE125_randls_40_rotated.json,1474943,1971184,38,Woman
37,971887,DepthScenes,duration_manipulation_targetAtFixation,jsons/VE125_randls_40_rotated.json,http://54.235.29.9/FacialAge/BNav_EC2/DepthDuration/v2_depth_duration_MTurk/v2_DepthDuration_HTML.html#222,222,1517,730,1366,768,9-4-2022,11-33-6,38,depth_duration_stimuli/002445_2014-06-28_20-32-16_260595134347_rgbf000029-resize_4/002445_2014-06-28_20-32-16_260595134347_rgbf000029-resize_4-target.png,125,2.5315,6,3336,124,meters,jsons/VE125_randls_40_rotated.json,1474943,1971184,38,Woman
38,971887,DepthScenes,duration_manipulation_targetAtFixation,jsons/VE125_randls_40_rotated.json,http://54.235.29.9/FacialAge/BNav_EC2/DepthDuration/v2_depth_duration_MTurk/v2_DepthDuration_HTML.html#222,222,1517,730,1366,768,9-4-2022,11-33-6,39,depth_duration_stimuli/002805_2014-06-22_19-54-03_094959634447_rgbf000079-resize_1/002805_2014-06-22_19-54-03_094959634447_rgbf000079-resize_1-target.png,125,3.1439999999999997,8,3424,123,meters,jsons/VE125_randls_40_rotated.json,1474943,1971184,38,Woman
39,971887,DepthScenes,duration_manipulation_targetAtFixation,jsons/VE125_randls_40_rotated.json,http://54.235.29.9/FacialAge/BNav_EC2/DepthDuration/v2_depth_duration_MTurk/v2_DepthDuration_HTML.html#222,222,1517,730,1366,768,9-4-2022,11-33-6,40,depth_duration_stimuli/000906_2014-06-08_13-35-43_260595134347_rgbf000155-resize_1/000906_2014-06-08_13-35-43_260595134347_rgbf000155-resize_1-target.png,125,2.8489999999999998,6,3759,124,meters,jsons/VE125_randls_40_rotated.json,1474943,1971184,38,Woman
40,971887,DepthScenes,duration_manipulation_targetAtFixation,jsons/VE125_randls_40_rotated.json,http://54.235.29.9/FacialAge/BNav_EC2/DepthDuration/v2_depth_duration_MTurk/v2_DepthDuration_HTML.html#222,222,1517,730,1366,768,9-4-2022,11-33-6,41,depth_duration_stimuli/003081_2014-06-15_15-19-16_094959634447_rgbf000150-resize_1/003081_2014-06-15_15-19-16_094959634447_rgbf000150-resize_1-target.png,125,3.9125,6,42915,124,meters,jsons/VE125_randls_40_rotated.json,1474943,1971184,38,Woman
41,971887,DepthScenes,duration_manipulation_targetAtFixation,jsons/VE125_randls_40_rotated.json,http://54.235.29.9/FacialAge/BNav_EC2/DepthDuration/v2_depth_duration_MTurk/v2_DepthDuration_HTML.html#222,222,1517,730,1366,768,9-4-2022,11-33-6,42,depth_duration_stimuli/001417_2014-06-19_16-25-36_260595134347_rgbf000115-resize_5/001417_2014-06-19_16-25-36_260595134347_rgbf000115-resize_5-target.png,125,4.6255,2,15014,124,meters,jsons/VE125_randls_40_rotated.json,1474943,1971184,38,Woman
42,971887,DepthScenes,duration_manipulation_targetAtFixation,jsons/VE125_randls_40_rotated.json,http://54.235.29.9/FacialAge/BNav_EC2/DepthDuration/v2_depth_duration_MTurk/v2_DepthDuration_HTML.html#222,222,1517,730,1366,768,9-4-2022,11-33-6,43,depth_duration_stimuli/000943_2014-06-09_19-31-07_260595134347_rgbf000128-resize_1/000943_2014-06-09_19-31-07_260595134347_rgbf000128-resize_1-target.png,125,1.9765,3,11654,124,meters,jsons/VE125_randls_40_rotated.json,1474943,1971184,38,Woman
43,971887,DepthScenes,duration_manipulation_targetAtFixation,jsons/VE125_randls_40_rotated.json,http://54.235.29.9/FacialAge/BNav_EC2/DepthDuration/v2_depth_duration_MTurk/v2_DepthDuration_HTML.html#222,222,1517,730,1366,768,9-4-2022,11-33-6,44,depth_duration_stimuli/003070_2014-06-15_14-58-27_094959634447_rgbf000150-resize_3/003070_2014-06-15_14-58-27_094959634447_rgbf000150-resize_3-target.png,125,2.9415,6,4527,124,meters,jsons/VE125_randls_40_rotated.json,1474943,1971184,38,Woman
44,971887,DepthScenes,duration_manipulation_targetAtFixation,jsons/VE125_randls_40_rotated.json,http://54.235.29.9/FacialAge/BNav_EC2/DepthDuration/v2_depth_duration_MTurk/v2_DepthDuration_HTML.html#222,222,1517,730,1366,768,9-4-2022,11-33-6,45,depth_duration_stimuli/002949_2014-06-26_15-57-42_094959634447_rgbf000079-resize_1/002949_2014-06-26_15-57-42_094959634447_rgbf000079-resize_1-target.png,125,1.8915,3,3997,124,meters,jsons/VE125_randls_40_rotated.json,1474943,1971184,38,Woman
45,971887,DepthScenes,duration_manipulation_targetAtFixation,jsons/VE125_randls_40_rotated.json,http://54.235.29.9/FacialAge/BNav_EC2/DepthDuration/v2_depth_duration_MTurk/v2_DepthDuration_HTML.html#222,222,1517,730,1366,768,9-4-2022,11-33-6,46,depth_duration_stimuli/000522_2014-06-08_13-35-06_260595134347_rgbf000244-resize_1/000522_2014-06-08_13-35-06_260595134347_rgbf000244-resize_1-target.png,125,2.3715,6,10753,126,meters,jsons/VE125_randls_40_rotated.json,1474943,1971184,38,Woman
46,971887,DepthScenes,duration_manipulation_targetAtFixation,jsons/VE125_randls_40_rotated.json,http://54.235.29.9/FacialAge/BNav_EC2/DepthDuration/v2_depth_duration_MTurk/v2_DepthDuration_HTML.html#222,222,1517,730,1366,768,9-4-2022,11-33-6,47,depth_duration_stimuli/000927_2014-06-09_16-32-30_260595134347_rgbf000123-resize_3/000927_2014-06-09_16-32-30_260595134347_rgbf000123-resize_3-target.png,125,2.6785,3,4173,124,meters,jsons/VE125_randls_40_rotated.json,1474943,1971184,38,Woman
47,971887,DepthScenes,duration_manipulation_targetAtFixation,jsons/VE125_randls_40_rotated.json,http://54.235.29.9/FacialAge/BNav_EC2/DepthDuration/v2_depth_duration_MTurk/v2_DepthDuration_HTML.html#222,222,1517,730,1366,768,9-4-2022,11-33-6,48,depth_duration_stimuli/001110_2014-06-15_17-25-28_260595134347_rgbf000150-resize_1/001110_2014-06-15_17-25-28_260595134347_rgbf000150-resize_1-target.png,125,1.7115,4,4105,124,meters,jsons/VE125_randls_40_rotated.json,1474943,1971184,38,Woman
48,971887,DepthScenes,duration_manipulation_targetAtFixation,jsons/VE125_randls_40_rotated.json,http://54.235.29.9/FacialAge/BNav_EC2/DepthDuration/v2_depth_duration_MTurk/v2_DepthDuration_HTML.html#222,222,1517,730,1366,768,9-4-2022,11-33-6,49,depth_duration_stimuli/001170_2014-06-17_15-43-44_260595134347_rgbf000096-resize_6/001170_2014-06-17_15-43-44_260595134347_rgbf000096-resize-original.jpg,125,1.1909999999999998,3,4408,123,meters,jsons/VE125_randls_40_rotated.json,1474943,1971184,38,Woman
49,971887,DepthScenes,duration_manipulation_targetAtFixation,jsons/VE125_randls_40_rotated.json,http://54.235.29.9/FacialAge/BNav_EC2/DepthDuration/v2_depth_duration_MTurk/v2_DepthDuration_HTML.html#222,222,1517,730,1366,768,9-4-2022,11-33-6,50,depth_duration_stimuli/002750_2014-06-22_19-08-03_094959634447_rgbf000094-resize_4/002750_2014-06-22_19-08-03_094959634447_rgbf000094-resize_4-target.png,125,2.354,2,4009,125,meters,jsons/VE125_randls_40_rotated.json,1474943,1971184,38,Woman
50,971887,DepthScenes,duration_manipulation_targetAtFixation,jsons/VE125_randls_40_rotated.json,http://54.235.29.9/FacialAge/BNav_EC2/DepthDuration/v2_depth_duration_MTurk/v2_DepthDuration_HTML.html#222,222,1517,730,1366,768,9-4-2022,11-33-6,51,depth_duration_stimuli/002549_2014-06-24_13-41-39_094959634447_rgbf000022-resize_3/002549_2014-06-24_13-41-39_094959634447_rgbf000022-resize_3-target.png,125,1.476,3,6618,124,meters,jsons/VE125_randls_40_rotated.json,1474943,1971184,38,Woman
51,971887,DepthScenes,duration_manipulation_targetAtFixation,jsons/VE125_randls_40_rotated.json,http://54.235.29.9/FacialAge/BNav_EC2/DepthDuration/v2_depth_duration_MTurk/v2_DepthDuration_HTML.html#222,222,1517,730,1366,768,9-4-2022,11-33-6,52,depth_duration_stimuli/002467_2014-06-28_20-38-07_260595134347_rgbf000026-resize_2/002467_2014-06-28_20-38-07_260595134347_rgbf000026-resize_2-target.png,125,4.742,6,3513,123,meters,jsons/VE125_randls_40_rotated.json,1474943,1971184,38,Woman
52,971887,DepthScenes,duration_manipulation_targetAtFixation,jsons/VE125_randls_40_rotated.json,http://54.235.29.9/FacialAge/BNav_EC2/DepthDuration/v2_depth_duration_MTurk/v2_DepthDuration_HTML.html#222,222,1517,730,1366,768,9-4-2022,11-33-6,53,depth_duration_stimuli/002570_2014-06-24_13-59-54_094959634447_rgbf000059-resize_0/002570_2014-06-24_13-59-54_094959634447_rgbf000059-resize_0-target.png,125,4.037,6,7944,123,meters,jsons/VE125_randls_40_rotated.json,1474943,1971184,38,Woman
53,971887,DepthScenes,duration_manipulation_targetAtFixation,jsons/VE125_randls_40_rotated.json,http://54.235.29.9/FacialAge/BNav_EC2/DepthDuration/v2_depth_duration_MTurk/v2_DepthDuration_HTML.html#222,222,1517,730,1366,768,9-4-2022,11-33-6,54,depth_duration_stimuli/000742_2014-06-08_18-48-09_260595134347_rgbf000164-resize_4/000742_2014-06-08_18-48-09_260595134347_rgbf000164-resize_4-target.png,125,4.632,3,3895,124,meters,jsons/VE125_randls_40_rotated.json,1474943,1971184,38,Woman
54,971887,DepthScenes,duration_manipulation_targetAtFixation,jsons/VE125_randls_40_rotated.json,http://54.235.29.9/FacialAge/BNav_EC2/DepthDuration/v2_depth_duration_MTurk/v2_DepthDuration_HTML.html#222,222,1517,730,1366,768,9-4-2022,11-33-6,55,depth_duration_stimuli/001066_2014-06-08_22-03-20_260595134347_rgbf000066-resize_4/001066_2014-06-08_22-03-20_260595134347_rgbf000066-resize_4-target.png,125,4.2330000000000005,2,3884,123,meters,jsons/VE125_randls_40_rotated.json,1474943,1971184,38,Woman
55,971887,DepthScenes,duration_manipulation_targetAtFixation,jsons/VE125_randls_40_rotated.json,http://54.235.29.9/FacialAge/BNav_EC2/DepthDuration/v2_depth_duration_MTurk/v2_DepthDuration_HTML.html#222,222,1517,730,1366,768,9-4-2022,11-33-6,56,depth_duration_stimuli/000749_2014-06-08_21-55-06_260595134347_rgbf000070-resize_2/000749_2014-06-08_21-55-06_260595134347_rgbf000070-resize_2-target.png,125,2.331,4,4066,126,meters,jsons/VE125_randls_40_rotated.json,1474943,1971184,38,Woman
56,971887,DepthScenes,duration_manipulation_targetAtFixation,jsons/VE125_randls_40_rotated.json,http://54.235.29.9/FacialAge/BNav_EC2/DepthDuration/v2_depth_duration_MTurk/v2_DepthDuration_HTML.html#222,222,1517,730,1366,768,9-4-2022,11-33-6,57,depth_duration_stimuli/002788_2014-06-22_19-36-03_094959634447_rgbf000088-resize_2/002788_2014-06-22_19-36-03_094959634447_rgbf000088-resize_2-target.png,125,1.6465,6,7080,125,meters,jsons/VE125_randls_40_rotated.json,1474943,1971184,38,Woman
57,971887,DepthScenes,duration_manipulation_targetAtFixation,jsons/VE125_randls_40_rotated.json,http://54.235.29.9/FacialAge/BNav_EC2/DepthDuration/v2_depth_duration_MTurk/v2_DepthDuration_HTML.html#222,222,1517,730,1366,768,9-4-2022,11-33-6,58,depth_duration_stimuli/001132_2014-06-17_14-48-54_260595134347_rgbf000100-resize_2/001132_2014-06-17_14-48-54_260595134347_rgbf000100-resize_2-target.png,125,3.753,3,4064,125,meters,jsons/VE125_randls_40_rotated.json,1474943,1971184,38,Woman
58,971887,DepthScenes,duration_manipulation_targetAtFixation,jsons/VE125_randls_40_rotated.json,http://54.235.29.9/FacialAge/BNav_EC2/DepthDuration/v2_depth_duration_MTurk/v2_DepthDuration_HTML.html#222,222,1517,730,1366,768,9-4-2022,11-33-6,59,depth_duration_stimuli/001133_2014-06-17_14-49-16_260595134347_rgbf000100-resize_0/001133_2014-06-17_14-49-16_260595134347_rgbf000100-resize_0-target.png,125,4.2115,8,4334,125,meters,jsons/VE125_randls_40_rotated.json,1474943,1971184,38,Woman
59,971887,DepthScenes,duration_manipulation_targetAtFixation,jsons/VE125_randls_40_rotated.json,http://54.235.29.9/FacialAge/BNav_EC2/DepthDuration/v2_depth_duration_MTurk/v2_DepthDuration_HTML.html#222,222,1517,730,1366,768,9-4-2022,11-33-6,60,depth_duration_stimuli/000137_2014-05-20_17-04-49_260595134347_rgbf000120-resize_1/000137_2014-05-20_17-04-49_260595134347_rgbf000120-resize_1-target.png,125,3.786,15,5095,125,meters,jsons/VE125_randls_40_rotated.json,1474943,1971184,38,Woman
60,971887,DepthScenes,duration_manipulation_targetAtFixation,jsons/VE125_randls_40_rotated.json,http://54.235.29.9/FacialAge/BNav_EC2/DepthDuration/v2_depth_duration_MTurk/v2_DepthDuration_HTML.html#222,222,1517,730,1366,768,9-4-2022,11-33-6,61,depth_duration_stimuli/000736_2014-06-08_18-24-15_260595134347_rgbf000206-resize_3/000736_2014-06-08_18-24-15_260595134347_rgbf000206-resize_3-target.png,125,3.515,6,3979,125,meters,jsons/VE125_randls_40_rotated.json,1474943,1971184,38,Woman
61,971887,DepthScenes,duration_manipulation_targetAtFixation,jsons/VE125_randls_40_rotated.json,http://54.235.29.9/FacialAge/BNav_EC2/DepthDuration/v2_depth_duration_MTurk/v2_DepthDuration_HTML.html#222,222,1517,730,1366,768,9-4-2022,11-33-6,62,depth_duration_stimuli/002678_2014-06-13_16-15-32_094959634447_rgbf000151-resize_6/002678_2014-06-13_16-15-32_094959634447_rgbf000151-resize_6-target.png,125,2.1830000000000003,8,3996,125,meters,jsons/VE125_randls_40_rotated.json,1474943,1971184,38,Woman
62,971887,DepthScenes,duration_manipulation_targetAtFixation,jsons/VE125_randls_40_rotated.json,http://54.235.29.9/FacialAge/BNav_EC2/DepthDuration/v2_depth_duration_MTurk/v2_DepthDuration_HTML.html#222,222,1517,730,1366,768,9-4-2022,11-33-6,63,depth_duration_stimuli/000368_2014-06-09_15-53-01_260595134347_rgbf000155-resize_2/000368_2014-06-09_15-53-01_260595134347_rgbf000155-resize_2-target.png,125,2.4859999999999998,6,3402,125,meters,jsons/VE125_randls_40_rotated.json,1474943,1971184,38,Woman
63,971887,DepthScenes,duration_manipulation_targetAtFixation,jsons/VE125_randls_40_rotated.json,http://54.235.29.9/FacialAge/BNav_EC2/DepthDuration/v2_depth_duration_MTurk/v2_DepthDuration_HTML.html#222,222,1517,730,1366,768,9-4-2022,11-33-6,64,depth_duration_stimuli/002425_2014-06-28_20-27-29_260595134347_rgbf000031-resize_8/002425_2014-06-28_20-27-29_260595134347_rgbf000031-resize_8-target.png,125,3.8960000000000004,8,3511,124,meters,jsons/VE125_randls_40_rotated.json,1474943,1971184,38,Woman
64,971887,DepthScenes,duration_manipulation_targetAtFixation,jsons/VE125_randls_40_rotated.json,http://54.235.29.9/FacialAge/BNav_EC2/DepthDuration/v2_depth_duration_MTurk/v2_DepthDuration_HTML.html#222,222,1517,730,1366,768,9-4-2022,11-33-6,65,depth_duration_stimuli/000642_2014-06-08_16-59-25_260595134347_rgbf000098-resize_2/000642_2014-06-08_16-59-25_260595134347_rgbf000098-resize_2-target.png,125,2.8815,8,23909,1,meters,jsons/VE125_randls_40_rotated.json,1474943,1971184,38,Woman
65,971887,DepthScenes,duration_manipulation_targetAtFixation,jsons/VE125_randls_40_rotated.json,http://54.235.29.9/FacialAge/BNav_EC2/DepthDuration/v2_depth_duration_MTurk/v2_DepthDuration_HTML.html#222,222,1517,730,1366,768,9-4-2022,11-33-6,66,depth_duration_stimuli/001540_2014-06-20_17-01-05_260595134347_rgbf000086-resize_2/001540_2014-06-20_17-01-05_260595134347_rgbf000086-resize-original.jpg,125,1.459,6,3688,124,meters,jsons/VE125_randls_40_rotated.json,1474943,1971184,38,Woman
66,971887,DepthScenes,duration_manipulation_targetAtFixation,jsons/VE125_randls_40_rotated.json,http://54.235.29.9/FacialAge/BNav_EC2/DepthDuration/v2_depth_duration_MTurk/v2_DepthDuration_HTML.html#222,222,1517,730,1366,768,9-4-2022,11-33-6,67,depth_duration_stimuli/000457_2014-06-08_16-52-43_260595134347_rgbf000199-resize_1/000457_2014-06-08_16-52-43_260595134347_rgbf000199-resize_1-target.png,125,3.6489999999999996,7,3952,123,meters,jsons/VE125_randls_40_rotated.json,1474943,1971184,38,Woman
67,971887,DepthScenes,duration_manipulation_targetAtFixation,jsons/VE125_randls_40_rotated.json,http://54.235.29.9/FacialAge/BNav_EC2/DepthDuration/v2_depth_duration_MTurk/v2_DepthDuration_HTML.html#222,222,1517,730,1366,768,9-4-2022,11-33-6,68,depth_duration_stimuli/000929_2014-06-09_16-33-19_260595134347_rgbf000139-resize_0/000929_2014-06-09_16-33-19_260595134347_rgbf000139-resize_0-target.png,125,2.8680000000000003,9,4231,125,meters,jsons/VE125_randls_40_rotated.json,1474943,1971184,38,Woman
68,971887,DepthScenes,duration_manipulation_targetAtFixation,jsons/VE125_randls_40_rotated.json,http://54.235.29.9/FacialAge/BNav_EC2/DepthDuration/v2_depth_duration_MTurk/v2_DepthDuration_HTML.html#222,222,1517,730,1366,768,9-4-2022,11-33-6,69,depth_duration_stimuli/002136_2014-06-25_21-18-03_260595134347_rgbf000109-resize_3/002136_2014-06-25_21-18-03_260595134347_rgbf000109-resize_3-target.png,125,1.9569999999999999,8,3792,125,meters,jsons/VE125_randls_40_rotated.json,1474943,1971184,38,Woman
69,971887,DepthScenes,duration_manipulation_targetAtFixation,jsons/VE125_randls_40_rotated.json,http://54.235.29.9/FacialAge/BNav_EC2/DepthDuration/v2_depth_duration_MTurk/v2_DepthDuration_HTML.html#222,222,1517,730,1366,768,9-4-2022,11-33-6,70,depth_duration_stimuli/002964_2014-06-08_17-46-11_094959634447_rgbf000091-resize_4/002964_2014-06-08_17-46-11_094959634447_rgbf000091-resize_4-target.png,125,1.6909999999999998,6,4255,126,meters,jsons/VE125_randls_40_rotated.json,1474943,1971184,38,Woman
70,971887,DepthScenes,duration_manipulation_targetAtFixation,jsons/VE125_randls_40_rotated.json,http://54.235.29.9/FacialAge/BNav_EC2/DepthDuration/v2_depth_duration_MTurk/v2_DepthDuration_HTML.html#222,222,1517,730,1366,768,9-4-2022,11-33-6,71,depth_duration_stimuli/003587_2014-05-23_16-48-02_094959634447_rgbf002384-resize_2/003587_2014-05-23_16-48-02_094959634447_rgbf002384-resize_2-target.png,125,1.357,2,3759,125,meters,jsons/VE125_randls_40_rotated.json,1474943,1971184,38,Woman
71,971887,DepthScenes,duration_manipulation_targetAtFixation,jsons/VE125_randls_40_rotated.json,http://54.235.29.9/FacialAge/BNav_EC2/DepthDuration/v2_depth_duration_MTurk/v2_DepthDuration_HTML.html#222,222,1517,730,1366,768,9-4-2022,11-33-6,72,depth_duration_stimuli/001167_2014-06-17_15-38-07_260595134347_rgbf000108-resize_0/001167_2014-06-17_15-38-07_260595134347_rgbf000108-resize_0-target.png,125,1.8505,8,127942,124,meters,jsons/VE125_randls_40_rotated.json,1474943,1971184,38,Woman
72,971887,DepthScenes,duration_manipulation_targetAtFixation,jsons/VE125_randls_40_rotated.json,http://54.235.29.9/FacialAge/BNav_EC2/DepthDuration/v2_depth_duration_MTurk/v2_DepthDuration_HTML.html#222,222,1517,730,1366,768,9-4-2022,11-33-6,73,depth_duration_stimuli/002568_2014-06-24_13-59-21_094959634447_rgbf000062-resize_4/002568_2014-06-24_13-59-21_094959634447_rgbf000062-resize_4-target.png,125,3.015,9,4952,124,meters,jsons/VE125_randls_40_rotated.json,1474943,1971184,38,Woman
73,971887,DepthScenes,duration_manipulation_targetAtFixation,jsons/VE125_randls_40_rotated.json,http://54.235.29.9/FacialAge/BNav_EC2/DepthDuration/v2_depth_duration_MTurk/v2_DepthDuration_HTML.html#222,222,1517,730,1366,768,9-4-2022,11-33-6,74,depth_duration_stimuli/003492_2014-05-21_15-50-55_094959634447_rgbf000828-resize_1/003492_2014-05-21_15-50-55_094959634447_rgbf000828-resize_1-target.png,125,4.06875,9,14247,125,meters,jsons/VE125_randls_40_rotated.json,1474943,1971184,38,Woman
74,971887,DepthScenes,duration_manipulation_targetAtFixation,jsons/VE125_randls_40_rotated.json,http://54.235.29.9/FacialAge/BNav_EC2/DepthDuration/v2_depth_duration_MTurk/v2_DepthDuration_HTML.html#222,222,1517,730,1366,768,9-4-2022,11-33-6,75,depth_duration_stimuli/001032_2014-06-08_13-23-17_260595134347_rgbf000021-resize_3/001032_2014-06-08_13-23-17_260595134347_rgbf000021-resize_3-target.png,125,3.2725,4,9596,124,meters,jsons/VE125_randls_40_rotated.json,1474943,1971184,38,Woman
75,971887,DepthScenes,duration_manipulation_targetAtFixation,jsons/VE125_randls_40_rotated.json,http://54.235.29.9/FacialAge/BNav_EC2/DepthDuration/v2_depth_duration_MTurk/v2_DepthDuration_HTML.html#222,222,1517,730,1366,768,9-4-2022,11-33-6,76,depth_duration_stimuli/001059_2014-06-08_21-53-27_260595134347_rgbf000061-resize_4/001059_2014-06-08_21-53-27_260595134347_rgbf000061-resize_4-target.png,125,2.4185,8,3561,125,meters,jsons/VE125_randls_40_rotated.json,1474943,1971184,38,Woman
76,971887,DepthScenes,duration_manipulation_targetAtFixation,jsons/VE125_randls_40_rotated.json,http://54.235.29.9/FacialAge/BNav_EC2/DepthDuration/v2_depth_duration_MTurk/v2_DepthDuration_HTML.html#222,222,1517,730,1366,768,9-4-2022,11-33-6,77,depth_duration_stimuli/002340_2014-06-28_20-05-46_260595134347_rgbf000113-resize_0/002340_2014-06-28_20-05-46_260595134347_rgbf000113-resize_0-target.png,125,2.4735,7,3501,125,meters,jsons/VE125_randls_40_rotated.json,1474943,1971184,38,Woman
77,971887,DepthScenes,duration_manipulation_targetAtFixation,jsons/VE125_randls_40_rotated.json,http://54.235.29.9/FacialAge/BNav_EC2/DepthDuration/v2_depth_duration_MTurk/v2_DepthDuration_HTML.html#222,222,1517,730,1366,768,9-4-2022,11-33-6,78,depth_duration_stimuli/001016_2014-06-09_16-16-10_260595134347_rgbf000112-resize_5/001016_2014-06-09_16-16-10_260595134347_rgbf000112-resize_5-target.png,125,1.6565,8,4008,126,meters,jsons/VE125_randls_40_rotated.json,1474943,1971184,38,Woman
78,971887,DepthScenes,duration_manipulation_targetAtFixation,jsons/VE125_randls_40_rotated.json,http://54.235.29.9/FacialAge/BNav_EC2/DepthDuration/v2_depth_duration_MTurk/v2_DepthDuration_HTML.html#222,222,1517,730,1366,768,9-4-2022,11-33-6,79,depth_duration_stimuli/003010_2014-06-15_12-54-35_094959634447_rgbf000112-resize_0/003010_2014-06-15_12-54-35_094959634447_rgbf000112-resize_0-target.png,125,3.1185,6,4232,126,meters,jsons/VE125_randls_40_rotated.json,1474943,1971184,38,Woman
79,971887,DepthScenes,duration_manipulation_targetAtFixation,jsons/VE125_randls_40_rotated.json,http://54.235.29.9/FacialAge/BNav_EC2/DepthDuration/v2_depth_duration_MTurk/v2_DepthDuration_HTML.html#222,222,1517,730,1366,768,9-4-2022,11-33-6,80,depth_duration_stimuli/001810_2014-06-26_20-51-35_260595134347_rgbf000040-resize_3/001810_2014-06-26_20-51-35_260595134347_rgbf000040-resize_3-target.png,125,2.2525,7,3913,125,meters,jsons/VE125_randls_40_rotated.json,1474943,1971184,38,Woman
80,971887,DepthScenes,duration_manipulation_targetAtFixation,jsons/VE125_randls_40_rotated.json,http://54.235.29.9/FacialAge/BNav_EC2/DepthDuration/v2_depth_duration_MTurk/v2_DepthDuration_HTML.html#222,222,1517,730,1366,768,9-4-2022,11-33-6,81,depth_duration_stimuli/000734_2014-06-08_17-39-11_260595134347_rgbf000128-resize_2/000734_2014-06-08_17-39-11_260595134347_rgbf000128-resize_2-target.png,125,4.098,3,4139,125,meters,jsons/VE125_randls_40_rotated.json,1474943,1971184,38,Woman
81,971887,DepthScenes,duration_manipulation_targetAtFixation,jsons/VE125_randls_40_rotated.json,http://54.235.29.9/FacialAge/BNav_EC2/DepthDuration/v2_depth_duration_MTurk/v2_DepthDuration_HTML.html#222,222,1517,730,1366,768,9-4-2022,11-33-6,82,depth_duration_stimuli/000739_2014-06-08_18-45-58_260595134347_rgbf000068-resize_1/000739_2014-06-08_18-45-58_260595134347_rgbf000068-resize_1-target.png,125,3.534,4,4127,125,meters,jsons/VE125_randls_40_rotated.json,1474943,1971184,38,Woman
82,971887,DepthScenes,duration_manipulation_targetAtFixation,jsons/VE125_randls_40_rotated.json,http://54.235.29.9/FacialAge/BNav_EC2/DepthDuration/v2_depth_duration_MTurk/v2_DepthDuration_HTML.html#222,222,1517,730,1366,768,9-4-2022,11-33-6,83,depth_duration_stimuli/001235_2014-06-17_16-37-36_260595134347_rgbf000084-resize_4/001235_2014-06-17_16-37-36_260595134347_rgbf000084-resize_4-target.png,125,3.6605,6,9695,124,meters,jsons/VE125_randls_40_rotated.json,1474943,1971184,38,Woman
83,971887,DepthScenes,duration_manipulation_targetAtFixation,jsons/VE125_randls_40_rotated.json,http://54.235.29.9/FacialAge/BNav_EC2/DepthDuration/v2_depth_duration_MTurk/v2_DepthDuration_HTML.html#222,222,1517,730,1366,768,9-4-2022,11-33-6,84,depth_duration_stimuli/000788_2014-06-08_22-34-36_260595134347_rgbf000131-resize_1/000788_2014-06-08_22-34-36_260595134347_rgbf000131-resize_1-target.png,125,3.359,7,4481,125,meters,jsons/VE125_randls_40_rotated.json,1474943,1971184,38,Woman
84,971887,DepthScenes,duration_manipulation_targetAtFixation,jsons/VE125_randls_40_rotated.json,http://54.235.29.9/FacialAge/BNav_EC2/DepthDuration/v2_depth_duration_MTurk/v2_DepthDuration_HTML.html#222,222,1517,730,1366,768,9-4-2022,11-33-6,85,depth_duration_stimuli/000549_2014-06-08_22-10-24_260595134347_rgbf000247-resize_3/000549_2014-06-08_22-10-24_260595134347_rgbf000247-resize_3-target.png,125,1.841,3,4286,124,meters,jsons/VE125_randls_40_rotated.json,1474943,1971184,38,Woman
85,971887,DepthScenes,duration_manipulation_targetAtFixation,jsons/VE125_randls_40_rotated.json,http://54.235.29.9/FacialAge/BNav_EC2/DepthDuration/v2_depth_duration_MTurk/v2_DepthDuration_HTML.html#222,222,1517,730,1366,768,9-4-2022,11-33-6,86,depth_duration_stimuli/001055_2014-06-08_18-45-35_260595134347_rgbf000111-resize_4/001055_2014-06-08_18-45-35_260595134347_rgbf000111-resize_4-target.png,125,2.4290000000000003,5,4387,123,meters,jsons/VE125_randls_40_rotated.json,1474943,1971184,38,Woman
86,971887,DepthScenes,duration_manipulation_targetAtFixation,jsons/VE125_randls_40_rotated.json,http://54.235.29.9/FacialAge/BNav_EC2/DepthDuration/v2_depth_duration_MTurk/v2_DepthDuration_HTML.html#222,222,1517,730,1366,768,9-4-2022,11-33-6,87,depth_duration_stimuli/003228_2014-05-14_13-42-35_094959634447_rgbf000101-resize_1/003228_2014-05-14_13-42-35_094959634447_rgbf000101-resize_1-target.png,125,1.9680000000000002,7,3614,124,meters,jsons/VE125_randls_40_rotated.json,1474943,1971184,38,Woman
87,971887,DepthScenes,duration_manipulation_targetAtFixation,jsons/VE125_randls_40_rotated.json,http://54.235.29.9/FacialAge/BNav_EC2/DepthDuration/v2_depth_duration_MTurk/v2_DepthDuration_HTML.html#222,222,1517,730,1366,768,9-4-2022,11-33-6,88,depth_duration_stimuli/002600_2014-06-24_14-27-04_094959634447_rgbf000074-resize_2/002600_2014-06-24_14-27-04_094959634447_rgbf000074-resize_2-target.png,125,2.7575,3,3799,124,meters,jsons/VE125_randls_40_rotated.json,1474943,1971184,38,Woman
88,971887,DepthScenes,duration_manipulation_targetAtFixation,jsons/VE125_randls_40_rotated.json,http://54.235.29.9/FacialAge/BNav_EC2/DepthDuration/v2_depth_duration_MTurk/v2_DepthDuration_HTML.html#222,222,1517,730,1366,768,9-4-2022,11-33-6,89,depth_duration_stimuli/001052_2014-06-08_18-24-54_260595134347_rgbf000130-resize_1/001052_2014-06-08_18-24-54_260595134347_rgbf000130-resize_1-target.png,125,4.1045,6,3583,123,meters,jsons/VE125_randls_40_rotated.json,1474943,1971184,38,Woman
89,971887,DepthScenes,duration_manipulation_targetAtFixation,jsons/VE125_randls_40_rotated.json,http://54.235.29.9/FacialAge/BNav_EC2/DepthDuration/v2_depth_duration_MTurk/v2_DepthDuration_HTML.html#222,222,1517,730,1366,768,9-4-2022,11-33-6,90,depth_duration_stimuli/002988_2014-06-15_12-24-20_094959634447_rgbf000150-resize_1/002988_2014-06-15_12-24-20_094959634447_rgbf000150-resize_1-target.png,125,4.7669999999999995,15,4234,124,meters,jsons/VE125_randls_40_rotated.json,1474943,1971184,38,Woman
90,971887,DepthScenes,duration_manipulation_targetAtFixation,jsons/VE125_randls_40_rotated.json,http://54.235.29.9/FacialAge/BNav_EC2/DepthDuration/v2_depth_duration_MTurk/v2_DepthDuration_HTML.html#222,222,1517,730,1366,768,9-4-2022,11-33-6,91,depth_duration_stimuli/001214_2014-06-17_16-13-55_260595134347_rgbf000111-resize_0/001214_2014-06-17_16-13-55_260595134347_rgbf000111-resize_0-target.png,125,2.6505,4,4134,125,meters,jsons/VE125_randls_40_rotated.json,1474943,1971184,38,Woman
91,971887,DepthScenes,duration_manipulation_targetAtFixation,jsons/VE125_randls_40_rotated.json,http://54.235.29.9/FacialAge/BNav_EC2/DepthDuration/v2_depth_duration_MTurk/v2_DepthDuration_HTML.html#222,222,1517,730,1366,768,9-4-2022,11-33-6,92,depth_duration_stimuli/000810_2014-06-08_17-20-01_260595134347_rgbf000105-resize_0/000810_2014-06-08_17-20-01_260595134347_rgbf000105-resize_0-target.png,125,1.4865,9,4097,124,meters,jsons/VE125_randls_40_rotated.json,1474943,1971184,38,Woman
92,971887,DepthScenes,duration_manipulation_targetAtFixation,jsons/VE125_randls_40_rotated.json,http://54.235.29.9/FacialAge/BNav_EC2/DepthDuration/v2_depth_duration_MTurk/v2_DepthDuration_HTML.html#222,222,1517,730,1366,768,9-4-2022,11-33-6,93,depth_duration_stimuli/002758_2014-06-22_19-11-20_094959634447_rgbf000128-resize_1/002758_2014-06-22_19-11-20_094959634447_rgbf000128-resize_1-target.png,125,2.555,8,3723,125,meters,jsons/VE125_randls_40_rotated.json,1474943,1971184,38,Woman
93,971887,DepthScenes,duration_manipulation_targetAtFixation,jsons/VE125_randls_40_rotated.json,http://54.235.29.9/FacialAge/BNav_EC2/DepthDuration/v2_depth_duration_MTurk/v2_DepthDuration_HTML.html#222,222,1517,730,1366,768,9-4-2022,11-33-6,94,depth_duration_stimuli/002630_2014-06-24_14-47-50_094959634447_rgbf000055-resize_1/002630_2014-06-24_14-47-50_094959634447_rgbf000055-resize_1-target.png,125,3.0095,15,4321,124,meters,jsons/VE125_randls_40_rotated.json,1474943,1971184,38,Woman
94,971887,DepthScenes,duration_manipulation_targetAtFixation,jsons/VE125_randls_40_rotated.json,http://54.235.29.9/FacialAge/BNav_EC2/DepthDuration/v2_depth_duration_MTurk/v2_DepthDuration_HTML.html#222,222,1517,730,1366,768,9-4-2022,11-33-6,95,depth_duration_stimuli/000665_2014-06-09_20-42-35_260595134347_rgbf000110-resize_1/000665_2014-06-09_20-42-35_260595134347_rgbf000110-resize_1-target.png,125,3.057,7,3577,124,meters,jsons/VE125_randls_40_rotated.json,1474943,1971184,38,Woman
95,971887,DepthScenes,duration_manipulation_targetAtFixation,jsons/VE125_randls_40_rotated.json,http://54.235.29.9/FacialAge/BNav_EC2/DepthDuration/v2_depth_duration_MTurk/v2_DepthDuration_HTML.html#222,222,1517,730,1366,768,9-4-2022,11-33-6,96,depth_duration_stimuli/001150_2014-06-17_15-27-34_260595134347_rgbf000108-resize_2/001150_2014-06-17_15-27-34_260595134347_rgbf000108-resize_2-target.png,125,4.0325,5,3628,125,meters,jsons/VE125_randls_40_rotated.json,1474943,1971184,38,Woman
96,971887,DepthScenes,duration_manipulation_targetAtFixation,jsons/VE125_randls_40_rotated.json,http://54.235.29.9/FacialAge/BNav_EC2/DepthDuration/v2_depth_duration_MTurk/v2_DepthDuration_HTML.html#222,222,1517,730,1366,768,9-4-2022,11-33-6,97,depth_duration_stimuli/000635_2014-06-08_16-38-42_260595134347_rgbf000106-resize_1/000635_2014-06-08_16-38-42_260595134347_rgbf000106-resize_1-target.png,125,2.074,3,5495,124,meters,jsons/VE125_randls_40_rotated.json,1474943,1971184,38,Woman
97,971887,DepthScenes,duration_manipulation_targetAtFixation,jsons/VE125_randls_40_rotated.json,http://54.235.29.9/FacialAge/BNav_EC2/DepthDuration/v2_depth_duration_MTurk/v2_DepthDuration_HTML.html#222,222,1517,730,1366,768,9-4-2022,11-33-6,98,depth_duration_stimuli/002279_2014-06-28_18-55-32_260595134347_rgbf000040-resize_5/002279_2014-06-28_18-55-32_260595134347_rgbf000040-resize_5-target.png,125,1.5043333333333,6,5166,124,meters,jsons/VE125_randls_40_rotated.json,1474943,1971184,38,Woman
98,971887,DepthScenes,duration_manipulation_targetAtFixation,jsons/VE125_randls_40_rotated.json,http://54.235.29.9/FacialAge/BNav_EC2/DepthDuration/v2_depth_duration_MTurk/v2_DepthDuration_HTML.html#222,222,1517,730,1366,768,9-4-2022,11-33-6,99,depth_duration_stimuli/001222_2014-06-17_16-24-06_260595134347_rgbf000073-resize_0/001222_2014-06-17_16-24-06_260595134347_rgbf000073-resize-original.jpg,125,1.4385,4,8830,126,meters,jsons/VE125_randls_40_rotated.json,1474943,1971184,38,Woman
99,971887,DepthScenes,duration_manipulation_targetAtFixation,jsons/VE125_randls_40_rotated.json,http://54.235.29.9/FacialAge/BNav_EC2/DepthDuration/v2_depth_duration_MTurk/v2_DepthDuration_HTML.html#222,222,1517,730,1366,768,9-4-2022,11-33-6,100,depth_duration_stimuli/001392_2014-06-19_16-07-59_260595134347_rgbf000046-resize_1/001392_2014-06-19_16-07-59_260595134347_rgbf000046-resize_1-target.png,125,4.135,3,6031,125,meters,jsons/VE125_randls_40_rotated.json,1474943,1971184,38,Woman
100,971887,DepthScenes,duration_manipulation_targetAtFixation,jsons/VE125_randls_40_rotated.json,http://54.235.29.9/FacialAge/BNav_EC2/DepthDuration/v2_depth_duration_MTurk/v2_DepthDuration_HTML.html#222,222,1517,730,1366,768,9-4-2022,11-33-6,101,depth_duration_stimuli/001570_2014-06-20_17-21-09_260595134347_rgbf000135-resize_4/001570_2014-06-20_17-21-09_260595134347_rgbf000135-resize_4-target.png,125,4.467,14,5131,124,meters,jsons/VE125_randls_40_rotated.json,1474943,1971184,38,Woman
101,971887,DepthScenes,duration_manipulation_targetAtFixation,jsons/VE125_randls_40_rotated.json,http://54.235.29.9/FacialAge/BNav_EC2/DepthDuration/v2_depth_duration_MTurk/v2_DepthDuration_HTML.html#222,222,1517,730,1366,768,9-4-2022,11-33-6,102,depth_duration_stimuli/001650_2014-06-20_12-09-00_260595134347_rgbf000087-resize_3/001650_2014-06-20_12-09-00_260595134347_rgbf000087-resize_3-target.png,125,1.9505,8,4682,124,meters,jsons/VE125_randls_40_rotated.json,1474943,1971184,38,Woman
102,971887,DepthScenes,duration_manipulation_targetAtFixation,jsons/VE125_randls_40_rotated.json,http://54.235.29.9/FacialAge/BNav_EC2/DepthDuration/v2_depth_duration_MTurk/v2_DepthDuration_HTML.html#222,222,1517,730,1366,768,9-4-2022,11-33-6,103,depth_duration_stimuli/000682_2014-06-08_23-14-58_260595134347_rgbf000041-resize_5/000682_2014-06-08_23-14-58_260595134347_rgbf000041-resize_5-target.png,125,2.7239999999999998,6,4140,124,meters,jsons/VE125_randls_40_rotated.json,1474943,1971184,38,Woman
103,971887,DepthScenes,duration_manipulation_targetAtFixation,jsons/VE125_randls_40_rotated.json,http://54.235.29.9/FacialAge/BNav_EC2/DepthDuration/v2_depth_duration_MTurk/v2_DepthDuration_HTML.html#222,222,1517,730,1366,768,9-4-2022,11-33-6,104,depth_duration_stimuli/002209_2014-06-28_18-36-10_260595134347_rgbf000051-resize_1/002209_2014-06-28_18-36-10_260595134347_rgbf000051-resize_1-target.png,125,2.057,10,12848,124,meters,jsons/VE125_randls_40_rotated.json,1474943,1971184,38,Woman
104,971887,DepthScenes,duration_manipulation_targetAtFixation,jsons/VE125_randls_40_rotated.json,http://54.235.29.9/FacialAge/BNav_EC2/DepthDuration/v2_depth_duration_MTurk/v2_DepthDuration_HTML.html#222,222,1517,730,1366,768,9-4-2022,11-33-6,105,depth_duration_stimuli/002763_2014-06-22_19-13-10_094959634447_rgbf000075-resize_4/002763_2014-06-22_19-13-10_094959634447_rgbf000075-resize_4-target.png,125,1.68375,5,5321,125,meters,jsons/VE125_randls_40_rotated.json,1474943,1971184,38,Woman
105,971887,DepthScenes,duration_manipulation_targetAtFixation,jsons/VE125_randls_40_rotated.json,http://54.235.29.9/FacialAge/BNav_EC2/DepthDuration/v2_depth_duration_MTurk/v2_DepthDuration_HTML.html#222,222,1517,730,1366,768,9-4-2022,11-33-6,106,depth_duration_stimuli/001571_2014-06-20_17-21-32_260595134347_rgbf000089-resize_1/001571_2014-06-20_17-21-32_260595134347_rgbf000089-resize_1-target.png,125,1.86,5,153739,441,meters,jsons/VE125_randls_40_rotated.json,1474943,1971184,38,Woman
106,971887,DepthScenes,duration_manipulation_targetAtFixation,jsons/VE125_randls_40_rotated.json,http://54.235.29.9/FacialAge/BNav_EC2/DepthDuration/v2_depth_duration_MTurk/v2_DepthDuration_HTML.html#222,222,1517,730,1366,768,9-4-2022,11-33-6,107,depth_duration_stimuli/002272_2014-06-28_18-53-56_260595134347_rgbf000067-resize_2/002272_2014-06-28_18-53-56_260595134347_rgbf000067-resize_2-target.png,125,1.138,6,42878,0,meters,jsons/VE125_randls_40_rotated.json,1474943,1971184,38,Woman
107,971887,DepthScenes,duration_manipulation_targetAtFixation,jsons/VE125_randls_40_rotated.json,http://54.235.29.9/FacialAge/BNav_EC2/DepthDuration/v2_depth_duration_MTurk/v2_DepthDuration_HTML.html#222,222,1517,730,1366,768,9-4-2022,11-33-6,108,depth_duration_stimuli/003048_2014-06-15_13-49-43_094959634447_rgbf000150-resize_1/003048_2014-06-15_13-49-43_094959634447_rgbf000150-resize_1-target.png,125,4.0035,6,4629,124,meters,jsons/VE125_randls_40_rotated.json,1474943,1971184,38,Woman
108,971887,DepthScenes,duration_manipulation_targetAtFixation,jsons/VE125_randls_40_rotated.json,http://54.235.29.9/FacialAge/BNav_EC2/DepthDuration/v2_depth_duration_MTurk/v2_DepthDuration_HTML.html#222,222,1517,730,1366,768,9-4-2022,11-33-6,109,depth_duration_stimuli/002043_2014-06-24_20-29-38_260595134347_rgbf000039-resize_4/002043_2014-06-24_20-29-38_260595134347_rgbf000039-resize_4-target.png,125,2.8435,8,4210,124,meters,jsons/VE125_randls_40_rotated.json,1474943,1971184,38,Woman
109,971887,DepthScenes,duration_manipulation_targetAtFixation,jsons/VE125_randls_40_rotated.json,http://54.235.29.9/FacialAge/BNav_EC2/DepthDuration/v2_depth_duration_MTurk/v2_DepthDuration_HTML.html#222,222,1517,730,1366,768,9-4-2022,11-33-6,110,depth_duration_stimuli/003129_2014-05-12_10-48-10_094959634447_rgbf000100-resize_0/003129_2014-05-12_10-48-10_094959634447_rgbf000100-resize_0-target.png,125,4.9305,7,4470,125,meters,jsons/VE125_randls_40_rotated.json,1474943,1971184,38,Woman
110,971887,DepthScenes,duration_manipulation_targetAtFixation,jsons/VE125_randls_40_rotated.json,http://54.235.29.9/FacialAge/BNav_EC2/DepthDuration/v2_depth_duration_MTurk/v2_DepthDuration_HTML.html#222,222,1517,730,1366,768,9-4-2022,11-33-6,111,depth_duration_stimuli/000414_2014-06-04_19-49-13_260595134347_rgbf000044-resize_0/000414_2014-06-04_19-49-13_260595134347_rgbf000044-resize_0-target.png,125,4.329,5,4177,123,meters,jsons/VE125_randls_40_rotated.json,1474943,1971184,38,Woman
111,971887,DepthScenes,duration_manipulation_targetAtFixation,jsons/VE125_randls_40_rotated.json,http://54.235.29.9/FacialAge/BNav_EC2/DepthDuration/v2_depth_duration_MTurk/v2_DepthDuration_HTML.html#222,222,1517,730,1366,768,9-4-2022,11-33-6,112,depth_duration_stimuli/002344_2014-06-28_20-06-29_260595134347_rgbf000030-resize_1/002344_2014-06-28_20-06-29_260595134347_rgbf000030-resize_1-target.png,125,1.5795,8,4550,124,meters,jsons/VE125_randls_40_rotated.json,1474943,1971184,38,Woman
112,971887,DepthScenes,duration_manipulation_targetAtFixation,jsons/VE125_randls_40_rotated.json,http://54.235.29.9/FacialAge/BNav_EC2/DepthDuration/v2_depth_duration_MTurk/v2_DepthDuration_HTML.html#222,222,1517,730,1366,768,9-4-2022,11-33-6,113,depth_duration_stimuli/002725_2014-06-22_11-47-51_094959634447_rgbf000070-resize_1/002725_2014-06-22_11-47-51_094959634447_rgbf000070-resize_1-target.png,125,2.195,2,4274,124,meters,jsons/VE125_randls_40_rotated.json,1474943,1971184,38,Woman
113,971887,DepthScenes,duration_manipulation_targetAtFixation,jsons/VE125_randls_40_rotated.json,http://54.235.29.9/FacialAge/BNav_EC2/DepthDuration/v2_depth_duration_MTurk/v2_DepthDuration_HTML.html#222,222,1517,730,1366,768,9-4-2022,11-33-6,114,depth_duration_stimuli/000556_2014-06-09_22-42-56_260595134347_rgbf000214-resize_1/000556_2014-06-09_22-42-56_260595134347_rgbf000214-resize_1-target.png,125,4.8415,8,5192,124,meters,jsons/VE125_randls_40_rotated.json,1474943,1971184,38,Woman
114,971887,DepthScenes,duration_manipulation_targetAtFixation,jsons/VE125_randls_40_rotated.json,http://54.235.29.9/FacialAge/BNav_EC2/DepthDuration/v2_depth_duration_MTurk/v2_DepthDuration_HTML.html#222,222,1517,730,1366,768,9-4-2022,11-33-6,115,depth_duration_stimuli/001158_2014-06-17_15-32-16_260595134347_rgbf000138-resize_2/001158_2014-06-17_15-32-16_260595134347_rgbf000138-resize_2-target.png,125,4.5315,4,5289,125,meters,jsons/VE125_randls_40_rotated.json,1474943,1971184,38,Woman
115,971887,DepthScenes,duration_manipulation_targetAtFixation,jsons/VE125_randls_40_rotated.json,http://54.235.29.9/FacialAge/BNav_EC2/DepthDuration/v2_depth_duration_MTurk/v2_DepthDuration_HTML.html#222,222,1517,730,1366,768,9-4-2022,11-33-6,116,depth_duration_stimuli/000103_2014-05-14_22-01-17_260595134347_rgbf000152-resize_5/000103_2014-05-14_22-01-17_260595134347_rgbf000152-resize_5-target.png,125,1.993,3,4643,124,meters,jsons/VE125_randls_40_rotated.json,1474943,1971184,38,Woman
116,971887,DepthScenes,duration_manipulation_targetAtFixation,jsons/VE125_randls_40_rotated.json,http://54.235.29.9/FacialAge/BNav_EC2/DepthDuration/v2_depth_duration_MTurk/v2_DepthDuration_HTML.html#222,222,1517,730,1366,768,9-4-2022,11-33-6,117,depth_duration_stimuli/001555_2014-06-20_17-12-10_260595134347_rgbf000065-resize_4/001555_2014-06-20_17-12-10_260595134347_rgbf000065-resize_4-target.png,125,1.633,8,4628,126,meters,jsons/VE125_randls_40_rotated.json,1474943,1971184,38,Woman
117,971887,DepthScenes,duration_manipulation_targetAtFixation,jsons/VE125_randls_40_rotated.json,http://54.235.29.9/FacialAge/BNav_EC2/DepthDuration/v2_depth_duration_MTurk/v2_DepthDuration_HTML.html#222,222,1517,730,1366,768,9-4-2022,11-33-6,118,depth_duration_stimuli/001136_2014-06-17_15-19-41_260595134347_rgbf000076-resize_3/001136_2014-06-17_15-19-41_260595134347_rgbf000076-resize_3-target.png,125,1.8655,4,4735,126,meters,jsons/VE125_randls_40_rotated.json,1474943,1971184,38,Woman
118,971887,DepthScenes,duration_manipulation_targetAtFixation,jsons/VE125_randls_40_rotated.json,http://54.235.29.9/FacialAge/BNav_EC2/DepthDuration/v2_depth_duration_MTurk/v2_DepthDuration_HTML.html#222,222,1517,730,1366,768,9-4-2022,11-33-6,119,depth_duration_stimuli/001164_2014-06-17_15-35-46_260595134347_rgbf000085-resize_3/001164_2014-06-17_15-35-46_260595134347_rgbf000085-resize_3-target.png,125,2.354,10,5888,125,meters,jsons/VE125_randls_40_rotated.json,1474943,1971184,38,Woman
119,971887,DepthScenes,duration_manipulation_targetAtFixation,jsons/VE125_randls_40_rotated.json,http://54.235.29.9/FacialAge/BNav_EC2/DepthDuration/v2_depth_duration_MTurk/v2_DepthDuration_HTML.html#222,222,1517,730,1366,768,9-4-2022,11-33-6,120,depth_duration_stimuli/000787_2014-06-08_22-33-53_260595134347_rgbf000175-resize_1/000787_2014-06-08_22-33-53_260595134347_rgbf000175-resize-original.jpg,125,4.784,5,4444,125,meters,jsons/VE125_randls_40_rotated.json,1474943,1971184,38,Woman
120,971887,DepthScenes,duration_manipulation_targetAtFixation,jsons/VE125_randls_40_rotated.json,http://54.235.29.9/FacialAge/BNav_EC2/DepthDuration/v2_depth_duration_MTurk/v2_DepthDuration_HTML.html#222,222,1517,730,1366,768,9-4-2022,11-33-6,121,depth_duration_stimuli/001447_2014-06-19_17-00-32_260595134347_rgbf000082-resize_5/001447_2014-06-19_17-00-32_260595134347_rgbf000082-resize_5-target.png,125,4.13775,7,4433,124,meters,jsons/VE125_randls_40_rotated.json,1474943,1971184,38,Woman
121,971887,DepthScenes,duration_manipulation_targetAtFixation,jsons/VE125_randls_40_rotated.json,http://54.235.29.9/FacialAge/BNav_EC2/DepthDuration/v2_depth_duration_MTurk/v2_DepthDuration_HTML.html#222,222,1517,730,1366,768,9-4-2022,11-33-6,122,depth_duration_stimuli/000447_2014-06-08_16-15-46_260595134347_rgbf000130-resize_1/000447_2014-06-08_16-15-46_260595134347_rgbf000130-resize_1-target.png,125,4.479,9,5520,124,meters,jsons/VE125_randls_40_rotated.json,1474943,1971184,38,Woman
122,971887,DepthScenes,duration_manipulation_targetAtFixation,jsons/VE125_randls_40_rotated.json,http://54.235.29.9/FacialAge/BNav_EC2/DepthDuration/v2_depth_duration_MTurk/v2_DepthDuration_HTML.html#222,222,1517,730,1366,768,9-4-2022,11-33-6,123,depth_duration_stimuli/001815_2014-06-26_20-52-55_260595134347_rgbf000020-resize_0/001815_2014-06-26_20-52-55_260595134347_rgbf000020-resize_0-target.png,125,3.3865,2,4446,126,meters,jsons/VE125_randls_40_rotated.json,1474943,1971184,38,Woman
123,971887,DepthScenes,duration_manipulation_targetAtFixation,jsons/VE125_randls_40_rotated.json,http://54.235.29.9/FacialAge/BNav_EC2/DepthDuration/v2_depth_duration_MTurk/v2_DepthDuration_HTML.html#222,222,1517,730,1366,768,9-4-2022,11-33-6,124,depth_duration_stimuli/001808_2014-06-26_20-50-58_260595134347_rgbf000029-resize_1/001808_2014-06-26_20-50-58_260595134347_rgbf000029-resize_1-target.png,125,4.249,4,3781,125,meters,jsons/VE125_randls_40_rotated.json,1474943,1971184,38,Woman
124,971887,DepthScenes,duration_manipulation_targetAtFixation,jsons/VE125_randls_40_rotated.json,http://54.235.29.9/FacialAge/BNav_EC2/DepthDuration/v2_depth_duration_MTurk/v2_DepthDuration_HTML.html#222,222,1517,730,1366,768,9-4-2022,11-33-6,125,depth_duration_stimuli/000866_2014-06-09_20-45-42_260595134347_rgbf000139-resize_1/000866_2014-06-09_20-45-42_260595134347_rgbf000139-resize_1-target.png,125,3.2155,3,4391,126,meters,jsons/VE125_randls_40_rotated.json,1474943,1971184,38,Woman
125,971887,DepthScenes,duration_manipulation_targetAtFixation,jsons/VE125_randls_40_rotated.json,http://54.235.29.9/FacialAge/BNav_EC2/DepthDuration/v2_depth_duration_MTurk/v2_DepthDuration_HTML.html#222,222,1517,730,1366,768,9-4-2022,11-33-6,126,depth_duration_stimuli/002989_2014-06-15_12-25-03_094959634447_rgbf000150-resize_3/002989_2014-06-15_12-25-03_094959634447_rgbf000150-resize_3-target.png,125,4.1975,4,4074,125,meters,jsons/VE125_randls_40_rotated.json,1474943,1971184,38,Woman
126,971887,DepthScenes,duration_manipulation_targetAtFixation,jsons/VE125_randls_40_rotated.json,http://54.235.29.9/FacialAge/BNav_EC2/DepthDuration/v2_depth_duration_MTurk/v2_DepthDuration_HTML.html#222,222,1517,730,1366,768,9-4-2022,11-33-6,127,depth_duration_stimuli/003490_2014-05-21_15-50-11_094959634447_rgbf000101-resize_3/003490_2014-05-21_15-50-11_094959634447_rgbf000101-resize_3-target.png,125,3.6445,8,10699,125,meters,jsons/VE125_randls_40_rotated.json,1474943,1971184,38,Woman
127,971887,DepthScenes,duration_manipulation_targetAtFixation,jsons/VE125_randls_40_rotated.json,http://54.235.29.9/FacialAge/BNav_EC2/DepthDuration/v2_depth_duration_MTurk/v2_DepthDuration_HTML.html#222,222,1517,730,1366,768,9-4-2022,11-33-6,128,depth_duration_stimuli/001175_2014-06-17_15-45-55_260595134347_rgbf000129-resize_4/001175_2014-06-17_15-45-55_260595134347_rgbf000129-resize_4-target.png,125,4.255,5,177701,125,meters,jsons/VE125_randls_40_rotated.json,1474943,1971184,38,Woman
128,971887,DepthScenes,duration_manipulation_targetAtFixation,jsons/VE125_randls_40_rotated.json,http://54.235.29.9/FacialAge/BNav_EC2/DepthDuration/v2_depth_duration_MTurk/v2_DepthDuration_HTML.html#222,222,1517,730,1366,768,9-4-2022,11-33-6,129,depth_duration_stimuli/001516_2014-06-20_16-25-09_260595134347_rgbf000076-resize_2/001516_2014-06-20_16-25-09_260595134347_rgbf000076-resize_2-target.png,125,1.7445,15,3741,124,meters,jsons/VE125_randls_40_rotated.json,1474943,1971184,38,Woman
129,971887,DepthScenes,duration_manipulation_targetAtFixation,jsons/VE125_randls_40_rotated.json,http://54.235.29.9/FacialAge/BNav_EC2/DepthDuration/v2_depth_duration_MTurk/v2_DepthDuration_HTML.html#222,222,1517,730,1366,768,9-4-2022,11-33-6,130,depth_duration_stimuli/002118_2014-06-25_20-32-08_260595134347_rgbf000078-resize_1/002118_2014-06-25_20-32-08_260595134347_rgbf000078-resize_1-target.png,125,2.6460000000000004,6,3031,124,meters,jsons/VE125_randls_40_rotated.json,1474943,1971184,38,Woman
130,971887,DepthScenes,duration_manipulation_targetAtFixation,jsons/VE125_randls_40_rotated.json,http://54.235.29.9/FacialAge/BNav_EC2/DepthDuration/v2_depth_duration_MTurk/v2_DepthDuration_HTML.html#222,222,1517,730,1366,768,9-4-2022,11-33-6,131,depth_duration_stimuli/000677_2014-06-08_23-10-32_260595134347_rgbf000158-resize_6/000677_2014-06-08_23-10-32_260595134347_rgbf000158-resize_6-target.png,125,3.556,7,3426,124,meters,jsons/VE125_randls_40_rotated.json,1474943,1971184,38,Woman
131,971887,DepthScenes,duration_manipulation_targetAtFixation,jsons/VE125_randls_40_rotated.json,http://54.235.29.9/FacialAge/BNav_EC2/DepthDuration/v2_depth_duration_MTurk/v2_DepthDuration_HTML.html#222,222,1517,730,1366,768,9-4-2022,11-33-6,132,depth_duration_stimuli/001029_2014-06-08_13-17-57_260595134347_rgbf000065-resize_1/001029_2014-06-08_13-17-57_260595134347_rgbf000065-resize_1-target.png,125,3.0835,9,3289,124,meters,jsons/VE125_randls_40_rotated.json,1474943,1971184,38,Woman
132,971887,DepthScenes,duration_manipulation_targetAtFixation,jsons/VE125_randls_40_rotated.json,http://54.235.29.9/FacialAge/BNav_EC2/DepthDuration/v2_depth_duration_MTurk/v2_DepthDuration_HTML.html#222,222,1517,730,1366,768,9-4-2022,11-33-6,133,depth_duration_stimuli/001584_2014-06-20_11-07-43_260595134347_rgbf000002-resize_1/001584_2014-06-20_11-07-43_260595134347_rgbf000002-resize_1-target.png,125,3.53,8,3933,124,meters,jsons/VE125_randls_40_rotated.json,1474943,1971184,38,Woman
133,971887,DepthScenes,duration_manipulation_targetAtFixation,jsons/VE125_randls_40_rotated.json,http://54.235.29.9/FacialAge/BNav_EC2/DepthDuration/v2_depth_duration_MTurk/v2_DepthDuration_HTML.html#222,222,1517,730,1366,768,9-4-2022,11-33-6,134,depth_duration_stimuli/003621_2014-05-23_18-06-08_094959634447_rgbf000101-resize_1/003621_2014-05-23_18-06-08_094959634447_rgbf000101-resize_1-target.png,125,3.9835,6,4250,124,meters,jsons/VE125_randls_40_rotated.json,1474943,1971184,38,Woman
134,971887,DepthScenes,duration_manipulation_targetAtFixation,jsons/VE125_randls_40_rotated.json,http://54.235.29.9/FacialAge/BNav_EC2/DepthDuration/v2_depth_duration_MTurk/v2_DepthDuration_HTML.html#222,222,1517,730,1366,768,9-4-2022,11-33-6,135,depth_duration_stimuli/000375_2014-06-08_11-17-29_260595134347_rgbf000133-resize_2/000375_2014-06-08_11-17-29_260595134347_rgbf000133-resize-original.jpg,125,4.718,7,3529,125,meters,jsons/VE125_randls_40_rotated.json,1474943,1971184,38,Woman
135,971887,DepthScenes,duration_manipulation_targetAtFixation,jsons/VE125_randls_40_rotated.json,http://54.235.29.9/FacialAge/BNav_EC2/DepthDuration/v2_depth_duration_MTurk/v2_DepthDuration_HTML.html#222,222,1517,730,1366,768,9-4-2022,11-33-6,136,depth_duration_stimuli/002639_2014-06-24_14-51-37_094959634447_rgbf000074-resize_4/002639_2014-06-24_14-51-37_094959634447_rgbf000074-resize_4-target.png,125,4.0375,13,4455,125,meters,jsons/VE125_randls_40_rotated.json,1474943,1971184,38,Woman
136,971887,DepthScenes,duration_manipulation_targetAtFixation,jsons/VE125_randls_40_rotated.json,http://54.235.29.9/FacialAge/BNav_EC2/DepthDuration/v2_depth_duration_MTurk/v2_DepthDuration_HTML.html#222,222,1517,730,1366,768,9-4-2022,11-33-6,137,depth_duration_stimuli/003292_2014-05-14_21-53-49_094959634447_rgbf000100-resize_2/003292_2014-05-14_21-53-49_094959634447_rgbf000100-resize_2-target.png,125,3.4815,4,3613,126,meters,jsons/VE125_randls_40_rotated.json,1474943,1971184,38,Woman
137,971887,DepthScenes,duration_manipulation_targetAtFixation,jsons/VE125_randls_40_rotated.json,http://54.235.29.9/FacialAge/BNav_EC2/DepthDuration/v2_depth_duration_MTurk/v2_DepthDuration_HTML.html#222,222,1517,730,1366,768,9-4-2022,11-33-6,138,depth_duration_stimuli/000854_2014-06-09_19-43-13_260595134347_rgbf000066-resize_0/000854_2014-06-09_19-43-13_260595134347_rgbf000066-resize_0-target.png,125,3.068,8,57574,125,meters,jsons/VE125_randls_40_rotated.json,1474943,1971184,38,Woman
138,971887,DepthScenes,duration_manipulation_targetAtFixation,jsons/VE125_randls_40_rotated.json,http://54.235.29.9/FacialAge/BNav_EC2/DepthDuration/v2_depth_duration_MTurk/v2_DepthDuration_HTML.html#222,222,1517,730,1366,768,9-4-2022,11-33-6,139,depth_duration_stimuli/000758_2014-06-08_22-05-08_260595134347_rgbf000085-resize_0/000758_2014-06-08_22-05-08_260595134347_rgbf000085-resize_0-target.png,125,3.3810000000000002,17,4156,124,meters,jsons/VE125_randls_40_rotated.json,1474943,1971184,38,Woman
139,971887,DepthScenes,duration_manipulation_targetAtFixation,jsons/VE125_randls_40_rotated.json,http://54.235.29.9/FacialAge/BNav_EC2/DepthDuration/v2_depth_duration_MTurk/v2_DepthDuration_HTML.html#222,222,1517,730,1366,768,9-4-2022,11-33-6,140,depth_duration_stimuli/000409_2014-06-04_19-23-33_260595134347_rgbf000067-resize_0/000409_2014-06-04_19-23-33_260595134347_rgbf000067-resize_0-target.png,125,3.7335,6,3764,124,meters,jsons/VE125_randls_40_rotated.json,1474943,1971184,38,Woman
140,971887,DepthScenes,duration_manipulation_targetAtFixation,jsons/VE125_randls_40_rotated.json,http://54.235.29.9/FacialAge/BNav_EC2/DepthDuration/v2_depth_duration_MTurk/v2_DepthDuration_HTML.html#222,222,1517,730,1366,768,9-4-2022,11-33-6,141,depth_duration_stimuli/002663_2014-06-13_15-50-26_094959634447_rgbf000075-resize_1/002663_2014-06-13_15-50-26_094959634447_rgbf000075-resize_1-target.png,125,4.7495,8,4031,125,meters,jsons/VE125_randls_40_rotated.json,1474943,1971184,38,Woman
141,971887,DepthScenes,duration_manipulation_targetAtFixation,jsons/VE125_randls_40_rotated.json,http://54.235.29.9/FacialAge/BNav_EC2/DepthDuration/v2_depth_duration_MTurk/v2_DepthDuration_HTML.html#222,222,1517,730,1366,768,9-4-2022,11-33-6,142,depth_duration_stimuli/002323_2014-06-28_20-01-54_260595134347_rgbf000051-resize_4/002323_2014-06-28_20-01-54_260595134347_rgbf000051-resize_4-target.png,125,3.7310000000000003,2,2698,126,meters,jsons/VE125_randls_40_rotated.json,1474943,1971184,38,Woman
142,971887,DepthScenes,duration_manipulation_targetAtFixation,jsons/VE125_randls_40_rotated.json,http://54.235.29.9/FacialAge/BNav_EC2/DepthDuration/v2_depth_duration_MTurk/v2_DepthDuration_HTML.html#222,222,1517,730,1366,768,9-4-2022,11-33-6,143,depth_duration_stimuli/000917_2014-06-09_22-45-29_260595134347_rgbf000149-resize_3/000917_2014-06-09_22-45-29_260595134347_rgbf000149-resize_3-target.png,125,4.1865,4,15545,125,meters,jsons/VE125_randls_40_rotated.json,1474943,1971184,38,Woman
143,971887,DepthScenes,duration_manipulation_targetAtFixation,jsons/VE125_randls_40_rotated.json,http://54.235.29.9/FacialAge/BNav_EC2/DepthDuration/v2_depth_duration_MTurk/v2_DepthDuration_HTML.html#222,222,1517,730,1366,768,9-4-2022,11-33-6,144,depth_duration_stimuli/002995_2014-06-15_12-31-26_094959634447_rgbf000150-resize_1/002995_2014-06-15_12-31-26_094959634447_rgbf000150-resize_1-target.png,125,3.8360000000000003,7,3595,125,meters,jsons/VE125_randls_40_rotated.json,1474943,1971184,38,Woman
144,971887,DepthScenes,duration_manipulation_targetAtFixation,jsons/VE125_randls_40_rotated.json,http://54.235.29.9/FacialAge/BNav_EC2/DepthDuration/v2_depth_duration_MTurk/v2_DepthDuration_HTML.html#222,222,1517,730,1366,768,9-4-2022,11-33-6,145,depth_duration_stimuli/002748_2014-06-22_19-07-22_094959634447_rgbf000078-resize_1/002748_2014-06-22_19-07-22_094959634447_rgbf000078-resize_1-target.png,125,4.6705,1,3282,125,meters,jsons/VE125_randls_40_rotated.json,1474943,1971184,38,Woman
145,971887,DepthScenes,duration_manipulation_targetAtFixation,jsons/VE125_randls_40_rotated.json,http://54.235.29.9/FacialAge/BNav_EC2/DepthDuration/v2_depth_duration_MTurk/v2_DepthDuration_HTML.html#222,222,1517,730,1366,768,9-4-2022,11-33-6,146,depth_duration_stimuli/002414_2014-06-28_20-24-58_260595134347_rgbf000067-resize_4/002414_2014-06-28_20-24-58_260595134347_rgbf000067-resize_4-target.png,125,4.363,4,3199,125,meters,jsons/VE125_randls_40_rotated.json,1474943,1971184,38,Woman
146,971887,DepthScenes,duration_manipulation_targetAtFixation,jsons/VE125_randls_40_rotated.json,http://54.235.29.9/FacialAge/BNav_EC2/DepthDuration/v2_depth_duration_MTurk/v2_DepthDuration_HTML.html#222,222,1517,730,1366,768,9-4-2022,11-33-6,147,depth_duration_stimuli/000773_2014-06-08_22-24-54_260595134347_rgbf000093-resize_1/000773_2014-06-08_22-24-54_260595134347_rgbf000093-resize_1-target.png,125,4.973,7,2825,125,meters,jsons/VE125_randls_40_rotated.json,1474943,1971184,38,Woman
147,971887,DepthScenes,duration_manipulation_targetAtFixation,jsons/VE125_randls_40_rotated.json,http://54.235.29.9/FacialAge/BNav_EC2/DepthDuration/v2_depth_duration_MTurk/v2_DepthDuration_HTML.html#222,222,1517,730,1366,768,9-4-2022,11-33-6,148,depth_duration_stimuli/001450_2014-06-19_17-02-03_260595134347_rgbf000203-resize_4/001450_2014-06-19_17-02-03_260595134347_rgbf000203-resize_4-target.png,125,4.0106666666667,2,3000,125,meters,jsons/VE125_randls_40_rotated.json,1474943,1971184,38,Woman
148,971887,DepthScenes,duration_manipulation_targetAtFixation,jsons/VE125_randls_40_rotated.json,http://54.235.29.9/FacialAge/BNav_EC2/DepthDuration/v2_depth_duration_MTurk/v2_DepthDuration_HTML.html#222,222,1517,730,1366,768,9-4-2022,11-33-6,149,depth_duration_stimuli/001449_2014-06-19_17-01-27_260595134347_rgbf000116-resize_2/001449_2014-06-19_17-01-27_260595134347_rgbf000116-resize_2-target.png,125,3.452,5,3477,125,meters,jsons/VE125_randls_40_rotated.json,1474943,1971184,38,Woman
149,971887,DepthScenes,duration_manipulation_targetAtFixation,jsons/VE125_randls_40_rotated.json,http://54.235.29.9/FacialAge/BNav_EC2/DepthDuration/v2_depth_duration_MTurk/v2_DepthDuration_HTML.html#222,222,1517,730,1366,768,9-4-2022,11-33-6,150,depth_duration_stimuli/002657_2014-06-13_15-29-54_094959634447_rgbf000150-resize_1/002657_2014-06-13_15-29-54_094959634447_rgbf000150-resize_1-target.png,125,4.919,8,2894,124,meters,jsons/VE125_randls_40_rotated.json,1474943,1971184,38,Woman
150,971887,DepthScenes,duration_manipulation_targetAtFixation,jsons/VE125_randls_40_rotated.json,http://54.235.29.9/FacialAge/BNav_EC2/DepthDuration/v2_depth_duration_MTurk/v2_DepthDuration_HTML.html#222,222,1517,730,1366,768,9-4-2022,11-33-6,151,depth_duration_stimuli/002375_2014-06-28_20-13-44_260595134347_rgbf000032-resize_1/002375_2014-06-28_20-13-44_260595134347_rgbf000032-resize_1-target.png,125,4.0175,3,2995,125,meters,jsons/VE125_randls_40_rotated.json,1474943,1971184,38,Woman
151,971887,DepthScenes,duration_manipulation_targetAtFixation,jsons/VE125_randls_40_rotated.json,http://54.235.29.9/FacialAge/BNav_EC2/DepthDuration/v2_depth_duration_MTurk/v2_DepthDuration_HTML.html#222,222,1517,730,1366,768,9-4-2022,11-33-6,152,depth_duration_stimuli/000569_2014-06-09_22-51-47_260595134347_rgbf000141-resize_3/000569_2014-06-09_22-51-47_260595134347_rgbf000141-resize-original.jpg,125,4.512,6,3046,124,meters,jsons/VE125_randls_40_rotated.json,1474943,1971184,38,Woman
152,971887,DepthScenes,duration_manipulation_targetAtFixation,jsons/VE125_randls_40_rotated.json,http://54.235.29.9/FacialAge/BNav_EC2/DepthDuration/v2_depth_duration_MTurk/v2_DepthDuration_HTML.html#222,222,1517,730,1366,768,9-4-2022,11-33-6,153,depth_duration_stimuli/002875_2014-06-01_15-19-00_094959634447_rgbf000151-resize_1/002875_2014-06-01_15-19-00_094959634447_rgbf000151-resize_1-target.png,125,1.9675,9,3023,124,meters,jsons/VE125_randls_40_rotated.json,1474943,1971184,38,Woman
153,971887,DepthScenes,duration_manipulation_targetAtFixation,jsons/VE125_randls_40_rotated.json,http://54.235.29.9/FacialAge/BNav_EC2/DepthDuration/v2_depth_duration_MTurk/v2_DepthDuration_HTML.html#222,222,1517,730,1366,768,9-4-2022,11-33-6,154,depth_duration_stimuli/001011_2014-06-08_23-18-54_260595134347_rgbf000044-resize_4/001011_2014-06-08_23-18-54_260595134347_rgbf000044-resize_4-target.png,125,2.4730000000000003,1,3022,125,meters,jsons/VE125_randls_40_rotated.json,1474943,1971184,38,Woman
154,971887,DepthScenes,duration_manipulation_targetAtFixation,jsons/VE125_randls_40_rotated.json,http://54.235.29.9/FacialAge/BNav_EC2/DepthDuration/v2_depth_duration_MTurk/v2_DepthDuration_HTML.html#222,222,1517,730,1366,768,9-4-2022,11-33-6,155,depth_duration_stimuli/001828_2014-06-26_21-40-03_260595134347_rgbf000024-resize_0/001828_2014-06-26_21-40-03_260595134347_rgbf000024-resize_0-target.png,125,4.8260000000000005,5,3198,126,meters,jsons/VE125_randls_40_rotated.json,1474943,1971184,38,Woman
155,971887,DepthScenes,duration_manipulation_targetAtFixation,jsons/VE125_randls_40_rotated.json,http://54.235.29.9/FacialAge/BNav_EC2/DepthDuration/v2_depth_duration_MTurk/v2_DepthDuration_HTML.html#222,222,1517,730,1366,768,9-4-2022,11-33-6,156,depth_duration_stimuli/000009_2014-05-26_14-32-05_260595134347_rgbf000034-resize_3/000009_2014-05-26_14-32-05_260595134347_rgbf000034-resize_3-target.png,125,3.8715,9,3570,124,meters,jsons/VE125_randls_40_rotated.json,1474943,1971184,38,Woman
156,971887,DepthScenes,duration_manipulation_targetAtFixation,jsons/VE125_randls_40_rotated.json,http://54.235.29.9/FacialAge/BNav_EC2/DepthDuration/v2_depth_duration_MTurk/v2_DepthDuration_HTML.html#222,222,1517,730,1366,768,9-4-2022,11-33-6,157,depth_duration_stimuli/000483_2014-06-09_20-41-45_260595134347_rgbf000116-resize_4/000483_2014-06-09_20-41-45_260595134347_rgbf000116-resize_4-target.png,125,1.337,6,27943,125,meters,jsons/VE125_randls_40_rotated.json,1474943,1971184,38,Woman
157,971887,DepthScenes,duration_manipulation_targetAtFixation,jsons/VE125_randls_40_rotated.json,http://54.235.29.9/FacialAge/BNav_EC2/DepthDuration/v2_depth_duration_MTurk/v2_DepthDuration_HTML.html#222,222,1517,730,1366,768,9-4-2022,11-33-6,158,depth_duration_stimuli/000469_2014-06-09_19-42-10_260595134347_rgbf000081-resize_1/000469_2014-06-09_19-42-10_260595134347_rgbf000081-resize_1-target.png,125,1.652,8,4509,125,meters,jsons/VE125_randls_40_rotated.json,1474943,1971184,38,Woman
158,971887,DepthScenes,duration_manipulation_targetAtFixation,jsons/VE125_randls_40_rotated.json,http://54.235.29.9/FacialAge/BNav_EC2/DepthDuration/v2_depth_duration_MTurk/v2_DepthDuration_HTML.html#222,222,1517,730,1366,768,9-4-2022,11-33-6,159,depth_duration_stimuli/000109_2014-05-14_23-41-52_260595134347_rgbf000035-resize_9/000109_2014-05-14_23-41-52_260595134347_rgbf000035-resize_9-target.png,125,1.3545,5,3806,124,meters,jsons/VE125_randls_40_rotated.json,1474943,1971184,38,Woman
159,971887,DepthScenes,duration_manipulation_targetAtFixation,jsons/VE125_randls_40_rotated.json,http://54.235.29.9/FacialAge/BNav_EC2/DepthDuration/v2_depth_duration_MTurk/v2_DepthDuration_HTML.html#222,222,1517,730,1366,768,9-4-2022,11-33-6,160,depth_duration_stimuli/000470_2014-06-09_19-42-40_260595134347_rgbf000094-resize_1/000470_2014-06-09_19-42-40_260595134347_rgbf000094-resize_1-target.png,125,1.831,9,3581,125,meters,jsons/VE125_randls_40_rotated.json,1474943,1971184,38,Woman
160,971887,DepthScenes,duration_manipulation_targetAtFixation,jsons/VE125_randls_40_rotated.json,http://54.235.29.9/FacialAge/BNav_EC2/DepthDuration/v2_depth_duration_MTurk/v2_DepthDuration_HTML.html#222,222,1517,730,1366,768,9-4-2022,11-33-6,161,depth_duration_stimuli/003083_2014-06-15_15-21-03_094959634447_rgbf000063-resize_1/003083_2014-06-15_15-21-03_094959634447_rgbf000063-resize_1-target.png,125,4.1405,3,3068,125,meters,jsons/VE125_randls_40_rotated.json,1474943,1971184,38,Woman
161,971887,DepthScenes,duration_manipulation_targetAtFixation,jsons/VE125_randls_40_rotated.json,http://54.235.29.9/FacialAge/BNav_EC2/DepthDuration/v2_depth_duration_MTurk/v2_DepthDuration_HTML.html#222,222,1517,730,1366,768,9-4-2022,11-33-6,162,depth_duration_stimuli/000486_2014-06-09_20-47-20_260595134347_rgbf000143-resize_2/000486_2014-06-09_20-47-20_260595134347_rgbf000143-resize_2-target.png,125,4.8325,7,4032,125,meters,jsons/VE125_randls_40_rotated.json,1474943,1971184,38,Woman
162,971887,DepthScenes,duration_manipulation_targetAtFixation,jsons/VE125_randls_40_rotated.json,http://54.235.29.9/FacialAge/BNav_EC2/DepthDuration/v2_depth_duration_MTurk/v2_DepthDuration_HTML.html#222,222,1517,730,1366,768,9-4-2022,11-33-6,163,depth_duration_stimuli/000191_2014-05-12_17-07-38_260595134347_rgbf000199-resize_0/000191_2014-05-12_17-07-38_260595134347_rgbf000199-resize_0-target.png,125,3.7995,5,3914,125,meters,jsons/VE125_randls_40_rotated.json,1474943,1971184,38,Woman
163,971887,DepthScenes,duration_manipulation_targetAtFixation,jsons/VE125_randls_40_rotated.json,http://54.235.29.9/FacialAge/BNav_EC2/DepthDuration/v2_depth_duration_MTurk/v2_DepthDuration_HTML.html#222,222,1517,730,1366,768,9-4-2022,11-33-6,164,depth_duration_stimuli/000493_2014-06-09_21-01-18_260595134347_rgbf000196-resize_3/000493_2014-06-09_21-01-18_260595134347_rgbf000196-resize_3-target.png,125,3.44,6,3838,125,meters,jsons/VE125_randls_40_rotated.json,1474943,1971184,38,Woman
