,subjID,experimentName,versionName,sequenceName,url,selected_row,windowWidth,windowHeight,screenWidth,screenHeight,startDate,startTime,trial,stimulus,duration,actual_depth,depth_estimate,trial_RT,log_sceneDuration,unitSelection,seq_filepath,experimentTime,totalTime,age,gender
0,974329,DepthScenes,duration_manipulation_targetAtFixation,jsons/v1_VE250_randls_18.json,http://54.235.29.9/FacialAge/BNav_EC2/DepthDuration/v2_depth_duration_MTurk/v2_DepthDuration_HTML.html#4,4,1364,625,1364,768,8-29-2022,11-47-56,1,depth_duration_stimuli/002509_2014-06-24_13-19-22_094959634447_rgbf000077-resize_0/002509_2014-06-24_13-19-22_094959634447_rgbf000077-resize_0-target.png,250,1.3065,1,10648,250,meters,jsons/v1_VE250_randls_18.json,1452360,2117498,36,Man
1,974329,DepthScenes,duration_manipulation_targetAtFixation,jsons/v1_VE250_randls_18.json,http://54.235.29.9/FacialAge/BNav_EC2/DepthDuration/v2_depth_duration_MTurk/v2_DepthDuration_HTML.html#4,4,1364,625,1364,768,8-29-2022,11-47-56,2,depth_duration_stimuli/003338_2014-05-20_11-01-23_094959634447_rgbf000051-resize_6/003338_2014-05-20_11-01-23_094959634447_rgbf000051-resize_6-target.png,250,1.693,1,8674,248,meters,jsons/v1_VE250_randls_18.json,1452360,2117498,36,Man
2,974329,DepthScenes,duration_manipulation_targetAtFixation,jsons/v1_VE250_randls_18.json,http://54.235.29.9/FacialAge/BNav_EC2/DepthDuration/v2_depth_duration_MTurk/v2_DepthDuration_HTML.html#4,4,1364,625,1364,768,8-29-2022,11-47-56,3,depth_duration_stimuli/002375_2014-06-28_20-13-44_260595134347_rgbf000032-resize_1/002375_2014-06-28_20-13-44_260595134347_rgbf000032-resize_1-target.png,250,4.0175,1,47034,250,meters,jsons/v1_VE250_randls_18.json,1452360,2117498,36,Man
3,974329,DepthScenes,duration_manipulation_targetAtFixation,jsons/v1_VE250_randls_18.json,http://54.235.29.9/FacialAge/BNav_EC2/DepthDuration/v2_depth_duration_MTurk/v2_DepthDuration_HTML.html#4,4,1364,625,1364,768,8-29-2022,11-47-56,4,depth_duration_stimuli/002657_2014-06-13_15-29-54_094959634447_rgbf000150-resize_1/002657_2014-06-13_15-29-54_094959634447_rgbf000150-resize_1-target.png,250,4.919,0,11408,249,meters,jsons/v1_VE250_randls_18.json,1452360,2117498,36,Man
4,974329,DepthScenes,duration_manipulation_targetAtFixation,jsons/v1_VE250_randls_18.json,http://54.235.29.9/FacialAge/BNav_EC2/DepthDuration/v2_depth_duration_MTurk/v2_DepthDuration_HTML.html#4,4,1364,625,1364,768,8-29-2022,11-47-56,5,depth_duration_stimuli/001110_2014-06-15_17-25-28_260595134347_rgbf000150-resize_1/001110_2014-06-15_17-25-28_260595134347_rgbf000150-resize_1-target.png,250,1.7115,1,9685,249,meters,jsons/v1_VE250_randls_18.json,1452360,2117498,36,Man
5,974329,DepthScenes,duration_manipulation_targetAtFixation,jsons/v1_VE250_randls_18.json,http://54.235.29.9/FacialAge/BNav_EC2/DepthDuration/v2_depth_duration_MTurk/v2_DepthDuration_HTML.html#4,4,1364,625,1364,768,8-29-2022,11-47-56,6,depth_duration_stimuli/000927_2014-06-09_16-32-30_260595134347_rgbf000123-resize_3/000927_2014-06-09_16-32-30_260595134347_rgbf000123-resize_3-target.png,250,2.6785,0,8056,259,meters,jsons/v1_VE250_randls_18.json,1452360,2117498,36,Man
6,974329,DepthScenes,duration_manipulation_targetAtFixation,jsons/v1_VE250_randls_18.json,http://54.235.29.9/FacialAge/BNav_EC2/DepthDuration/v2_depth_duration_MTurk/v2_DepthDuration_HTML.html#4,4,1364,625,1364,768,8-29-2022,11-47-56,7,depth_duration_stimuli/000692_2014-06-08_13-09-42_260595134347_rgbf000199-resize_2/000692_2014-06-08_13-09-42_260595134347_rgbf000199-resize_2-target.png,250,3.661,2,10094,248,meters,jsons/v1_VE250_randls_18.json,1452360,2117498,36,Man
7,974329,DepthScenes,duration_manipulation_targetAtFixation,jsons/v1_VE250_randls_18.json,http://54.235.29.9/FacialAge/BNav_EC2/DepthDuration/v2_depth_duration_MTurk/v2_DepthDuration_HTML.html#4,4,1364,625,1364,768,8-29-2022,11-47-56,8,depth_duration_stimuli/001094_2014-06-15_17-36-00_260595134347_rgbf000205-resize_0/001094_2014-06-15_17-36-00_260595134347_rgbf000205-resize_0-target.png,250,4.2175,1,10773,249,meters,jsons/v1_VE250_randls_18.json,1452360,2117498,36,Man
8,974329,DepthScenes,duration_manipulation_targetAtFixation,jsons/v1_VE250_randls_18.json,http://54.235.29.9/FacialAge/BNav_EC2/DepthDuration/v2_depth_duration_MTurk/v2_DepthDuration_HTML.html#4,4,1364,625,1364,768,8-29-2022,11-47-56,9,depth_duration_stimuli/001417_2014-06-19_16-25-36_260595134347_rgbf000115-resize_5/001417_2014-06-19_16-25-36_260595134347_rgbf000115-resize_5-target.png,250,4.6255,1,10000,250,meters,jsons/v1_VE250_randls_18.json,1452360,2117498,36,Man
9,974329,DepthScenes,duration_manipulation_targetAtFixation,jsons/v1_VE250_randls_18.json,http://54.235.29.9/FacialAge/BNav_EC2/DepthDuration/v2_depth_duration_MTurk/v2_DepthDuration_HTML.html#4,4,1364,625,1364,768,8-29-2022,11-47-56,10,depth_duration_stimuli/003081_2014-06-15_15-19-16_094959634447_rgbf000150-resize_1/003081_2014-06-15_15-19-16_094959634447_rgbf000150-resize_1-target.png,250,3.9125,2,9422,233,meters,jsons/v1_VE250_randls_18.json,1452360,2117498,36,Man
10,974329,DepthScenes,duration_manipulation_targetAtFixation,jsons/v1_VE250_randls_18.json,http://54.235.29.9/FacialAge/BNav_EC2/DepthDuration/v2_depth_duration_MTurk/v2_DepthDuration_HTML.html#4,4,1364,625,1364,768,8-29-2022,11-47-56,11,depth_duration_stimuli/001055_2014-06-08_18-45-35_260595134347_rgbf000111-resize_4/001055_2014-06-08_18-45-35_260595134347_rgbf000111-resize_4-target.png,250,2.4290000000000003,3,8122,248,meters,jsons/v1_VE250_randls_18.json,1452360,2117498,36,Man
11,974329,DepthScenes,duration_manipulation_targetAtFixation,jsons/v1_VE250_randls_18.json,http://54.235.29.9/FacialAge/BNav_EC2/DepthDuration/v2_depth_duration_MTurk/v2_DepthDuration_HTML.html#4,4,1364,625,1364,768,8-29-2022,11-47-56,12,depth_duration_stimuli/000549_2014-06-08_22-10-24_260595134347_rgbf000247-resize_3/000549_2014-06-08_22-10-24_260595134347_rgbf000247-resize_3-target.png,250,1.841,1,6466,248,meters,jsons/v1_VE250_randls_18.json,1452360,2117498,36,Man
12,974329,DepthScenes,duration_manipulation_targetAtFixation,jsons/v1_VE250_randls_18.json,http://54.235.29.9/FacialAge/BNav_EC2/DepthDuration/v2_depth_duration_MTurk/v2_DepthDuration_HTML.html#4,4,1364,625,1364,768,8-29-2022,11-47-56,13,depth_duration_stimuli/000569_2014-06-09_22-51-47_260595134347_rgbf000141-resize_3/000569_2014-06-09_22-51-47_260595134347_rgbf000141-resize-original.jpg,250,4.512,1,7015,248,meters,jsons/v1_VE250_randls_18.json,1452360,2117498,36,Man
13,974329,DepthScenes,duration_manipulation_targetAtFixation,jsons/v1_VE250_randls_18.json,http://54.235.29.9/FacialAge/BNav_EC2/DepthDuration/v2_depth_duration_MTurk/v2_DepthDuration_HTML.html#4,4,1364,625,1364,768,8-29-2022,11-47-56,14,depth_duration_stimuli/001175_2014-06-17_15-45-55_260595134347_rgbf000129-resize_4/001175_2014-06-17_15-45-55_260595134347_rgbf000129-resize_4-target.png,250,4.255,3,9547,248,meters,jsons/v1_VE250_randls_18.json,1452360,2117498,36,Man
14,974329,DepthScenes,duration_manipulation_targetAtFixation,jsons/v1_VE250_randls_18.json,http://54.235.29.9/FacialAge/BNav_EC2/DepthDuration/v2_depth_duration_MTurk/v2_DepthDuration_HTML.html#4,4,1364,625,1364,768,8-29-2022,11-47-56,15,depth_duration_stimuli/003490_2014-05-21_15-50-11_094959634447_rgbf000101-resize_3/003490_2014-05-21_15-50-11_094959634447_rgbf000101-resize_3-target.png,250,3.6445,1,10149,264,meters,jsons/v1_VE250_randls_18.json,1452360,2117498,36,Man
15,974329,DepthScenes,duration_manipulation_targetAtFixation,jsons/v1_VE250_randls_18.json,http://54.235.29.9/FacialAge/BNav_EC2/DepthDuration/v2_depth_duration_MTurk/v2_DepthDuration_HTML.html#4,4,1364,625,1364,768,8-29-2022,11-47-56,16,depth_duration_stimuli/000788_2014-06-08_22-34-36_260595134347_rgbf000131-resize_1/000788_2014-06-08_22-34-36_260595134347_rgbf000131-resize_1-target.png,250,3.359,1,9938,248,meters,jsons/v1_VE250_randls_18.json,1452360,2117498,36,Man
16,974329,DepthScenes,duration_manipulation_targetAtFixation,jsons/v1_VE250_randls_18.json,http://54.235.29.9/FacialAge/BNav_EC2/DepthDuration/v2_depth_duration_MTurk/v2_DepthDuration_HTML.html#4,4,1364,625,1364,768,8-29-2022,11-47-56,17,depth_duration_stimuli/001235_2014-06-17_16-37-36_260595134347_rgbf000084-resize_4/001235_2014-06-17_16-37-36_260595134347_rgbf000084-resize_4-target.png,250,3.6605,2,4945,249,meters,jsons/v1_VE250_randls_18.json,1452360,2117498,36,Man
17,974329,DepthScenes,duration_manipulation_targetAtFixation,jsons/v1_VE250_randls_18.json,http://54.235.29.9/FacialAge/BNav_EC2/DepthDuration/v2_depth_duration_MTurk/v2_DepthDuration_HTML.html#4,4,1364,625,1364,768,8-29-2022,11-47-56,18,depth_duration_stimuli/000436_2014-06-09_22-25-11_260595134347_rgbf000137-resize_1/000436_2014-06-09_22-25-11_260595134347_rgbf000137-resize_1-target.png,250,4.0705,2,7474,249,meters,jsons/v1_VE250_randls_18.json,1452360,2117498,36,Man
18,974329,DepthScenes,duration_manipulation_targetAtFixation,jsons/v1_VE250_randls_18.json,http://54.235.29.9/FacialAge/BNav_EC2/DepthDuration/v2_depth_duration_MTurk/v2_DepthDuration_HTML.html#4,4,1364,625,1364,768,8-29-2022,11-47-56,19,depth_duration_stimuli/002444_2014-06-28_20-32-08_260595134347_rgbf000027-resize_0/002444_2014-06-28_20-32-08_260595134347_rgbf000027-resize_0-target.png,250,4.388999999999999,2,7766,250,meters,jsons/v1_VE250_randls_18.json,1452360,2117498,36,Man
19,974329,DepthScenes,duration_manipulation_targetAtFixation,jsons/v1_VE250_randls_18.json,http://54.235.29.9/FacialAge/BNav_EC2/DepthDuration/v2_depth_duration_MTurk/v2_DepthDuration_HTML.html#4,4,1364,625,1364,768,8-29-2022,11-47-56,20,depth_duration_stimuli/002570_2014-06-24_13-59-54_094959634447_rgbf000059-resize_0/002570_2014-06-24_13-59-54_094959634447_rgbf000059-resize_0-target.png,250,4.037,1,14391,249,meters,jsons/v1_VE250_randls_18.json,1452360,2117498,36,Man
20,974329,DepthScenes,duration_manipulation_targetAtFixation,jsons/v1_VE250_randls_18.json,http://54.235.29.9/FacialAge/BNav_EC2/DepthDuration/v2_depth_duration_MTurk/v2_DepthDuration_HTML.html#4,4,1364,625,1364,768,8-29-2022,11-47-56,21,depth_duration_stimuli/002467_2014-06-28_20-38-07_260595134347_rgbf000026-resize_2/002467_2014-06-28_20-38-07_260595134347_rgbf000026-resize_2-target.png,250,4.742,2,8844,249,meters,jsons/v1_VE250_randls_18.json,1452360,2117498,36,Man
21,974329,DepthScenes,duration_manipulation_targetAtFixation,jsons/v1_VE250_randls_18.json,http://54.235.29.9/FacialAge/BNav_EC2/DepthDuration/v2_depth_duration_MTurk/v2_DepthDuration_HTML.html#4,4,1364,625,1364,768,8-29-2022,11-47-56,22,depth_duration_stimuli/002988_2014-06-15_12-24-20_094959634447_rgbf000150-resize_1/002988_2014-06-15_12-24-20_094959634447_rgbf000150-resize_1-target.png,250,4.7669999999999995,2,7969,233,meters,jsons/v1_VE250_randls_18.json,1452360,2117498,36,Man
22,974329,DepthScenes,duration_manipulation_targetAtFixation,jsons/v1_VE250_randls_18.json,http://54.235.29.9/FacialAge/BNav_EC2/DepthDuration/v2_depth_duration_MTurk/v2_DepthDuration_HTML.html#4,4,1364,625,1364,768,8-29-2022,11-47-56,23,depth_duration_stimuli/001052_2014-06-08_18-24-54_260595134347_rgbf000130-resize_1/001052_2014-06-08_18-24-54_260595134347_rgbf000130-resize_1-target.png,250,4.1045,1,6344,249,meters,jsons/v1_VE250_randls_18.json,1452360,2117498,36,Man
23,974329,DepthScenes,duration_manipulation_targetAtFixation,jsons/v1_VE250_randls_18.json,http://54.235.29.9/FacialAge/BNav_EC2/DepthDuration/v2_depth_duration_MTurk/v2_DepthDuration_HTML.html#4,4,1364,625,1364,768,8-29-2022,11-47-56,24,depth_duration_stimuli/000739_2014-06-08_18-45-58_260595134347_rgbf000068-resize_1/000739_2014-06-08_18-45-58_260595134347_rgbf000068-resize_1-target.png,250,3.534,2,5828,249,meters,jsons/v1_VE250_randls_18.json,1452360,2117498,36,Man
24,974329,DepthScenes,duration_manipulation_targetAtFixation,jsons/v1_VE250_randls_18.json,http://54.235.29.9/FacialAge/BNav_EC2/DepthDuration/v2_depth_duration_MTurk/v2_DepthDuration_HTML.html#4,4,1364,625,1364,768,8-29-2022,11-47-56,25,depth_duration_stimuli/000734_2014-06-08_17-39-11_260595134347_rgbf000128-resize_2/000734_2014-06-08_17-39-11_260595134347_rgbf000128-resize_2-target.png,250,4.098,1,5172,248,meters,jsons/v1_VE250_randls_18.json,1452360,2117498,36,Man
25,974329,DepthScenes,duration_manipulation_targetAtFixation,jsons/v1_VE250_randls_18.json,http://54.235.29.9/FacialAge/BNav_EC2/DepthDuration/v2_depth_duration_MTurk/v2_DepthDuration_HTML.html#4,4,1364,625,1364,768,8-29-2022,11-47-56,26,depth_duration_stimuli/002279_2014-06-28_18-55-32_260595134347_rgbf000040-resize_5/002279_2014-06-28_18-55-32_260595134347_rgbf000040-resize_5-target.png,250,1.5043333333333,1,5156,249,meters,jsons/v1_VE250_randls_18.json,1452360,2117498,36,Man
26,974329,DepthScenes,duration_manipulation_targetAtFixation,jsons/v1_VE250_randls_18.json,http://54.235.29.9/FacialAge/BNav_EC2/DepthDuration/v2_depth_duration_MTurk/v2_DepthDuration_HTML.html#4,4,1364,625,1364,768,8-29-2022,11-47-56,27,depth_duration_stimuli/000635_2014-06-08_16-38-42_260595134347_rgbf000106-resize_1/000635_2014-06-08_16-38-42_260595134347_rgbf000106-resize_1-target.png,250,2.074,1,4986,249,meters,jsons/v1_VE250_randls_18.json,1452360,2117498,36,Man
27,974329,DepthScenes,duration_manipulation_targetAtFixation,jsons/v1_VE250_randls_18.json,http://54.235.29.9/FacialAge/BNav_EC2/DepthDuration/v2_depth_duration_MTurk/v2_DepthDuration_HTML.html#4,4,1364,625,1364,768,8-29-2022,11-47-56,28,depth_duration_stimuli/001133_2014-06-17_14-49-16_260595134347_rgbf000100-resize_0/001133_2014-06-17_14-49-16_260595134347_rgbf000100-resize_0-target.png,250,4.2115,1,9940,249,meters,jsons/v1_VE250_randls_18.json,1452360,2117498,36,Man
28,974329,DepthScenes,duration_manipulation_targetAtFixation,jsons/v1_VE250_randls_18.json,http://54.235.29.9/FacialAge/BNav_EC2/DepthDuration/v2_depth_duration_MTurk/v2_DepthDuration_HTML.html#4,4,1364,625,1364,768,8-29-2022,11-47-56,29,depth_duration_stimuli/001132_2014-06-17_14-48-54_260595134347_rgbf000100-resize_2/001132_2014-06-17_14-48-54_260595134347_rgbf000100-resize_2-target.png,250,3.753,1,24621,250,meters,jsons/v1_VE250_randls_18.json,1452360,2117498,36,Man
29,974329,DepthScenes,duration_manipulation_targetAtFixation,jsons/v1_VE250_randls_18.json,http://54.235.29.9/FacialAge/BNav_EC2/DepthDuration/v2_depth_duration_MTurk/v2_DepthDuration_HTML.html#4,4,1364,625,1364,768,8-29-2022,11-47-56,30,depth_duration_stimuli/000375_2014-06-08_11-17-29_260595134347_rgbf000133-resize_2/000375_2014-06-08_11-17-29_260595134347_rgbf000133-resize-original.jpg,250,4.718,2,6687,249,meters,jsons/v1_VE250_randls_18.json,1452360,2117498,36,Man
30,974329,DepthScenes,duration_manipulation_targetAtFixation,jsons/v1_VE250_randls_18.json,http://54.235.29.9/FacialAge/BNav_EC2/DepthDuration/v2_depth_duration_MTurk/v2_DepthDuration_HTML.html#4,4,1364,625,1364,768,8-29-2022,11-47-56,31,depth_duration_stimuli/001029_2014-06-08_13-17-57_260595134347_rgbf000065-resize_1/001029_2014-06-08_13-17-57_260595134347_rgbf000065-resize_1-target.png,250,3.0835,1,8044,250,meters,jsons/v1_VE250_randls_18.json,1452360,2117498,36,Man
31,974329,DepthScenes,duration_manipulation_targetAtFixation,jsons/v1_VE250_randls_18.json,http://54.235.29.9/FacialAge/BNav_EC2/DepthDuration/v2_depth_duration_MTurk/v2_DepthDuration_HTML.html#4,4,1364,625,1364,768,8-29-2022,11-47-56,32,depth_duration_stimuli/000677_2014-06-08_23-10-32_260595134347_rgbf000158-resize_6/000677_2014-06-08_23-10-32_260595134347_rgbf000158-resize_6-target.png,250,3.556,3,6369,249,meters,jsons/v1_VE250_randls_18.json,1452360,2117498,36,Man
32,974329,DepthScenes,duration_manipulation_targetAtFixation,jsons/v1_VE250_randls_18.json,http://54.235.29.9/FacialAge/BNav_EC2/DepthDuration/v2_depth_duration_MTurk/v2_DepthDuration_HTML.html#4,4,1364,625,1364,768,8-29-2022,11-47-56,33,depth_duration_stimuli/001066_2014-06-08_22-03-20_260595134347_rgbf000066-resize_4/001066_2014-06-08_22-03-20_260595134347_rgbf000066-resize_4-target.png,250,4.2330000000000005,4,7178,249,meters,jsons/v1_VE250_randls_18.json,1452360,2117498,36,Man
33,974329,DepthScenes,duration_manipulation_targetAtFixation,jsons/v1_VE250_randls_18.json,http://54.235.29.9/FacialAge/BNav_EC2/DepthDuration/v2_depth_duration_MTurk/v2_DepthDuration_HTML.html#4,4,1364,625,1364,768,8-29-2022,11-47-56,34,depth_duration_stimuli/000742_2014-06-08_18-48-09_260595134347_rgbf000164-resize_4/000742_2014-06-08_18-48-09_260595134347_rgbf000164-resize_4-target.png,250,4.632,2,7735,248,meters,jsons/v1_VE250_randls_18.json,1452360,2117498,36,Man
34,974329,DepthScenes,duration_manipulation_targetAtFixation,jsons/v1_VE250_randls_18.json,http://54.235.29.9/FacialAge/BNav_EC2/DepthDuration/v2_depth_duration_MTurk/v2_DepthDuration_HTML.html#4,4,1364,625,1364,768,8-29-2022,11-47-56,35,depth_duration_stimuli/001059_2014-06-08_21-53-27_260595134347_rgbf000061-resize_4/001059_2014-06-08_21-53-27_260595134347_rgbf000061-resize_4-target.png,250,2.4185,3,7669,249,meters,jsons/v1_VE250_randls_18.json,1452360,2117498,36,Man
35,974329,DepthScenes,duration_manipulation_targetAtFixation,jsons/v1_VE250_randls_18.json,http://54.235.29.9/FacialAge/BNav_EC2/DepthDuration/v2_depth_duration_MTurk/v2_DepthDuration_HTML.html#4,4,1364,625,1364,768,8-29-2022,11-47-56,36,depth_duration_stimuli/001032_2014-06-08_13-23-17_260595134347_rgbf000021-resize_3/001032_2014-06-08_13-23-17_260595134347_rgbf000021-resize_3-target.png,250,3.2725,2,6891,249,meters,jsons/v1_VE250_randls_18.json,1452360,2117498,36,Man
36,974329,DepthScenes,duration_manipulation_targetAtFixation,jsons/v1_VE250_randls_18.json,http://54.235.29.9/FacialAge/BNav_EC2/DepthDuration/v2_depth_duration_MTurk/v2_DepthDuration_HTML.html#4,4,1364,625,1364,768,8-29-2022,11-47-56,37,depth_duration_stimuli/000506_2014-06-08_23-21-00_260595134347_rgbf000070-resize_7/000506_2014-06-08_23-21-00_260595134347_rgbf000070-resize_7-target.png,250,4.0585,1,10422,248,meters,jsons/v1_VE250_randls_18.json,1452360,2117498,36,Man
37,974329,DepthScenes,duration_manipulation_targetAtFixation,jsons/v1_VE250_randls_18.json,http://54.235.29.9/FacialAge/BNav_EC2/DepthDuration/v2_depth_duration_MTurk/v2_DepthDuration_HTML.html#4,4,1364,625,1364,768,8-29-2022,11-47-56,38,depth_duration_stimuli/003079_2014-06-15_15-18-20_094959634447_rgbf000152-resize_8/003079_2014-06-15_15-18-20_094959634447_rgbf000152-resize_8-target.png,250,2.8775,3,6188,248,meters,jsons/v1_VE250_randls_18.json,1452360,2117498,36,Man
38,974329,DepthScenes,duration_manipulation_targetAtFixation,jsons/v1_VE250_randls_18.json,http://54.235.29.9/FacialAge/BNav_EC2/DepthDuration/v2_depth_duration_MTurk/v2_DepthDuration_HTML.html#4,4,1364,625,1364,768,8-29-2022,11-47-56,39,depth_duration_stimuli/001056_2014-06-08_18-46-44_260595134347_rgbf000068-resize_0/001056_2014-06-08_18-46-44_260595134347_rgbf000068-resize_0-target.png,250,2.6625,1,9906,248,meters,jsons/v1_VE250_randls_18.json,1452360,2117498,36,Man
39,974329,DepthScenes,duration_manipulation_targetAtFixation,jsons/v1_VE250_randls_18.json,http://54.235.29.9/FacialAge/BNav_EC2/DepthDuration/v2_depth_duration_MTurk/v2_DepthDuration_HTML.html#4,4,1364,625,1364,768,8-29-2022,11-47-56,40,depth_duration_stimuli/002199_2014-06-28_18-33-56_260595134347_rgbf000074-resize_0/002199_2014-06-28_18-33-56_260595134347_rgbf000074-resize_0-target.png,250,1.996,1,10603,249,meters,jsons/v1_VE250_randls_18.json,1452360,2117498,36,Man
40,974329,DepthScenes,duration_manipulation_targetAtFixation,jsons/v1_VE250_randls_18.json,http://54.235.29.9/FacialAge/BNav_EC2/DepthDuration/v2_depth_duration_MTurk/v2_DepthDuration_HTML.html#4,4,1364,625,1364,768,8-29-2022,11-47-56,41,depth_duration_stimuli/000368_2014-06-09_15-53-01_260595134347_rgbf000155-resize_2/000368_2014-06-09_15-53-01_260595134347_rgbf000155-resize_2-target.png,250,2.4859999999999998,1,9896,249,meters,jsons/v1_VE250_randls_18.json,1452360,2117498,36,Man
41,974329,DepthScenes,duration_manipulation_targetAtFixation,jsons/v1_VE250_randls_18.json,http://54.235.29.9/FacialAge/BNav_EC2/DepthDuration/v2_depth_duration_MTurk/v2_DepthDuration_HTML.html#4,4,1364,625,1364,768,8-29-2022,11-47-56,42,depth_duration_stimuli/002678_2014-06-13_16-15-32_094959634447_rgbf000151-resize_6/002678_2014-06-13_16-15-32_094959634447_rgbf000151-resize_6-target.png,250,2.1830000000000003,1,12703,248,meters,jsons/v1_VE250_randls_18.json,1452360,2117498,36,Man
42,974329,DepthScenes,duration_manipulation_targetAtFixation,jsons/v1_VE250_randls_18.json,http://54.235.29.9/FacialAge/BNav_EC2/DepthDuration/v2_depth_duration_MTurk/v2_DepthDuration_HTML.html#4,4,1364,625,1364,768,8-29-2022,11-47-56,43,depth_duration_stimuli/001016_2014-06-09_16-16-10_260595134347_rgbf000112-resize_5/001016_2014-06-09_16-16-10_260595134347_rgbf000112-resize_5-target.png,250,1.6565,1,27490,238,meters,jsons/v1_VE250_randls_18.json,1452360,2117498,36,Man
43,974329,DepthScenes,duration_manipulation_targetAtFixation,jsons/v1_VE250_randls_18.json,http://54.235.29.9/FacialAge/BNav_EC2/DepthDuration/v2_depth_duration_MTurk/v2_DepthDuration_HTML.html#4,4,1364,625,1364,768,8-29-2022,11-47-56,44,depth_duration_stimuli/002340_2014-06-28_20-05-46_260595134347_rgbf000113-resize_0/002340_2014-06-28_20-05-46_260595134347_rgbf000113-resize_0-target.png,250,2.4735,2,7979,254,meters,jsons/v1_VE250_randls_18.json,1452360,2117498,36,Man
44,974329,DepthScenes,duration_manipulation_targetAtFixation,jsons/v1_VE250_randls_18.json,http://54.235.29.9/FacialAge/BNav_EC2/DepthDuration/v2_depth_duration_MTurk/v2_DepthDuration_HTML.html#4,4,1364,625,1364,768,8-29-2022,11-47-56,45,depth_duration_stimuli/000787_2014-06-08_22-33-53_260595134347_rgbf000175-resize_1/000787_2014-06-08_22-33-53_260595134347_rgbf000175-resize-original.jpg,250,4.784,2,11258,250,meters,jsons/v1_VE250_randls_18.json,1452360,2117498,36,Man
45,974329,DepthScenes,duration_manipulation_targetAtFixation,jsons/v1_VE250_randls_18.json,http://54.235.29.9/FacialAge/BNav_EC2/DepthDuration/v2_depth_duration_MTurk/v2_DepthDuration_HTML.html#4,4,1364,625,1364,768,8-29-2022,11-47-56,46,depth_duration_stimuli/000929_2014-06-09_16-33-19_260595134347_rgbf000139-resize_0/000929_2014-06-09_16-33-19_260595134347_rgbf000139-resize_0-target.png,250,2.8680000000000003,2,17578,249,meters,jsons/v1_VE250_randls_18.json,1452360,2117498,36,Man
46,974329,DepthScenes,duration_manipulation_targetAtFixation,jsons/v1_VE250_randls_18.json,http://54.235.29.9/FacialAge/BNav_EC2/DepthDuration/v2_depth_duration_MTurk/v2_DepthDuration_HTML.html#4,4,1364,625,1364,768,8-29-2022,11-47-56,47,depth_duration_stimuli/000457_2014-06-08_16-52-43_260595134347_rgbf000199-resize_1/000457_2014-06-08_16-52-43_260595134347_rgbf000199-resize_1-target.png,250,3.6489999999999996,1,7828,250,meters,jsons/v1_VE250_randls_18.json,1452360,2117498,36,Man
47,974329,DepthScenes,duration_manipulation_targetAtFixation,jsons/v1_VE250_randls_18.json,http://54.235.29.9/FacialAge/BNav_EC2/DepthDuration/v2_depth_duration_MTurk/v2_DepthDuration_HTML.html#4,4,1364,625,1364,768,8-29-2022,11-47-56,48,depth_duration_stimuli/000522_2014-06-08_13-35-06_260595134347_rgbf000244-resize_1/000522_2014-06-08_13-35-06_260595134347_rgbf000244-resize_1-target.png,250,2.3715,1,6734,249,meters,jsons/v1_VE250_randls_18.json,1452360,2117498,36,Man
48,974329,DepthScenes,duration_manipulation_targetAtFixation,jsons/v1_VE250_randls_18.json,http://54.235.29.9/FacialAge/BNav_EC2/DepthDuration/v2_depth_duration_MTurk/v2_DepthDuration_HTML.html#4,4,1364,625,1364,768,8-29-2022,11-47-56,49,depth_duration_stimuli/002949_2014-06-26_15-57-42_094959634447_rgbf000079-resize_1/002949_2014-06-26_15-57-42_094959634447_rgbf000079-resize_1-target.png,250,1.8915,1,8171,249,meters,jsons/v1_VE250_randls_18.json,1452360,2117498,36,Man
49,974329,DepthScenes,duration_manipulation_targetAtFixation,jsons/v1_VE250_randls_18.json,http://54.235.29.9/FacialAge/BNav_EC2/DepthDuration/v2_depth_duration_MTurk/v2_DepthDuration_HTML.html#4,4,1364,625,1364,768,8-29-2022,11-47-56,50,depth_duration_stimuli/000414_2014-06-04_19-49-13_260595134347_rgbf000044-resize_0/000414_2014-06-04_19-49-13_260595134347_rgbf000044-resize_0-target.png,250,4.329,1,6235,249,meters,jsons/v1_VE250_randls_18.json,1452360,2117498,36,Man
50,974329,DepthScenes,duration_manipulation_targetAtFixation,jsons/v1_VE250_randls_18.json,http://54.235.29.9/FacialAge/BNav_EC2/DepthDuration/v2_depth_duration_MTurk/v2_DepthDuration_HTML.html#4,4,1364,625,1364,768,8-29-2022,11-47-56,51,depth_duration_stimuli/003129_2014-05-12_10-48-10_094959634447_rgbf000100-resize_0/003129_2014-05-12_10-48-10_094959634447_rgbf000100-resize_0-target.png,250,4.9305,1,5172,248,meters,jsons/v1_VE250_randls_18.json,1452360,2117498,36,Man
51,974329,DepthScenes,duration_manipulation_targetAtFixation,jsons/v1_VE250_randls_18.json,http://54.235.29.9/FacialAge/BNav_EC2/DepthDuration/v2_depth_duration_MTurk/v2_DepthDuration_HTML.html#4,4,1364,625,1364,768,8-29-2022,11-47-56,52,depth_duration_stimuli/000758_2014-06-08_22-05-08_260595134347_rgbf000085-resize_0/000758_2014-06-08_22-05-08_260595134347_rgbf000085-resize_0-target.png,250,3.3810000000000002,2,7403,272,meters,jsons/v1_VE250_randls_18.json,1452360,2117498,36,Man
52,974329,DepthScenes,duration_manipulation_targetAtFixation,jsons/v1_VE250_randls_18.json,http://54.235.29.9/FacialAge/BNav_EC2/DepthDuration/v2_depth_duration_MTurk/v2_DepthDuration_HTML.html#4,4,1364,625,1364,768,8-29-2022,11-47-56,53,depth_duration_stimuli/000854_2014-06-09_19-43-13_260595134347_rgbf000066-resize_0/000854_2014-06-09_19-43-13_260595134347_rgbf000066-resize_0-target.png,250,3.068,3,6058,257,meters,jsons/v1_VE250_randls_18.json,1452360,2117498,36,Man
53,974329,DepthScenes,duration_manipulation_targetAtFixation,jsons/v1_VE250_randls_18.json,http://54.235.29.9/FacialAge/BNav_EC2/DepthDuration/v2_depth_duration_MTurk/v2_DepthDuration_HTML.html#4,4,1364,625,1364,768,8-29-2022,11-47-56,54,depth_duration_stimuli/000486_2014-06-09_20-47-20_260595134347_rgbf000143-resize_2/000486_2014-06-09_20-47-20_260595134347_rgbf000143-resize_2-target.png,250,4.8325,2,8474,249,meters,jsons/v1_VE250_randls_18.json,1452360,2117498,36,Man
54,974329,DepthScenes,duration_manipulation_targetAtFixation,jsons/v1_VE250_randls_18.json,http://54.235.29.9/FacialAge/BNav_EC2/DepthDuration/v2_depth_duration_MTurk/v2_DepthDuration_HTML.html#4,4,1364,625,1364,768,8-29-2022,11-47-56,55,depth_duration_stimuli/003083_2014-06-15_15-21-03_094959634447_rgbf000063-resize_1/003083_2014-06-15_15-21-03_094959634447_rgbf000063-resize_1-target.png,250,4.1405,3,5782,241,meters,jsons/v1_VE250_randls_18.json,1452360,2117498,36,Man
55,974329,DepthScenes,duration_manipulation_targetAtFixation,jsons/v1_VE250_randls_18.json,http://54.235.29.9/FacialAge/BNav_EC2/DepthDuration/v2_depth_duration_MTurk/v2_DepthDuration_HTML.html#4,4,1364,625,1364,768,8-29-2022,11-47-56,56,depth_duration_stimuli/000773_2014-06-08_22-24-54_260595134347_rgbf000093-resize_1/000773_2014-06-08_22-24-54_260595134347_rgbf000093-resize_1-target.png,250,4.973,2,6891,249,meters,jsons/v1_VE250_randls_18.json,1452360,2117498,36,Man
56,974329,DepthScenes,duration_manipulation_targetAtFixation,jsons/v1_VE250_randls_18.json,http://54.235.29.9/FacialAge/BNav_EC2/DepthDuration/v2_depth_duration_MTurk/v2_DepthDuration_HTML.html#4,4,1364,625,1364,768,8-29-2022,11-47-56,57,depth_duration_stimuli/002414_2014-06-28_20-24-58_260595134347_rgbf000067-resize_4/002414_2014-06-28_20-24-58_260595134347_rgbf000067-resize_4-target.png,250,4.363,2,20269,250,meters,jsons/v1_VE250_randls_18.json,1452360,2117498,36,Man
57,974329,DepthScenes,duration_manipulation_targetAtFixation,jsons/v1_VE250_randls_18.json,http://54.235.29.9/FacialAge/BNav_EC2/DepthDuration/v2_depth_duration_MTurk/v2_DepthDuration_HTML.html#4,4,1364,625,1364,768,8-29-2022,11-47-56,58,depth_duration_stimuli/000493_2014-06-09_21-01-18_260595134347_rgbf000196-resize_3/000493_2014-06-09_21-01-18_260595134347_rgbf000196-resize_3-target.png,250,3.44,3,6469,235,meters,jsons/v1_VE250_randls_18.json,1452360,2117498,36,Man
58,974329,DepthScenes,duration_manipulation_targetAtFixation,jsons/v1_VE250_randls_18.json,http://54.235.29.9/FacialAge/BNav_EC2/DepthDuration/v2_depth_duration_MTurk/v2_DepthDuration_HTML.html#4,4,1364,625,1364,768,8-29-2022,11-47-56,59,depth_duration_stimuli/000191_2014-05-12_17-07-38_260595134347_rgbf000199-resize_0/000191_2014-05-12_17-07-38_260595134347_rgbf000199-resize_0-target.png,250,3.7995,2,6921,249,meters,jsons/v1_VE250_randls_18.json,1452360,2117498,36,Man
59,974329,DepthScenes,duration_manipulation_targetAtFixation,jsons/v1_VE250_randls_18.json,http://54.235.29.9/FacialAge/BNav_EC2/DepthDuration/v2_depth_duration_MTurk/v2_DepthDuration_HTML.html#4,4,1364,625,1364,768,8-29-2022,11-47-56,60,depth_duration_stimuli/002153_2014-06-25_21-27-18_260595134347_rgbf000038-resize_5/002153_2014-06-25_21-27-18_260595134347_rgbf000038-resize_5-target.png,250,2.505,1,6172,265,meters,jsons/v1_VE250_randls_18.json,1452360,2117498,36,Man
60,974329,DepthScenes,duration_manipulation_targetAtFixation,jsons/v1_VE250_randls_18.json,http://54.235.29.9/FacialAge/BNav_EC2/DepthDuration/v2_depth_duration_MTurk/v2_DepthDuration_HTML.html#4,4,1364,625,1364,768,8-29-2022,11-47-56,61,depth_duration_stimuli/002660_2014-06-13_15-44-18_094959634447_rgbf001878-resize_2/002660_2014-06-13_15-44-18_094959634447_rgbf001878-resize_2-target.png,250,3.576,1,6968,249,meters,jsons/v1_VE250_randls_18.json,1452360,2117498,36,Man
61,974329,DepthScenes,duration_manipulation_targetAtFixation,jsons/v1_VE250_randls_18.json,http://54.235.29.9/FacialAge/BNav_EC2/DepthDuration/v2_depth_duration_MTurk/v2_DepthDuration_HTML.html#4,4,1364,625,1364,768,8-29-2022,11-47-56,62,depth_duration_stimuli/002748_2014-06-22_19-07-22_094959634447_rgbf000078-resize_1/002748_2014-06-22_19-07-22_094959634447_rgbf000078-resize_1-target.png,250,4.6705,3,9610,245,meters,jsons/v1_VE250_randls_18.json,1452360,2117498,36,Man
62,974329,DepthScenes,duration_manipulation_targetAtFixation,jsons/v1_VE250_randls_18.json,http://54.235.29.9/FacialAge/BNav_EC2/DepthDuration/v2_depth_duration_MTurk/v2_DepthDuration_HTML.html#4,4,1364,625,1364,768,8-29-2022,11-47-56,63,depth_duration_stimuli/002995_2014-06-15_12-31-26_094959634447_rgbf000150-resize_1/002995_2014-06-15_12-31-26_094959634447_rgbf000150-resize_1-target.png,250,3.8360000000000003,1,5250,248,meters,jsons/v1_VE250_randls_18.json,1452360,2117498,36,Man
63,974329,DepthScenes,duration_manipulation_targetAtFixation,jsons/v1_VE250_randls_18.json,http://54.235.29.9/FacialAge/BNav_EC2/DepthDuration/v2_depth_duration_MTurk/v2_DepthDuration_HTML.html#4,4,1364,625,1364,768,8-29-2022,11-47-56,64,depth_duration_stimuli/001092_2014-06-15_17-34-58_260595134347_rgbf000171-resize_3/001092_2014-06-15_17-34-58_260595134347_rgbf000171-resize_3-target.png,250,2.6935,2,6172,249,meters,jsons/v1_VE250_randls_18.json,1452360,2117498,36,Man
64,974329,DepthScenes,duration_manipulation_targetAtFixation,jsons/v1_VE250_randls_18.json,http://54.235.29.9/FacialAge/BNav_EC2/DepthDuration/v2_depth_duration_MTurk/v2_DepthDuration_HTML.html#4,4,1364,625,1364,768,8-29-2022,11-47-56,65,depth_duration_stimuli/002545_2014-06-24_13-38-53_094959634447_rgbf000080-resize_4/002545_2014-06-24_13-38-53_094959634447_rgbf000080-resize_4-target.png,250,1.9205,2,12016,248,meters,jsons/v1_VE250_randls_18.json,1452360,2117498,36,Man
65,974329,DepthScenes,duration_manipulation_targetAtFixation,jsons/v1_VE250_randls_18.json,http://54.235.29.9/FacialAge/BNav_EC2/DepthDuration/v2_depth_duration_MTurk/v2_DepthDuration_HTML.html#4,4,1364,625,1364,768,8-29-2022,11-47-56,66,depth_duration_stimuli/001222_2014-06-17_16-24-06_260595134347_rgbf000073-resize_0/001222_2014-06-17_16-24-06_260595134347_rgbf000073-resize-original.jpg,250,1.4385,1,5594,248,meters,jsons/v1_VE250_randls_18.json,1452360,2117498,36,Man
66,974329,DepthScenes,duration_manipulation_targetAtFixation,jsons/v1_VE250_randls_18.json,http://54.235.29.9/FacialAge/BNav_EC2/DepthDuration/v2_depth_duration_MTurk/v2_DepthDuration_HTML.html#4,4,1364,625,1364,768,8-29-2022,11-47-56,67,depth_duration_stimuli/001555_2014-06-20_17-12-10_260595134347_rgbf000065-resize_4/001555_2014-06-20_17-12-10_260595134347_rgbf000065-resize_4-target.png,250,1.633,1,10156,248,meters,jsons/v1_VE250_randls_18.json,1452360,2117498,36,Man
67,974329,DepthScenes,duration_manipulation_targetAtFixation,jsons/v1_VE250_randls_18.json,http://54.235.29.9/FacialAge/BNav_EC2/DepthDuration/v2_depth_duration_MTurk/v2_DepthDuration_HTML.html#4,4,1364,625,1364,768,8-29-2022,11-47-56,68,depth_duration_stimuli/000103_2014-05-14_22-01-17_260595134347_rgbf000152-resize_5/000103_2014-05-14_22-01-17_260595134347_rgbf000152-resize_5-target.png,250,1.993,2,5125,249,meters,jsons/v1_VE250_randls_18.json,1452360,2117498,36,Man
68,974329,DepthScenes,duration_manipulation_targetAtFixation,jsons/v1_VE250_randls_18.json,http://54.235.29.9/FacialAge/BNav_EC2/DepthDuration/v2_depth_duration_MTurk/v2_DepthDuration_HTML.html#4,4,1364,625,1364,768,8-29-2022,11-47-56,69,depth_duration_stimuli/000447_2014-06-08_16-15-46_260595134347_rgbf000130-resize_1/000447_2014-06-08_16-15-46_260595134347_rgbf000130-resize_1-target.png,250,4.479,2,8704,249,meters,jsons/v1_VE250_randls_18.json,1452360,2117498,36,Man
69,974329,DepthScenes,duration_manipulation_targetAtFixation,jsons/v1_VE250_randls_18.json,http://54.235.29.9/FacialAge/BNav_EC2/DepthDuration/v2_depth_duration_MTurk/v2_DepthDuration_HTML.html#4,4,1364,625,1364,768,8-29-2022,11-47-56,70,depth_duration_stimuli/001447_2014-06-19_17-00-32_260595134347_rgbf000082-resize_5/001447_2014-06-19_17-00-32_260595134347_rgbf000082-resize_5-target.png,250,4.13775,2,4832,248,meters,jsons/v1_VE250_randls_18.json,1452360,2117498,36,Man
70,974329,DepthScenes,duration_manipulation_targetAtFixation,jsons/v1_VE250_randls_18.json,http://54.235.29.9/FacialAge/BNav_EC2/DepthDuration/v2_depth_duration_MTurk/v2_DepthDuration_HTML.html#4,4,1364,625,1364,768,8-29-2022,11-47-56,71,depth_duration_stimuli/001808_2014-06-26_20-50-58_260595134347_rgbf000029-resize_1/001808_2014-06-26_20-50-58_260595134347_rgbf000029-resize_1-target.png,250,4.249,1,7191,250,meters,jsons/v1_VE250_randls_18.json,1452360,2117498,36,Man
71,974329,DepthScenes,duration_manipulation_targetAtFixation,jsons/v1_VE250_randls_18.json,http://54.235.29.9/FacialAge/BNav_EC2/DepthDuration/v2_depth_duration_MTurk/v2_DepthDuration_HTML.html#4,4,1364,625,1364,768,8-29-2022,11-47-56,72,depth_duration_stimuli/001815_2014-06-26_20-52-55_260595134347_rgbf000020-resize_0/001815_2014-06-26_20-52-55_260595134347_rgbf000020-resize_0-target.png,250,3.3865,3,10898,250,meters,jsons/v1_VE250_randls_18.json,1452360,2117498,36,Man
72,974329,DepthScenes,duration_manipulation_targetAtFixation,jsons/v1_VE250_randls_18.json,http://54.235.29.9/FacialAge/BNav_EC2/DepthDuration/v2_depth_duration_MTurk/v2_DepthDuration_HTML.html#4,4,1364,625,1364,768,8-29-2022,11-47-56,73,depth_duration_stimuli/000469_2014-06-09_19-42-10_260595134347_rgbf000081-resize_1/000469_2014-06-09_19-42-10_260595134347_rgbf000081-resize_1-target.png,250,1.652,1,7906,249,meters,jsons/v1_VE250_randls_18.json,1452360,2117498,36,Man
73,974329,DepthScenes,duration_manipulation_targetAtFixation,jsons/v1_VE250_randls_18.json,http://54.235.29.9/FacialAge/BNav_EC2/DepthDuration/v2_depth_duration_MTurk/v2_DepthDuration_HTML.html#4,4,1364,625,1364,768,8-29-2022,11-47-56,74,depth_duration_stimuli/000483_2014-06-09_20-41-45_260595134347_rgbf000116-resize_4/000483_2014-06-09_20-41-45_260595134347_rgbf000116-resize_4-target.png,250,1.337,1,4532,249,meters,jsons/v1_VE250_randls_18.json,1452360,2117498,36,Man
74,974329,DepthScenes,duration_manipulation_targetAtFixation,jsons/v1_VE250_randls_18.json,http://54.235.29.9/FacialAge/BNav_EC2/DepthDuration/v2_depth_duration_MTurk/v2_DepthDuration_HTML.html#4,4,1364,625,1364,768,8-29-2022,11-47-56,75,depth_duration_stimuli/002600_2014-06-24_14-27-04_094959634447_rgbf000074-resize_2/002600_2014-06-24_14-27-04_094959634447_rgbf000074-resize_2-target.png,250,2.7575,1,11265,250,meters,jsons/v1_VE250_randls_18.json,1452360,2117498,36,Man
75,974329,DepthScenes,duration_manipulation_targetAtFixation,jsons/v1_VE250_randls_18.json,http://54.235.29.9/FacialAge/BNav_EC2/DepthDuration/v2_depth_duration_MTurk/v2_DepthDuration_HTML.html#4,4,1364,625,1364,768,8-29-2022,11-47-56,76,depth_duration_stimuli/003228_2014-05-14_13-42-35_094959634447_rgbf000101-resize_1/003228_2014-05-14_13-42-35_094959634447_rgbf000101-resize_1-target.png,250,1.9680000000000002,1,8500,249,meters,jsons/v1_VE250_randls_18.json,1452360,2117498,36,Man
76,974329,DepthScenes,duration_manipulation_targetAtFixation,jsons/v1_VE250_randls_18.json,http://54.235.29.9/FacialAge/BNav_EC2/DepthDuration/v2_depth_duration_MTurk/v2_DepthDuration_HTML.html#4,4,1364,625,1364,768,8-29-2022,11-47-56,77,depth_duration_stimuli/002989_2014-06-15_12-25-03_094959634447_rgbf000150-resize_3/002989_2014-06-15_12-25-03_094959634447_rgbf000150-resize_3-target.png,250,4.1975,2,7985,250,meters,jsons/v1_VE250_randls_18.json,1452360,2117498,36,Man
77,974329,DepthScenes,duration_manipulation_targetAtFixation,jsons/v1_VE250_randls_18.json,http://54.235.29.9/FacialAge/BNav_EC2/DepthDuration/v2_depth_duration_MTurk/v2_DepthDuration_HTML.html#4,4,1364,625,1364,768,8-29-2022,11-47-56,78,depth_duration_stimuli/000866_2014-06-09_20-45-42_260595134347_rgbf000139-resize_1/000866_2014-06-09_20-45-42_260595134347_rgbf000139-resize_1-target.png,250,3.2155,1,4532,240,meters,jsons/v1_VE250_randls_18.json,1452360,2117498,36,Man
78,974329,DepthScenes,duration_manipulation_targetAtFixation,jsons/v1_VE250_randls_18.json,http://54.235.29.9/FacialAge/BNav_EC2/DepthDuration/v2_depth_duration_MTurk/v2_DepthDuration_HTML.html#4,4,1364,625,1364,768,8-29-2022,11-47-56,79,depth_duration_stimuli/001810_2014-06-26_20-51-35_260595134347_rgbf000040-resize_3/001810_2014-06-26_20-51-35_260595134347_rgbf000040-resize_3-target.png,250,2.2525,2,10885,249,meters,jsons/v1_VE250_randls_18.json,1452360,2117498,36,Man
79,974329,DepthScenes,duration_manipulation_targetAtFixation,jsons/v1_VE250_randls_18.json,http://54.235.29.9/FacialAge/BNav_EC2/DepthDuration/v2_depth_duration_MTurk/v2_DepthDuration_HTML.html#4,4,1364,625,1364,768,8-29-2022,11-47-56,80,depth_duration_stimuli/003010_2014-06-15_12-54-35_094959634447_rgbf000112-resize_0/003010_2014-06-15_12-54-35_094959634447_rgbf000112-resize_0-target.png,250,3.1185,2,5822,239,meters,jsons/v1_VE250_randls_18.json,1452360,2117498,36,Man
80,974329,DepthScenes,duration_manipulation_targetAtFixation,jsons/v1_VE250_randls_18.json,http://54.235.29.9/FacialAge/BNav_EC2/DepthDuration/v2_depth_duration_MTurk/v2_DepthDuration_HTML.html#4,4,1364,625,1364,768,8-29-2022,11-47-56,81,depth_duration_stimuli/000642_2014-06-08_16-59-25_260595134347_rgbf000098-resize_2/000642_2014-06-08_16-59-25_260595134347_rgbf000098-resize_2-target.png,250,2.8815,1,7343,248,meters,jsons/v1_VE250_randls_18.json,1452360,2117498,36,Man
81,974329,DepthScenes,duration_manipulation_targetAtFixation,jsons/v1_VE250_randls_18.json,http://54.235.29.9/FacialAge/BNav_EC2/DepthDuration/v2_depth_duration_MTurk/v2_DepthDuration_HTML.html#4,4,1364,625,1364,768,8-29-2022,11-47-56,82,depth_duration_stimuli/002425_2014-06-28_20-27-29_260595134347_rgbf000031-resize_8/002425_2014-06-28_20-27-29_260595134347_rgbf000031-resize_8-target.png,250,3.8960000000000004,1,9724,249,meters,jsons/v1_VE250_randls_18.json,1452360,2117498,36,Man
82,974329,DepthScenes,duration_manipulation_targetAtFixation,jsons/v1_VE250_randls_18.json,http://54.235.29.9/FacialAge/BNav_EC2/DepthDuration/v2_depth_duration_MTurk/v2_DepthDuration_HTML.html#4,4,1364,625,1364,768,8-29-2022,11-47-56,83,depth_duration_stimuli/002057_2014-06-24_21-00-13_260595134347_rgbf000120-resize_1/002057_2014-06-24_21-00-13_260595134347_rgbf000120-resize_1-target.png,250,2.967,2,7913,247,meters,jsons/v1_VE250_randls_18.json,1452360,2117498,36,Man
83,974329,DepthScenes,duration_manipulation_targetAtFixation,jsons/v1_VE250_randls_18.json,http://54.235.29.9/FacialAge/BNav_EC2/DepthDuration/v2_depth_duration_MTurk/v2_DepthDuration_HTML.html#4,4,1364,625,1364,768,8-29-2022,11-47-56,84,depth_duration_stimuli/000709_2014-06-08_13-51-55_260595134347_rgbf000068-resize_3/000709_2014-06-08_13-51-55_260595134347_rgbf000068-resize_3-target.png,250,1.8030000000000002,3,6553,242,meters,jsons/v1_VE250_randls_18.json,1452360,2117498,36,Man
84,974329,DepthScenes,duration_manipulation_targetAtFixation,jsons/v1_VE250_randls_18.json,http://54.235.29.9/FacialAge/BNav_EC2/DepthDuration/v2_depth_duration_MTurk/v2_DepthDuration_HTML.html#4,4,1364,625,1364,768,8-29-2022,11-47-56,85,depth_duration_stimuli/001449_2014-06-19_17-01-27_260595134347_rgbf000116-resize_2/001449_2014-06-19_17-01-27_260595134347_rgbf000116-resize_2-target.png,250,3.452,3,8040,248,meters,jsons/v1_VE250_randls_18.json,1452360,2117498,36,Man
85,974329,DepthScenes,duration_manipulation_targetAtFixation,jsons/v1_VE250_randls_18.json,http://54.235.29.9/FacialAge/BNav_EC2/DepthDuration/v2_depth_duration_MTurk/v2_DepthDuration_HTML.html#4,4,1364,625,1364,768,8-29-2022,11-47-56,86,depth_duration_stimuli/001450_2014-06-19_17-02-03_260595134347_rgbf000203-resize_4/001450_2014-06-19_17-02-03_260595134347_rgbf000203-resize_4-target.png,250,4.0106666666667,3,7265,249,meters,jsons/v1_VE250_randls_18.json,1452360,2117498,36,Man
86,974329,DepthScenes,duration_manipulation_targetAtFixation,jsons/v1_VE250_randls_18.json,http://54.235.29.9/FacialAge/BNav_EC2/DepthDuration/v2_depth_duration_MTurk/v2_DepthDuration_HTML.html#4,4,1364,625,1364,768,8-29-2022,11-47-56,87,depth_duration_stimuli/000878_2014-06-08_22-52-45_260595134347_rgbf000045-resize_2/000878_2014-06-08_22-52-45_260595134347_rgbf000045-resize_2-target.png,250,2.092,3,7967,249,meters,jsons/v1_VE250_randls_18.json,1452360,2117498,36,Man
87,974329,DepthScenes,duration_manipulation_targetAtFixation,jsons/v1_VE250_randls_18.json,http://54.235.29.9/FacialAge/BNav_EC2/DepthDuration/v2_depth_duration_MTurk/v2_DepthDuration_HTML.html#4,4,1364,625,1364,768,8-29-2022,11-47-56,88,depth_duration_stimuli/002953_2014-06-08_17-32-18_094959634447_rgbf000059-resize_5/002953_2014-06-08_17-32-18_094959634447_rgbf000059-resize_5-target.png,250,1.551,2,8234,249,meters,jsons/v1_VE250_randls_18.json,1452360,2117498,36,Man
88,974329,DepthScenes,duration_manipulation_targetAtFixation,jsons/v1_VE250_randls_18.json,http://54.235.29.9/FacialAge/BNav_EC2/DepthDuration/v2_depth_duration_MTurk/v2_DepthDuration_HTML.html#4,4,1364,625,1364,768,8-29-2022,11-47-56,89,depth_duration_stimuli/002118_2014-06-25_20-32-08_260595134347_rgbf000078-resize_1/002118_2014-06-25_20-32-08_260595134347_rgbf000078-resize_1-target.png,250,2.6460000000000004,1,7468,248,meters,jsons/v1_VE250_randls_18.json,1452360,2117498,36,Man
89,974329,DepthScenes,duration_manipulation_targetAtFixation,jsons/v1_VE250_randls_18.json,http://54.235.29.9/FacialAge/BNav_EC2/DepthDuration/v2_depth_duration_MTurk/v2_DepthDuration_HTML.html#4,4,1364,625,1364,768,8-29-2022,11-47-56,90,depth_duration_stimuli/001516_2014-06-20_16-25-09_260595134347_rgbf000076-resize_2/001516_2014-06-20_16-25-09_260595134347_rgbf000076-resize_2-target.png,250,1.7445,2,5297,249,meters,jsons/v1_VE250_randls_18.json,1452360,2117498,36,Man
90,974329,DepthScenes,duration_manipulation_targetAtFixation,jsons/v1_VE250_randls_18.json,http://54.235.29.9/FacialAge/BNav_EC2/DepthDuration/v2_depth_duration_MTurk/v2_DepthDuration_HTML.html#4,4,1364,625,1364,768,8-29-2022,11-47-56,91,depth_duration_stimuli/002549_2014-06-24_13-41-39_094959634447_rgbf000022-resize_3/002549_2014-06-24_13-41-39_094959634447_rgbf000022-resize_3-target.png,250,1.476,5,8338,250,meters,jsons/v1_VE250_randls_18.json,1452360,2117498,36,Man
91,974329,DepthScenes,duration_manipulation_targetAtFixation,jsons/v1_VE250_randls_18.json,http://54.235.29.9/FacialAge/BNav_EC2/DepthDuration/v2_depth_duration_MTurk/v2_DepthDuration_HTML.html#4,4,1364,625,1364,768,8-29-2022,11-47-56,92,depth_duration_stimuli/002750_2014-06-22_19-08-03_094959634447_rgbf000094-resize_4/002750_2014-06-22_19-08-03_094959634447_rgbf000094-resize_4-target.png,250,2.354,2,6860,250,meters,jsons/v1_VE250_randls_18.json,1452360,2117498,36,Man
92,974329,DepthScenes,duration_manipulation_targetAtFixation,jsons/v1_VE250_randls_18.json,http://54.235.29.9/FacialAge/BNav_EC2/DepthDuration/v2_depth_duration_MTurk/v2_DepthDuration_HTML.html#4,4,1364,625,1364,768,8-29-2022,11-47-56,93,depth_duration_stimuli/002663_2014-06-13_15-50-26_094959634447_rgbf000075-resize_1/002663_2014-06-13_15-50-26_094959634447_rgbf000075-resize_1-target.png,250,4.7495,2,11484,249,meters,jsons/v1_VE250_randls_18.json,1452360,2117498,36,Man
93,974329,DepthScenes,duration_manipulation_targetAtFixation,jsons/v1_VE250_randls_18.json,http://54.235.29.9/FacialAge/BNav_EC2/DepthDuration/v2_depth_duration_MTurk/v2_DepthDuration_HTML.html#4,4,1364,625,1364,768,8-29-2022,11-47-56,94,depth_duration_stimuli/000409_2014-06-04_19-23-33_260595134347_rgbf000067-resize_0/000409_2014-06-04_19-23-33_260595134347_rgbf000067-resize_0-target.png,250,3.7335,3,11064,249,meters,jsons/v1_VE250_randls_18.json,1452360,2117498,36,Man
94,974329,DepthScenes,duration_manipulation_targetAtFixation,jsons/v1_VE250_randls_18.json,http://54.235.29.9/FacialAge/BNav_EC2/DepthDuration/v2_depth_duration_MTurk/v2_DepthDuration_HTML.html#4,4,1364,625,1364,768,8-29-2022,11-47-56,95,depth_duration_stimuli/002272_2014-06-28_18-53-56_260595134347_rgbf000067-resize_2/002272_2014-06-28_18-53-56_260595134347_rgbf000067-resize_2-target.png,250,1.138,2,10688,250,meters,jsons/v1_VE250_randls_18.json,1452360,2117498,36,Man
95,974329,DepthScenes,duration_manipulation_targetAtFixation,jsons/v1_VE250_randls_18.json,http://54.235.29.9/FacialAge/BNav_EC2/DepthDuration/v2_depth_duration_MTurk/v2_DepthDuration_HTML.html#4,4,1364,625,1364,768,8-29-2022,11-47-56,96,depth_duration_stimuli/001571_2014-06-20_17-21-32_260595134347_rgbf000089-resize_1/001571_2014-06-20_17-21-32_260595134347_rgbf000089-resize_1-target.png,250,1.86,2,13518,249,meters,jsons/v1_VE250_randls_18.json,1452360,2117498,36,Man
96,974329,DepthScenes,duration_manipulation_targetAtFixation,jsons/v1_VE250_randls_18.json,http://54.235.29.9/FacialAge/BNav_EC2/DepthDuration/v2_depth_duration_MTurk/v2_DepthDuration_HTML.html#4,4,1364,625,1364,768,8-29-2022,11-47-56,97,depth_duration_stimuli/002630_2014-06-24_14-47-50_094959634447_rgbf000055-resize_1/002630_2014-06-24_14-47-50_094959634447_rgbf000055-resize_1-target.png,250,3.0095,3,8750,250,meters,jsons/v1_VE250_randls_18.json,1452360,2117498,36,Man
97,974329,DepthScenes,duration_manipulation_targetAtFixation,jsons/v1_VE250_randls_18.json,http://54.235.29.9/FacialAge/BNav_EC2/DepthDuration/v2_depth_duration_MTurk/v2_DepthDuration_HTML.html#4,4,1364,625,1364,768,8-29-2022,11-47-56,98,depth_duration_stimuli/002758_2014-06-22_19-11-20_094959634447_rgbf000128-resize_1/002758_2014-06-22_19-11-20_094959634447_rgbf000128-resize_1-target.png,250,2.555,1,5906,249,meters,jsons/v1_VE250_randls_18.json,1452360,2117498,36,Man
98,974329,DepthScenes,duration_manipulation_targetAtFixation,jsons/v1_VE250_randls_18.json,http://54.235.29.9/FacialAge/BNav_EC2/DepthDuration/v2_depth_duration_MTurk/v2_DepthDuration_HTML.html#4,4,1364,625,1364,768,8-29-2022,11-47-56,99,depth_duration_stimuli/001540_2014-06-20_17-01-05_260595134347_rgbf000086-resize_2/001540_2014-06-20_17-01-05_260595134347_rgbf000086-resize-original.jpg,250,1.459,1,10437,265,meters,jsons/v1_VE250_randls_18.json,1452360,2117498,36,Man
99,974329,DepthScenes,duration_manipulation_targetAtFixation,jsons/v1_VE250_randls_18.json,http://54.235.29.9/FacialAge/BNav_EC2/DepthDuration/v2_depth_duration_MTurk/v2_DepthDuration_HTML.html#4,4,1364,625,1364,768,8-29-2022,11-47-56,100,depth_duration_stimuli/002788_2014-06-22_19-36-03_094959634447_rgbf000088-resize_2/002788_2014-06-22_19-36-03_094959634447_rgbf000088-resize_2-target.png,250,1.6465,2,4781,249,meters,jsons/v1_VE250_randls_18.json,1452360,2117498,36,Man
100,974329,DepthScenes,duration_manipulation_targetAtFixation,jsons/v1_VE250_randls_18.json,http://54.235.29.9/FacialAge/BNav_EC2/DepthDuration/v2_depth_duration_MTurk/v2_DepthDuration_HTML.html#4,4,1364,625,1364,768,8-29-2022,11-47-56,101,depth_duration_stimuli/000749_2014-06-08_21-55-06_260595134347_rgbf000070-resize_2/000749_2014-06-08_21-55-06_260595134347_rgbf000070-resize_2-target.png,250,2.331,2,6667,251,meters,jsons/v1_VE250_randls_18.json,1452360,2117498,36,Man
101,974329,DepthScenes,duration_manipulation_targetAtFixation,jsons/v1_VE250_randls_18.json,http://54.235.29.9/FacialAge/BNav_EC2/DepthDuration/v2_depth_duration_MTurk/v2_DepthDuration_HTML.html#4,4,1364,625,1364,768,8-29-2022,11-47-56,102,depth_duration_stimuli/000906_2014-06-08_13-35-43_260595134347_rgbf000155-resize_1/000906_2014-06-08_13-35-43_260595134347_rgbf000155-resize_1-target.png,250,2.8489999999999998,3,6662,249,meters,jsons/v1_VE250_randls_18.json,1452360,2117498,36,Man
102,974329,DepthScenes,duration_manipulation_targetAtFixation,jsons/v1_VE250_randls_18.json,http://54.235.29.9/FacialAge/BNav_EC2/DepthDuration/v2_depth_duration_MTurk/v2_DepthDuration_HTML.html#4,4,1364,625,1364,768,8-29-2022,11-47-56,103,depth_duration_stimuli/002805_2014-06-22_19-54-03_094959634447_rgbf000079-resize_1/002805_2014-06-22_19-54-03_094959634447_rgbf000079-resize_1-target.png,250,3.1439999999999997,3,5359,248,meters,jsons/v1_VE250_randls_18.json,1452360,2117498,36,Man
103,974329,DepthScenes,duration_manipulation_targetAtFixation,jsons/v1_VE250_randls_18.json,http://54.235.29.9/FacialAge/BNav_EC2/DepthDuration/v2_depth_duration_MTurk/v2_DepthDuration_HTML.html#4,4,1364,625,1364,768,8-29-2022,11-47-56,104,depth_duration_stimuli/001570_2014-06-20_17-21-09_260595134347_rgbf000135-resize_4/001570_2014-06-20_17-21-09_260595134347_rgbf000135-resize_4-target.png,250,4.467,3,7047,249,meters,jsons/v1_VE250_randls_18.json,1452360,2117498,36,Man
104,974329,DepthScenes,duration_manipulation_targetAtFixation,jsons/v1_VE250_randls_18.json,http://54.235.29.9/FacialAge/BNav_EC2/DepthDuration/v2_depth_duration_MTurk/v2_DepthDuration_HTML.html#4,4,1364,625,1364,768,8-29-2022,11-47-56,105,depth_duration_stimuli/001392_2014-06-19_16-07-59_260595134347_rgbf000046-resize_1/001392_2014-06-19_16-07-59_260595134347_rgbf000046-resize_1-target.png,250,4.135,5,4703,250,meters,jsons/v1_VE250_randls_18.json,1452360,2117498,36,Man
105,974329,DepthScenes,duration_manipulation_targetAtFixation,jsons/v1_VE250_randls_18.json,http://54.235.29.9/FacialAge/BNav_EC2/DepthDuration/v2_depth_duration_MTurk/v2_DepthDuration_HTML.html#4,4,1364,625,1364,768,8-29-2022,11-47-56,106,depth_duration_stimuli/002905_2014-06-03_18-04-43_094959634447_rgbf000151-resize_2/002905_2014-06-03_18-04-43_094959634447_rgbf000151-resize_2-target.png,250,2.0295,1,7297,249,meters,jsons/v1_VE250_randls_18.json,1452360,2117498,36,Man
106,974329,DepthScenes,duration_manipulation_targetAtFixation,jsons/v1_VE250_randls_18.json,http://54.235.29.9/FacialAge/BNav_EC2/DepthDuration/v2_depth_duration_MTurk/v2_DepthDuration_HTML.html#4,4,1364,625,1364,768,8-29-2022,11-47-56,107,depth_duration_stimuli/003423_2014-05-21_10-23-26_094959634447_rgbf002665-resize_2/003423_2014-05-21_10-23-26_094959634447_rgbf002665-resize_2-target.png,250,3.2575,2,4047,233,meters,jsons/v1_VE250_randls_18.json,1452360,2117498,36,Man
107,974329,DepthScenes,duration_manipulation_targetAtFixation,jsons/v1_VE250_randls_18.json,http://54.235.29.9/FacialAge/BNav_EC2/DepthDuration/v2_depth_duration_MTurk/v2_DepthDuration_HTML.html#4,4,1364,625,1364,768,8-29-2022,11-47-56,108,depth_duration_stimuli/002725_2014-06-22_11-47-51_094959634447_rgbf000070-resize_1/002725_2014-06-22_11-47-51_094959634447_rgbf000070-resize_1-target.png,250,2.195,2,10047,250,meters,jsons/v1_VE250_randls_18.json,1452360,2117498,36,Man
108,974329,DepthScenes,duration_manipulation_targetAtFixation,jsons/v1_VE250_randls_18.json,http://54.235.29.9/FacialAge/BNav_EC2/DepthDuration/v2_depth_duration_MTurk/v2_DepthDuration_HTML.html#4,4,1364,625,1364,768,8-29-2022,11-47-56,109,depth_duration_stimuli/002344_2014-06-28_20-06-29_260595134347_rgbf000030-resize_1/002344_2014-06-28_20-06-29_260595134347_rgbf000030-resize_1-target.png,250,1.5795,1,6922,250,meters,jsons/v1_VE250_randls_18.json,1452360,2117498,36,Man
109,974329,DepthScenes,duration_manipulation_targetAtFixation,jsons/v1_VE250_randls_18.json,http://54.235.29.9/FacialAge/BNav_EC2/DepthDuration/v2_depth_duration_MTurk/v2_DepthDuration_HTML.html#4,4,1364,625,1364,768,8-29-2022,11-47-56,110,depth_duration_stimuli/003621_2014-05-23_18-06-08_094959634447_rgbf000101-resize_1/003621_2014-05-23_18-06-08_094959634447_rgbf000101-resize_1-target.png,250,3.9835,2,12047,248,meters,jsons/v1_VE250_randls_18.json,1452360,2117498,36,Man
110,974329,DepthScenes,duration_manipulation_targetAtFixation,jsons/v1_VE250_randls_18.json,http://54.235.29.9/FacialAge/BNav_EC2/DepthDuration/v2_depth_duration_MTurk/v2_DepthDuration_HTML.html#4,4,1364,625,1364,768,8-29-2022,11-47-56,111,depth_duration_stimuli/001584_2014-06-20_11-07-43_260595134347_rgbf000002-resize_1/001584_2014-06-20_11-07-43_260595134347_rgbf000002-resize_1-target.png,250,3.53,2,9794,248,meters,jsons/v1_VE250_randls_18.json,1452360,2117498,36,Man
111,974329,DepthScenes,duration_manipulation_targetAtFixation,jsons/v1_VE250_randls_18.json,http://54.235.29.9/FacialAge/BNav_EC2/DepthDuration/v2_depth_duration_MTurk/v2_DepthDuration_HTML.html#4,4,1364,625,1364,768,8-29-2022,11-47-56,112,depth_duration_stimuli/002213_2014-06-28_18-37-58_260595134347_rgbf000055-resize_1/002213_2014-06-28_18-37-58_260595134347_rgbf000055-resize_1-target.png,250,3.62,2,6063,249,meters,jsons/v1_VE250_randls_18.json,1452360,2117498,36,Man
112,974329,DepthScenes,duration_manipulation_targetAtFixation,jsons/v1_VE250_randls_18.json,http://54.235.29.9/FacialAge/BNav_EC2/DepthDuration/v2_depth_duration_MTurk/v2_DepthDuration_HTML.html#4,4,1364,625,1364,768,8-29-2022,11-47-56,113,depth_duration_stimuli/000691_2014-06-08_13-08-50_260595134347_rgbf000132-resize_3/000691_2014-06-08_13-08-50_260595134347_rgbf000132-resize_3-target.png,250,4.1530000000000005,2,6884,249,meters,jsons/v1_VE250_randls_18.json,1452360,2117498,36,Man
113,974329,DepthScenes,duration_manipulation_targetAtFixation,jsons/v1_VE250_randls_18.json,http://54.235.29.9/FacialAge/BNav_EC2/DepthDuration/v2_depth_duration_MTurk/v2_DepthDuration_HTML.html#4,4,1364,625,1364,768,8-29-2022,11-47-56,114,depth_duration_stimuli/001199_2014-06-17_16-03-48_260595134347_rgbf000077-resize_0/001199_2014-06-17_16-03-48_260595134347_rgbf000077-resize_0-target.png,250,3.4375,1,6724,250,meters,jsons/v1_VE250_randls_18.json,1452360,2117498,36,Man
114,974329,DepthScenes,duration_manipulation_targetAtFixation,jsons/v1_VE250_randls_18.json,http://54.235.29.9/FacialAge/BNav_EC2/DepthDuration/v2_depth_duration_MTurk/v2_DepthDuration_HTML.html#4,4,1364,625,1364,768,8-29-2022,11-47-56,115,depth_duration_stimuli/000502_2014-06-08_23-02-32_260595134347_rgbf000063-resize_4/000502_2014-06-08_23-02-32_260595134347_rgbf000063-resize_4-target.png,250,2.431,3,6391,249,meters,jsons/v1_VE250_randls_18.json,1452360,2117498,36,Man
115,974329,DepthScenes,duration_manipulation_targetAtFixation,jsons/v1_VE250_randls_18.json,http://54.235.29.9/FacialAge/BNav_EC2/DepthDuration/v2_depth_duration_MTurk/v2_DepthDuration_HTML.html#4,4,1364,625,1364,768,8-29-2022,11-47-56,116,depth_duration_stimuli/001170_2014-06-17_15-43-44_260595134347_rgbf000096-resize_6/001170_2014-06-17_15-43-44_260595134347_rgbf000096-resize-original.jpg,250,1.1909999999999998,2,9233,243,meters,jsons/v1_VE250_randls_18.json,1452360,2117498,36,Man
116,974329,DepthScenes,duration_manipulation_targetAtFixation,jsons/v1_VE250_randls_18.json,http://54.235.29.9/FacialAge/BNav_EC2/DepthDuration/v2_depth_duration_MTurk/v2_DepthDuration_HTML.html#4,4,1364,625,1364,768,8-29-2022,11-47-56,117,depth_duration_stimuli/003492_2014-05-21_15-50-55_094959634447_rgbf000828-resize_1/003492_2014-05-21_15-50-55_094959634447_rgbf000828-resize_1-target.png,250,4.06875,3,6094,249,meters,jsons/v1_VE250_randls_18.json,1452360,2117498,36,Man
117,974329,DepthScenes,duration_manipulation_targetAtFixation,jsons/v1_VE250_randls_18.json,http://54.235.29.9/FacialAge/BNav_EC2/DepthDuration/v2_depth_duration_MTurk/v2_DepthDuration_HTML.html#4,4,1364,625,1364,768,8-29-2022,11-47-56,118,depth_duration_stimuli/002568_2014-06-24_13-59-21_094959634447_rgbf000062-resize_4/002568_2014-06-24_13-59-21_094959634447_rgbf000062-resize_4-target.png,250,3.015,2,5316,249,meters,jsons/v1_VE250_randls_18.json,1452360,2117498,36,Man
118,974329,DepthScenes,duration_manipulation_targetAtFixation,jsons/v1_VE250_randls_18.json,http://54.235.29.9/FacialAge/BNav_EC2/DepthDuration/v2_depth_duration_MTurk/v2_DepthDuration_HTML.html#4,4,1364,625,1364,768,8-29-2022,11-47-56,119,depth_duration_stimuli/001158_2014-06-17_15-32-16_260595134347_rgbf000138-resize_2/001158_2014-06-17_15-32-16_260595134347_rgbf000138-resize_2-target.png,250,4.5315,3,5235,248,meters,jsons/v1_VE250_randls_18.json,1452360,2117498,36,Man
119,974329,DepthScenes,duration_manipulation_targetAtFixation,jsons/v1_VE250_randls_18.json,http://54.235.29.9/FacialAge/BNav_EC2/DepthDuration/v2_depth_duration_MTurk/v2_DepthDuration_HTML.html#4,4,1364,625,1364,768,8-29-2022,11-47-56,120,depth_duration_stimuli/000556_2014-06-09_22-42-56_260595134347_rgbf000214-resize_1/000556_2014-06-09_22-42-56_260595134347_rgbf000214-resize_1-target.png,250,4.8415,1,6547,248,meters,jsons/v1_VE250_randls_18.json,1452360,2117498,36,Man
120,974329,DepthScenes,duration_manipulation_targetAtFixation,jsons/v1_VE250_randls_18.json,http://54.235.29.9/FacialAge/BNav_EC2/DepthDuration/v2_depth_duration_MTurk/v2_DepthDuration_HTML.html#4,4,1364,625,1364,768,8-29-2022,11-47-56,121,depth_duration_stimuli/002784_2014-06-22_19-26-30_094959634447_rgbf000083-resize_3/002784_2014-06-22_19-26-30_094959634447_rgbf000083-resize_3-target.png,250,1.8046666666667,1,8906,248,meters,jsons/v1_VE250_randls_18.json,1452360,2117498,36,Man
121,974329,DepthScenes,duration_manipulation_targetAtFixation,jsons/v1_VE250_randls_18.json,http://54.235.29.9/FacialAge/BNav_EC2/DepthDuration/v2_depth_duration_MTurk/v2_DepthDuration_HTML.html#4,4,1364,625,1364,768,8-29-2022,11-47-56,122,depth_duration_stimuli/001100_2014-06-15_17-46-26_260595134347_rgbf000225-resize_2/001100_2014-06-15_17-46-26_260595134347_rgbf000225-resize_2-target.png,250,2.24,2,7813,249,meters,jsons/v1_VE250_randls_18.json,1452360,2117498,36,Man
122,974329,DepthScenes,duration_manipulation_targetAtFixation,jsons/v1_VE250_randls_18.json,http://54.235.29.9/FacialAge/BNav_EC2/DepthDuration/v2_depth_duration_MTurk/v2_DepthDuration_HTML.html#4,4,1364,625,1364,768,8-29-2022,11-47-56,123,depth_duration_stimuli/003070_2014-06-15_14-58-27_094959634447_rgbf000150-resize_3/003070_2014-06-15_14-58-27_094959634447_rgbf000150-resize_3-target.png,250,2.9415,1,8109,249,meters,jsons/v1_VE250_randls_18.json,1452360,2117498,36,Man
123,974329,DepthScenes,duration_manipulation_targetAtFixation,jsons/v1_VE250_randls_18.json,http://54.235.29.9/FacialAge/BNav_EC2/DepthDuration/v2_depth_duration_MTurk/v2_DepthDuration_HTML.html#4,4,1364,625,1364,768,8-29-2022,11-47-56,124,depth_duration_stimuli/000943_2014-06-09_19-31-07_260595134347_rgbf000128-resize_1/000943_2014-06-09_19-31-07_260595134347_rgbf000128-resize_1-target.png,250,1.9765,1,7235,249,meters,jsons/v1_VE250_randls_18.json,1452360,2117498,36,Man
124,974329,DepthScenes,duration_manipulation_targetAtFixation,jsons/v1_VE250_randls_18.json,http://54.235.29.9/FacialAge/BNav_EC2/DepthDuration/v2_depth_duration_MTurk/v2_DepthDuration_HTML.html#4,4,1364,625,1364,768,8-29-2022,11-47-56,125,depth_duration_stimuli/003534_2014-05-22_15-06-10_094959634447_rgbf000102-resize_4/003534_2014-05-22_15-06-10_094959634447_rgbf000102-resize_4-target.png,250,1.426,1,10000,248,meters,jsons/v1_VE250_randls_18.json,1452360,2117498,36,Man
125,974329,DepthScenes,duration_manipulation_targetAtFixation,jsons/v1_VE250_randls_18.json,http://54.235.29.9/FacialAge/BNav_EC2/DepthDuration/v2_depth_duration_MTurk/v2_DepthDuration_HTML.html#4,4,1364,625,1364,768,8-29-2022,11-47-56,126,depth_duration_stimuli/002637_2014-06-24_14-51-13_094959634447_rgbf000066-resize_4/002637_2014-06-24_14-51-13_094959634447_rgbf000066-resize_4-target.png,250,1.9955,2,5125,248,meters,jsons/v1_VE250_randls_18.json,1452360,2117498,36,Man
126,974329,DepthScenes,duration_manipulation_targetAtFixation,jsons/v1_VE250_randls_18.json,http://54.235.29.9/FacialAge/BNav_EC2/DepthDuration/v2_depth_duration_MTurk/v2_DepthDuration_HTML.html#4,4,1364,625,1364,768,8-29-2022,11-47-56,127,depth_duration_stimuli/000009_2014-05-26_14-32-05_260595134347_rgbf000034-resize_3/000009_2014-05-26_14-32-05_260595134347_rgbf000034-resize_3-target.png,250,3.8715,5,9640,249,meters,jsons/v1_VE250_randls_18.json,1452360,2117498,36,Man
127,974329,DepthScenes,duration_manipulation_targetAtFixation,jsons/v1_VE250_randls_18.json,http://54.235.29.9/FacialAge/BNav_EC2/DepthDuration/v2_depth_duration_MTurk/v2_DepthDuration_HTML.html#4,4,1364,625,1364,768,8-29-2022,11-47-56,128,depth_duration_stimuli/001828_2014-06-26_21-40-03_260595134347_rgbf000024-resize_0/001828_2014-06-26_21-40-03_260595134347_rgbf000024-resize_0-target.png,250,4.8260000000000005,3,7171,249,meters,jsons/v1_VE250_randls_18.json,1452360,2117498,36,Man
128,974329,DepthScenes,duration_manipulation_targetAtFixation,jsons/v1_VE250_randls_18.json,http://54.235.29.9/FacialAge/BNav_EC2/DepthDuration/v2_depth_duration_MTurk/v2_DepthDuration_HTML.html#4,4,1364,625,1364,768,8-29-2022,11-47-56,129,depth_duration_stimuli/001806_2014-06-26_20-50-20_260595134347_rgbf000091-resize_1/001806_2014-06-26_20-50-20_260595134347_rgbf000091-resize_1-target.png,250,2.7305,2,7094,250,meters,jsons/v1_VE250_randls_18.json,1452360,2117498,36,Man
129,974329,DepthScenes,duration_manipulation_targetAtFixation,jsons/v1_VE250_randls_18.json,http://54.235.29.9/FacialAge/BNav_EC2/DepthDuration/v2_depth_duration_MTurk/v2_DepthDuration_HTML.html#4,4,1364,625,1364,768,8-29-2022,11-47-56,130,depth_duration_stimuli/001617_2014-06-20_11-35-32_260595134347_rgbf000066-resize_1/001617_2014-06-20_11-35-32_260595134347_rgbf000066-resize_1-target.png,250,3.7910000000000004,3,6297,249,meters,jsons/v1_VE250_randls_18.json,1452360,2117498,36,Man
130,974329,DepthScenes,duration_manipulation_targetAtFixation,jsons/v1_VE250_randls_18.json,http://54.235.29.9/FacialAge/BNav_EC2/DepthDuration/v2_depth_duration_MTurk/v2_DepthDuration_HTML.html#4,4,1364,625,1364,768,8-29-2022,11-47-56,131,depth_duration_stimuli/002445_2014-06-28_20-32-16_260595134347_rgbf000029-resize_4/002445_2014-06-28_20-32-16_260595134347_rgbf000029-resize_4-target.png,250,2.5315,1,9688,250,meters,jsons/v1_VE250_randls_18.json,1452360,2117498,36,Man
131,974329,DepthScenes,duration_manipulation_targetAtFixation,jsons/v1_VE250_randls_18.json,http://54.235.29.9/FacialAge/BNav_EC2/DepthDuration/v2_depth_duration_MTurk/v2_DepthDuration_HTML.html#4,4,1364,625,1364,768,8-29-2022,11-47-56,132,depth_duration_stimuli/000780_2014-06-08_22-28-29_260595134347_rgbf000126-resize_1/000780_2014-06-08_22-28-29_260595134347_rgbf000126-resize_1-target.png,250,3.3825,2,6891,249,meters,jsons/v1_VE250_randls_18.json,1452360,2117498,36,Man
132,974329,DepthScenes,duration_manipulation_targetAtFixation,jsons/v1_VE250_randls_18.json,http://54.235.29.9/FacialAge/BNav_EC2/DepthDuration/v2_depth_duration_MTurk/v2_DepthDuration_HTML.html#4,4,1364,625,1364,768,8-29-2022,11-47-56,133,depth_duration_stimuli/000917_2014-06-09_22-45-29_260595134347_rgbf000149-resize_3/000917_2014-06-09_22-45-29_260595134347_rgbf000149-resize_3-target.png,250,4.1865,6,9201,229,meters,jsons/v1_VE250_randls_18.json,1452360,2117498,36,Man
133,974329,DepthScenes,duration_manipulation_targetAtFixation,jsons/v1_VE250_randls_18.json,http://54.235.29.9/FacialAge/BNav_EC2/DepthDuration/v2_depth_duration_MTurk/v2_DepthDuration_HTML.html#4,4,1364,625,1364,768,8-29-2022,11-47-56,134,depth_duration_stimuli/002323_2014-06-28_20-01-54_260595134347_rgbf000051-resize_4/002323_2014-06-28_20-01-54_260595134347_rgbf000051-resize_4-target.png,250,3.7310000000000003,5,7985,249,meters,jsons/v1_VE250_randls_18.json,1452360,2117498,36,Man
134,974329,DepthScenes,duration_manipulation_targetAtFixation,jsons/v1_VE250_randls_18.json,http://54.235.29.9/FacialAge/BNav_EC2/DepthDuration/v2_depth_duration_MTurk/v2_DepthDuration_HTML.html#4,4,1364,625,1364,768,8-29-2022,11-47-56,135,depth_duration_stimuli/002072_2014-06-24_21-48-06_260595134347_rgbf000115-resize_0/002072_2014-06-24_21-48-06_260595134347_rgbf000115-resize-original.jpg,250,4.702,0,8589,250,meters,jsons/v1_VE250_randls_18.json,1452360,2117498,36,Man
135,974329,DepthScenes,duration_manipulation_targetAtFixation,jsons/v1_VE250_randls_18.json,http://54.235.29.9/FacialAge/BNav_EC2/DepthDuration/v2_depth_duration_MTurk/v2_DepthDuration_HTML.html#4,4,1364,625,1364,768,8-29-2022,11-47-56,136,depth_duration_stimuli/002043_2014-06-24_20-29-38_260595134347_rgbf000039-resize_4/002043_2014-06-24_20-29-38_260595134347_rgbf000039-resize_4-target.png,250,2.8435,3,10437,249,meters,jsons/v1_VE250_randls_18.json,1452360,2117498,36,Man
136,974329,DepthScenes,duration_manipulation_targetAtFixation,jsons/v1_VE250_randls_18.json,http://54.235.29.9/FacialAge/BNav_EC2/DepthDuration/v2_depth_duration_MTurk/v2_DepthDuration_HTML.html#4,4,1364,625,1364,768,8-29-2022,11-47-56,137,depth_duration_stimuli/003048_2014-06-15_13-49-43_094959634447_rgbf000150-resize_1/003048_2014-06-15_13-49-43_094959634447_rgbf000150-resize_1-target.png,250,4.0035,2,7625,250,meters,jsons/v1_VE250_randls_18.json,1452360,2117498,36,Man
137,974329,DepthScenes,duration_manipulation_targetAtFixation,jsons/v1_VE250_randls_18.json,http://54.235.29.9/FacialAge/BNav_EC2/DepthDuration/v2_depth_duration_MTurk/v2_DepthDuration_HTML.html#4,4,1364,625,1364,768,8-29-2022,11-47-56,138,depth_duration_stimuli/000682_2014-06-08_23-14-58_260595134347_rgbf000041-resize_5/000682_2014-06-08_23-14-58_260595134347_rgbf000041-resize_5-target.png,250,2.7239999999999998,2,8765,249,meters,jsons/v1_VE250_randls_18.json,1452360,2117498,36,Man
138,974329,DepthScenes,duration_manipulation_targetAtFixation,jsons/v1_VE250_randls_18.json,http://54.235.29.9/FacialAge/BNav_EC2/DepthDuration/v2_depth_duration_MTurk/v2_DepthDuration_HTML.html#4,4,1364,625,1364,768,8-29-2022,11-47-56,139,depth_duration_stimuli/001650_2014-06-20_12-09-00_260595134347_rgbf000087-resize_3/001650_2014-06-20_12-09-00_260595134347_rgbf000087-resize_3-target.png,250,1.9505,1,6844,249,meters,jsons/v1_VE250_randls_18.json,1452360,2117498,36,Man
139,974329,DepthScenes,duration_manipulation_targetAtFixation,jsons/v1_VE250_randls_18.json,http://54.235.29.9/FacialAge/BNav_EC2/DepthDuration/v2_depth_duration_MTurk/v2_DepthDuration_HTML.html#4,4,1364,625,1364,768,8-29-2022,11-47-56,140,depth_duration_stimuli/000736_2014-06-08_18-24-15_260595134347_rgbf000206-resize_3/000736_2014-06-08_18-24-15_260595134347_rgbf000206-resize_3-target.png,250,3.515,1,10844,249,meters,jsons/v1_VE250_randls_18.json,1452360,2117498,36,Man
140,974329,DepthScenes,duration_manipulation_targetAtFixation,jsons/v1_VE250_randls_18.json,http://54.235.29.9/FacialAge/BNav_EC2/DepthDuration/v2_depth_duration_MTurk/v2_DepthDuration_HTML.html#4,4,1364,625,1364,768,8-29-2022,11-47-56,141,depth_duration_stimuli/000137_2014-05-20_17-04-49_260595134347_rgbf000120-resize_1/000137_2014-05-20_17-04-49_260595134347_rgbf000120-resize_1-target.png,250,3.786,2,8086,248,meters,jsons/v1_VE250_randls_18.json,1452360,2117498,36,Man
141,974329,DepthScenes,duration_manipulation_targetAtFixation,jsons/v1_VE250_randls_18.json,http://54.235.29.9/FacialAge/BNav_EC2/DepthDuration/v2_depth_duration_MTurk/v2_DepthDuration_HTML.html#4,4,1364,625,1364,768,8-29-2022,11-47-56,142,depth_duration_stimuli/000810_2014-06-08_17-20-01_260595134347_rgbf000105-resize_0/000810_2014-06-08_17-20-01_260595134347_rgbf000105-resize_0-target.png,250,1.4865,2,10333,249,meters,jsons/v1_VE250_randls_18.json,1452360,2117498,36,Man
142,974329,DepthScenes,duration_manipulation_targetAtFixation,jsons/v1_VE250_randls_18.json,http://54.235.29.9/FacialAge/BNav_EC2/DepthDuration/v2_depth_duration_MTurk/v2_DepthDuration_HTML.html#4,4,1364,625,1364,768,8-29-2022,11-47-56,143,depth_duration_stimuli/001214_2014-06-17_16-13-55_260595134347_rgbf000111-resize_0/001214_2014-06-17_16-13-55_260595134347_rgbf000111-resize_0-target.png,250,2.6505,1,7309,248,meters,jsons/v1_VE250_randls_18.json,1452360,2117498,36,Man
143,974329,DepthScenes,duration_manipulation_targetAtFixation,jsons/v1_VE250_randls_18.json,http://54.235.29.9/FacialAge/BNav_EC2/DepthDuration/v2_depth_duration_MTurk/v2_DepthDuration_HTML.html#4,4,1364,625,1364,768,8-29-2022,11-47-56,144,depth_duration_stimuli/002964_2014-06-08_17-46-11_094959634447_rgbf000091-resize_4/002964_2014-06-08_17-46-11_094959634447_rgbf000091-resize_4-target.png,250,1.6909999999999998,1,7534,249,meters,jsons/v1_VE250_randls_18.json,1452360,2117498,36,Man
144,974329,DepthScenes,duration_manipulation_targetAtFixation,jsons/v1_VE250_randls_18.json,http://54.235.29.9/FacialAge/BNav_EC2/DepthDuration/v2_depth_duration_MTurk/v2_DepthDuration_HTML.html#4,4,1364,625,1364,768,8-29-2022,11-47-56,145,depth_duration_stimuli/002136_2014-06-25_21-18-03_260595134347_rgbf000109-resize_3/002136_2014-06-25_21-18-03_260595134347_rgbf000109-resize_3-target.png,250,1.9569999999999999,2,5889,264,meters,jsons/v1_VE250_randls_18.json,1452360,2117498,36,Man
145,974329,DepthScenes,duration_manipulation_targetAtFixation,jsons/v1_VE250_randls_18.json,http://54.235.29.9/FacialAge/BNav_EC2/DepthDuration/v2_depth_duration_MTurk/v2_DepthDuration_HTML.html#4,4,1364,625,1364,768,8-29-2022,11-47-56,146,depth_duration_stimuli/001498_2014-06-19_17-45-14_260595134347_rgbf000129-resize_4/001498_2014-06-19_17-45-14_260595134347_rgbf000129-resize-original.jpg,250,1.4075,0,12542,248,meters,jsons/v1_VE250_randls_18.json,1452360,2117498,36,Man
146,974329,DepthScenes,duration_manipulation_targetAtFixation,jsons/v1_VE250_randls_18.json,http://54.235.29.9/FacialAge/BNav_EC2/DepthDuration/v2_depth_duration_MTurk/v2_DepthDuration_HTML.html#4,4,1364,625,1364,768,8-29-2022,11-47-56,147,depth_duration_stimuli/001244_2014-06-17_16-47-45_260595134347_rgbf000030-resize_4/001244_2014-06-17_16-47-45_260595134347_rgbf000030-resize_4-target.png,250,2.0425,1,6703,249,meters,jsons/v1_VE250_randls_18.json,1452360,2117498,36,Man
147,974329,DepthScenes,duration_manipulation_targetAtFixation,jsons/v1_VE250_randls_18.json,http://54.235.29.9/FacialAge/BNav_EC2/DepthDuration/v2_depth_duration_MTurk/v2_DepthDuration_HTML.html#4,4,1364,625,1364,768,8-29-2022,11-47-56,148,depth_duration_stimuli/003495_2014-05-21_16-01-51_094959634447_rgbf000100-resize_3/003495_2014-05-21_16-01-51_094959634447_rgbf000100-resize_3-target.png,250,1.6255,2,4187,249,meters,jsons/v1_VE250_randls_18.json,1452360,2117498,36,Man
148,974329,DepthScenes,duration_manipulation_targetAtFixation,jsons/v1_VE250_randls_18.json,http://54.235.29.9/FacialAge/BNav_EC2/DepthDuration/v2_depth_duration_MTurk/v2_DepthDuration_HTML.html#4,4,1364,625,1364,768,8-29-2022,11-47-56,149,depth_duration_stimuli/001167_2014-06-17_15-38-07_260595134347_rgbf000108-resize_0/001167_2014-06-17_15-38-07_260595134347_rgbf000108-resize_0-target.png,250,1.8505,2,6934,249,meters,jsons/v1_VE250_randls_18.json,1452360,2117498,36,Man
149,974329,DepthScenes,duration_manipulation_targetAtFixation,jsons/v1_VE250_randls_18.json,http://54.235.29.9/FacialAge/BNav_EC2/DepthDuration/v2_depth_duration_MTurk/v2_DepthDuration_HTML.html#4,4,1364,625,1364,768,8-29-2022,11-47-56,150,depth_duration_stimuli/003587_2014-05-23_16-48-02_094959634447_rgbf002384-resize_2/003587_2014-05-23_16-48-02_094959634447_rgbf002384-resize_2-target.png,250,1.357,1,5656,249,meters,jsons/v1_VE250_randls_18.json,1452360,2117498,36,Man
150,974329,DepthScenes,duration_manipulation_targetAtFixation,jsons/v1_VE250_randls_18.json,http://54.235.29.9/FacialAge/BNav_EC2/DepthDuration/v2_depth_duration_MTurk/v2_DepthDuration_HTML.html#4,4,1364,625,1364,768,8-29-2022,11-47-56,151,depth_duration_stimuli/001164_2014-06-17_15-35-46_260595134347_rgbf000085-resize_3/001164_2014-06-17_15-35-46_260595134347_rgbf000085-resize_3-target.png,250,2.354,3,8891,250,meters,jsons/v1_VE250_randls_18.json,1452360,2117498,36,Man
151,974329,DepthScenes,duration_manipulation_targetAtFixation,jsons/v1_VE250_randls_18.json,http://54.235.29.9/FacialAge/BNav_EC2/DepthDuration/v2_depth_duration_MTurk/v2_DepthDuration_HTML.html#4,4,1364,625,1364,768,8-29-2022,11-47-56,152,depth_duration_stimuli/001136_2014-06-17_15-19-41_260595134347_rgbf000076-resize_3/001136_2014-06-17_15-19-41_260595134347_rgbf000076-resize_3-target.png,250,1.8655,2,5110,248,meters,jsons/v1_VE250_randls_18.json,1452360,2117498,36,Man
152,974329,DepthScenes,duration_manipulation_targetAtFixation,jsons/v1_VE250_randls_18.json,http://54.235.29.9/FacialAge/BNav_EC2/DepthDuration/v2_depth_duration_MTurk/v2_DepthDuration_HTML.html#4,4,1364,625,1364,768,8-29-2022,11-47-56,153,depth_duration_stimuli/002039_2014-06-24_20-22-38_260595134347_rgbf000084-resize_1/002039_2014-06-24_20-22-38_260595134347_rgbf000084-resize_1-target.png,250,4.408,6,10321,249,meters,jsons/v1_VE250_randls_18.json,1452360,2117498,36,Man
153,974329,DepthScenes,duration_manipulation_targetAtFixation,jsons/v1_VE250_randls_18.json,http://54.235.29.9/FacialAge/BNav_EC2/DepthDuration/v2_depth_duration_MTurk/v2_DepthDuration_HTML.html#4,4,1364,625,1364,768,8-29-2022,11-47-56,154,depth_duration_stimuli/002103_2014-06-25_20-00-40_260595134347_rgbf000049-resize_0/002103_2014-06-25_20-00-40_260595134347_rgbf000049-resize_0-target.png,250,4.105,5,5390,249,meters,jsons/v1_VE250_randls_18.json,1452360,2117498,36,Man
154,974329,DepthScenes,duration_manipulation_targetAtFixation,jsons/v1_VE250_randls_18.json,http://54.235.29.9/FacialAge/BNav_EC2/DepthDuration/v2_depth_duration_MTurk/v2_DepthDuration_HTML.html#4,4,1364,625,1364,768,8-29-2022,11-47-56,155,depth_duration_stimuli/001011_2014-06-08_23-18-54_260595134347_rgbf000044-resize_4/001011_2014-06-08_23-18-54_260595134347_rgbf000044-resize_4-target.png,250,2.4730000000000003,3,5437,249,meters,jsons/v1_VE250_randls_18.json,1452360,2117498,36,Man
155,974329,DepthScenes,duration_manipulation_targetAtFixation,jsons/v1_VE250_randls_18.json,http://54.235.29.9/FacialAge/BNav_EC2/DepthDuration/v2_depth_duration_MTurk/v2_DepthDuration_HTML.html#4,4,1364,625,1364,768,8-29-2022,11-47-56,156,depth_duration_stimuli/002875_2014-06-01_15-19-00_094959634447_rgbf000151-resize_1/002875_2014-06-01_15-19-00_094959634447_rgbf000151-resize_1-target.png,250,1.9675,5,4270,249,meters,jsons/v1_VE250_randls_18.json,1452360,2117498,36,Man
156,974329,DepthScenes,duration_manipulation_targetAtFixation,jsons/v1_VE250_randls_18.json,http://54.235.29.9/FacialAge/BNav_EC2/DepthDuration/v2_depth_duration_MTurk/v2_DepthDuration_HTML.html#4,4,1364,625,1364,768,8-29-2022,11-47-56,157,depth_duration_stimuli/001150_2014-06-17_15-27-34_260595134347_rgbf000108-resize_2/001150_2014-06-17_15-27-34_260595134347_rgbf000108-resize_2-target.png,250,4.0325,5,7094,250,meters,jsons/v1_VE250_randls_18.json,1452360,2117498,36,Man
157,974329,DepthScenes,duration_manipulation_targetAtFixation,jsons/v1_VE250_randls_18.json,http://54.235.29.9/FacialAge/BNav_EC2/DepthDuration/v2_depth_duration_MTurk/v2_DepthDuration_HTML.html#4,4,1364,625,1364,768,8-29-2022,11-47-56,158,depth_duration_stimuli/000665_2014-06-09_20-42-35_260595134347_rgbf000110-resize_1/000665_2014-06-09_20-42-35_260595134347_rgbf000110-resize_1-target.png,250,3.057,7,4812,248,meters,jsons/v1_VE250_randls_18.json,1452360,2117498,36,Man
158,974329,DepthScenes,duration_manipulation_targetAtFixation,jsons/v1_VE250_randls_18.json,http://54.235.29.9/FacialAge/BNav_EC2/DepthDuration/v2_depth_duration_MTurk/v2_DepthDuration_HTML.html#4,4,1364,625,1364,768,8-29-2022,11-47-56,159,depth_duration_stimuli/002763_2014-06-22_19-13-10_094959634447_rgbf000075-resize_4/002763_2014-06-22_19-13-10_094959634447_rgbf000075-resize_4-target.png,250,1.68375,4,5080,251,meters,jsons/v1_VE250_randls_18.json,1452360,2117498,36,Man
159,974329,DepthScenes,duration_manipulation_targetAtFixation,jsons/v1_VE250_randls_18.json,http://54.235.29.9/FacialAge/BNav_EC2/DepthDuration/v2_depth_duration_MTurk/v2_DepthDuration_HTML.html#4,4,1364,625,1364,768,8-29-2022,11-47-56,160,depth_duration_stimuli/002209_2014-06-28_18-36-10_260595134347_rgbf000051-resize_1/002209_2014-06-28_18-36-10_260595134347_rgbf000051-resize_1-target.png,250,2.057,5,5593,248,meters,jsons/v1_VE250_randls_18.json,1452360,2117498,36,Man
160,974329,DepthScenes,duration_manipulation_targetAtFixation,jsons/v1_VE250_randls_18.json,http://54.235.29.9/FacialAge/BNav_EC2/DepthDuration/v2_depth_duration_MTurk/v2_DepthDuration_HTML.html#4,4,1364,625,1364,768,8-29-2022,11-47-56,161,depth_duration_stimuli/003292_2014-05-14_21-53-49_094959634447_rgbf000100-resize_2/003292_2014-05-14_21-53-49_094959634447_rgbf000100-resize_2-target.png,250,3.4815,3,7672,248,meters,jsons/v1_VE250_randls_18.json,1452360,2117498,36,Man
161,974329,DepthScenes,duration_manipulation_targetAtFixation,jsons/v1_VE250_randls_18.json,http://54.235.29.9/FacialAge/BNav_EC2/DepthDuration/v2_depth_duration_MTurk/v2_DepthDuration_HTML.html#4,4,1364,625,1364,768,8-29-2022,11-47-56,162,depth_duration_stimuli/002639_2014-06-24_14-51-37_094959634447_rgbf000074-resize_4/002639_2014-06-24_14-51-37_094959634447_rgbf000074-resize_4-target.png,250,4.0375,5,4014,248,meters,jsons/v1_VE250_randls_18.json,1452360,2117498,36,Man
162,974329,DepthScenes,duration_manipulation_targetAtFixation,jsons/v1_VE250_randls_18.json,http://54.235.29.9/FacialAge/BNav_EC2/DepthDuration/v2_depth_duration_MTurk/v2_DepthDuration_HTML.html#4,4,1364,625,1364,768,8-29-2022,11-47-56,163,depth_duration_stimuli/000470_2014-06-09_19-42-40_260595134347_rgbf000094-resize_1/000470_2014-06-09_19-42-40_260595134347_rgbf000094-resize_1-target.png,250,1.831,2,4609,250,meters,jsons/v1_VE250_randls_18.json,1452360,2117498,36,Man
163,974329,DepthScenes,duration_manipulation_targetAtFixation,jsons/v1_VE250_randls_18.json,http://54.235.29.9/FacialAge/BNav_EC2/DepthDuration/v2_depth_duration_MTurk/v2_DepthDuration_HTML.html#4,4,1364,625,1364,768,8-29-2022,11-47-56,164,depth_duration_stimuli/000109_2014-05-14_23-41-52_260595134347_rgbf000035-resize_9/000109_2014-05-14_23-41-52_260595134347_rgbf000035-resize_9-target.png,250,1.3545,1,6297,249,meters,jsons/v1_VE250_randls_18.json,1452360,2117498,36,Man
