,subjID,experimentName,versionName,sequenceName,url,selected_row,windowWidth,windowHeight,screenWidth,screenHeight,startDate,startTime,trial,stimulus,duration,actual_depth,depth_estimate,trial_RT,log_sceneDuration,unitSelection,seq_filepath,experimentTime,totalTime,age,gender
0,975399,DepthScenes,duration_manipulation_targetAtFixation,jsons/v1_VE1000_randls_31_rotated.json,http://54.235.29.9/FacialAge/BNav_EC2/DepthDuration/v2_depth_duration_MTurk/v2_DepthDuration_HTML.html#196,196,1366,768,1366,768,8-29-2022,9-2-57,1,depth_duration_stimuli/001136_2014-06-17_15-19-41_260595134347_rgbf000076-resize_3/001136_2014-06-17_15-19-41_260595134347_rgbf000076-resize_3-target.png,1000,1.8655,8,3002,1013,feet,jsons/v1_VE1000_randls_31_rotated.json,1066759,1160737,25,Man
1,975399,DepthScenes,duration_manipulation_targetAtFixation,jsons/v1_VE1000_randls_31_rotated.json,http://54.235.29.9/FacialAge/BNav_EC2/DepthDuration/v2_depth_duration_MTurk/v2_DepthDuration_HTML.html#196,196,1366,768,1366,768,8-29-2022,9-2-57,2,depth_duration_stimuli/001164_2014-06-17_15-35-46_260595134347_rgbf000085-resize_3/001164_2014-06-17_15-35-46_260595134347_rgbf000085-resize_3-target.png,1000,2.354,7,2580,992,feet,jsons/v1_VE1000_randls_31_rotated.json,1066759,1160737,25,Man
2,975399,DepthScenes,duration_manipulation_targetAtFixation,jsons/v1_VE1000_randls_31_rotated.json,http://54.235.29.9/FacialAge/BNav_EC2/DepthDuration/v2_depth_duration_MTurk/v2_DepthDuration_HTML.html#196,196,1366,768,1366,768,8-29-2022,9-2-57,3,depth_duration_stimuli/001828_2014-06-26_21-40-03_260595134347_rgbf000024-resize_0/001828_2014-06-26_21-40-03_260595134347_rgbf000024-resize_0-target.png,1000,4.8260000000000005,8,2731,1001,feet,jsons/v1_VE1000_randls_31_rotated.json,1066759,1160737,25,Man
3,975399,DepthScenes,duration_manipulation_targetAtFixation,jsons/v1_VE1000_randls_31_rotated.json,http://54.235.29.9/FacialAge/BNav_EC2/DepthDuration/v2_depth_duration_MTurk/v2_DepthDuration_HTML.html#196,196,1366,768,1366,768,8-29-2022,9-2-57,4,depth_duration_stimuli/000009_2014-05-26_14-32-05_260595134347_rgbf000034-resize_3/000009_2014-05-26_14-32-05_260595134347_rgbf000034-resize_3-target.png,1000,3.8715,9,3703,987,feet,jsons/v1_VE1000_randls_31_rotated.json,1066759,1160737,25,Man
4,975399,DepthScenes,duration_manipulation_targetAtFixation,jsons/v1_VE1000_randls_31_rotated.json,http://54.235.29.9/FacialAge/BNav_EC2/DepthDuration/v2_depth_duration_MTurk/v2_DepthDuration_HTML.html#196,196,1366,768,1366,768,8-29-2022,9-2-57,5,depth_duration_stimuli/002340_2014-06-28_20-05-46_260595134347_rgbf000113-resize_0/002340_2014-06-28_20-05-46_260595134347_rgbf000113-resize_0-target.png,1000,2.4735,8,2879,996,feet,jsons/v1_VE1000_randls_31_rotated.json,1066759,1160737,25,Man
5,975399,DepthScenes,duration_manipulation_targetAtFixation,jsons/v1_VE1000_randls_31_rotated.json,http://54.235.29.9/FacialAge/BNav_EC2/DepthDuration/v2_depth_duration_MTurk/v2_DepthDuration_HTML.html#196,196,1366,768,1366,768,8-29-2022,9-2-57,6,depth_duration_stimuli/001016_2014-06-09_16-16-10_260595134347_rgbf000112-resize_5/001016_2014-06-09_16-16-10_260595134347_rgbf000112-resize_5-target.png,1000,1.6565,7,2551,997,feet,jsons/v1_VE1000_randls_31_rotated.json,1066759,1160737,25,Man
6,975399,DepthScenes,duration_manipulation_targetAtFixation,jsons/v1_VE1000_randls_31_rotated.json,http://54.235.29.9/FacialAge/BNav_EC2/DepthDuration/v2_depth_duration_MTurk/v2_DepthDuration_HTML.html#196,196,1366,768,1366,768,8-29-2022,9-2-57,7,depth_duration_stimuli/001617_2014-06-20_11-35-32_260595134347_rgbf000066-resize_1/001617_2014-06-20_11-35-32_260595134347_rgbf000066-resize_1-target.png,1000,3.7910000000000004,8,2454,991,feet,jsons/v1_VE1000_randls_31_rotated.json,1066759,1160737,25,Man
7,975399,DepthScenes,duration_manipulation_targetAtFixation,jsons/v1_VE1000_randls_31_rotated.json,http://54.235.29.9/FacialAge/BNav_EC2/DepthDuration/v2_depth_duration_MTurk/v2_DepthDuration_HTML.html#196,196,1366,768,1366,768,8-29-2022,9-2-57,8,depth_duration_stimuli/001806_2014-06-26_20-50-20_260595134347_rgbf000091-resize_1/001806_2014-06-26_20-50-20_260595134347_rgbf000091-resize_1-target.png,1000,2.7305,5,2575,990,feet,jsons/v1_VE1000_randls_31_rotated.json,1066759,1160737,25,Man
8,975399,DepthScenes,duration_manipulation_targetAtFixation,jsons/v1_VE1000_randls_31_rotated.json,http://54.235.29.9/FacialAge/BNav_EC2/DepthDuration/v2_depth_duration_MTurk/v2_DepthDuration_HTML.html#196,196,1366,768,1366,768,8-29-2022,9-2-57,9,depth_duration_stimuli/000502_2014-06-08_23-02-32_260595134347_rgbf000063-resize_4/000502_2014-06-08_23-02-32_260595134347_rgbf000063-resize_4-target.png,1000,2.431,4,2528,997,feet,jsons/v1_VE1000_randls_31_rotated.json,1066759,1160737,25,Man
9,975399,DepthScenes,duration_manipulation_targetAtFixation,jsons/v1_VE1000_randls_31_rotated.json,http://54.235.29.9/FacialAge/BNav_EC2/DepthDuration/v2_depth_duration_MTurk/v2_DepthDuration_HTML.html#196,196,1366,768,1366,768,8-29-2022,9-2-57,10,depth_duration_stimuli/001199_2014-06-17_16-03-48_260595134347_rgbf000077-resize_0/001199_2014-06-17_16-03-48_260595134347_rgbf000077-resize_0-target.png,1000,3.4375,7,3066,992,feet,jsons/v1_VE1000_randls_31_rotated.json,1066759,1160737,25,Man
10,975399,DepthScenes,duration_manipulation_targetAtFixation,jsons/v1_VE1000_randls_31_rotated.json,http://54.235.29.9/FacialAge/BNav_EC2/DepthDuration/v2_depth_duration_MTurk/v2_DepthDuration_HTML.html#196,196,1366,768,1366,768,8-29-2022,9-2-57,11,depth_duration_stimuli/000709_2014-06-08_13-51-55_260595134347_rgbf000068-resize_3/000709_2014-06-08_13-51-55_260595134347_rgbf000068-resize_3-target.png,1000,1.8030000000000002,8,3595,997,feet,jsons/v1_VE1000_randls_31_rotated.json,1066759,1160737,25,Man
11,975399,DepthScenes,duration_manipulation_targetAtFixation,jsons/v1_VE1000_randls_31_rotated.json,http://54.235.29.9/FacialAge/BNav_EC2/DepthDuration/v2_depth_duration_MTurk/v2_DepthDuration_HTML.html#196,196,1366,768,1366,768,8-29-2022,9-2-57,12,depth_duration_stimuli/002057_2014-06-24_21-00-13_260595134347_rgbf000120-resize_1/002057_2014-06-24_21-00-13_260595134347_rgbf000120-resize_1-target.png,1000,2.967,9,5081,1006,feet,jsons/v1_VE1000_randls_31_rotated.json,1066759,1160737,25,Man
12,975399,DepthScenes,duration_manipulation_targetAtFixation,jsons/v1_VE1000_randls_31_rotated.json,http://54.235.29.9/FacialAge/BNav_EC2/DepthDuration/v2_depth_duration_MTurk/v2_DepthDuration_HTML.html#196,196,1366,768,1366,768,8-29-2022,9-2-57,13,depth_duration_stimuli/000665_2014-06-09_20-42-35_260595134347_rgbf000110-resize_1/000665_2014-06-09_20-42-35_260595134347_rgbf000110-resize_1-target.png,1000,3.057,6,4258,1001,feet,jsons/v1_VE1000_randls_31_rotated.json,1066759,1160737,25,Man
13,975399,DepthScenes,duration_manipulation_targetAtFixation,jsons/v1_VE1000_randls_31_rotated.json,http://54.235.29.9/FacialAge/BNav_EC2/DepthDuration/v2_depth_duration_MTurk/v2_DepthDuration_HTML.html#196,196,1366,768,1366,768,8-29-2022,9-2-57,14,depth_duration_stimuli/001150_2014-06-17_15-27-34_260595134347_rgbf000108-resize_2/001150_2014-06-17_15-27-34_260595134347_rgbf000108-resize_2-target.png,1000,4.0325,8,3471,1000,feet,jsons/v1_VE1000_randls_31_rotated.json,1066759,1160737,25,Man
14,975399,DepthScenes,duration_manipulation_targetAtFixation,jsons/v1_VE1000_randls_31_rotated.json,http://54.235.29.9/FacialAge/BNav_EC2/DepthDuration/v2_depth_duration_MTurk/v2_DepthDuration_HTML.html#196,196,1366,768,1366,768,8-29-2022,9-2-57,15,depth_duration_stimuli/000734_2014-06-08_17-39-11_260595134347_rgbf000128-resize_2/000734_2014-06-08_17-39-11_260595134347_rgbf000128-resize_2-target.png,1000,4.098,8,3891,1000,feet,jsons/v1_VE1000_randls_31_rotated.json,1066759,1160737,25,Man
15,975399,DepthScenes,duration_manipulation_targetAtFixation,jsons/v1_VE1000_randls_31_rotated.json,http://54.235.29.9/FacialAge/BNav_EC2/DepthDuration/v2_depth_duration_MTurk/v2_DepthDuration_HTML.html#196,196,1366,768,1366,768,8-29-2022,9-2-57,16,depth_duration_stimuli/000739_2014-06-08_18-45-58_260595134347_rgbf000068-resize_1/000739_2014-06-08_18-45-58_260595134347_rgbf000068-resize_1-target.png,1000,3.534,8,3315,1001,feet,jsons/v1_VE1000_randls_31_rotated.json,1066759,1160737,25,Man
16,975399,DepthScenes,duration_manipulation_targetAtFixation,jsons/v1_VE1000_randls_31_rotated.json,http://54.235.29.9/FacialAge/BNav_EC2/DepthDuration/v2_depth_duration_MTurk/v2_DepthDuration_HTML.html#196,196,1366,768,1366,768,8-29-2022,9-2-57,17,depth_duration_stimuli/000635_2014-06-08_16-38-42_260595134347_rgbf000106-resize_1/000635_2014-06-08_16-38-42_260595134347_rgbf000106-resize_1-target.png,1000,2.074,8,2955,1009,feet,jsons/v1_VE1000_randls_31_rotated.json,1066759,1160737,25,Man
17,975399,DepthScenes,duration_manipulation_targetAtFixation,jsons/v1_VE1000_randls_31_rotated.json,http://54.235.29.9/FacialAge/BNav_EC2/DepthDuration/v2_depth_duration_MTurk/v2_DepthDuration_HTML.html#196,196,1366,768,1366,768,8-29-2022,9-2-57,18,depth_duration_stimuli/002279_2014-06-28_18-55-32_260595134347_rgbf000040-resize_5/002279_2014-06-28_18-55-32_260595134347_rgbf000040-resize_5-target.png,1000,1.5043333333333,5,3957,991,feet,jsons/v1_VE1000_randls_31_rotated.json,1066759,1160737,25,Man
18,975399,DepthScenes,duration_manipulation_targetAtFixation,jsons/v1_VE1000_randls_31_rotated.json,http://54.235.29.9/FacialAge/BNav_EC2/DepthDuration/v2_depth_duration_MTurk/v2_DepthDuration_HTML.html#196,196,1366,768,1366,768,8-29-2022,9-2-57,19,depth_duration_stimuli/001498_2014-06-19_17-45-14_260595134347_rgbf000129-resize_4/001498_2014-06-19_17-45-14_260595134347_rgbf000129-resize-original.jpg,1000,1.4075,0,3295,1003,feet,jsons/v1_VE1000_randls_31_rotated.json,1066759,1160737,25,Man
19,975399,DepthScenes,duration_manipulation_targetAtFixation,jsons/v1_VE1000_randls_31_rotated.json,http://54.235.29.9/FacialAge/BNav_EC2/DepthDuration/v2_depth_duration_MTurk/v2_DepthDuration_HTML.html#196,196,1366,768,1366,768,8-29-2022,9-2-57,20,depth_duration_stimuli/003083_2014-06-15_15-21-03_094959634447_rgbf000063-resize_1/003083_2014-06-15_15-21-03_094959634447_rgbf000063-resize_1-target.png,1000,4.1405,7,2731,1014,feet,jsons/v1_VE1000_randls_31_rotated.json,1066759,1160737,25,Man
20,975399,DepthScenes,duration_manipulation_targetAtFixation,jsons/v1_VE1000_randls_31_rotated.json,http://54.235.29.9/FacialAge/BNav_EC2/DepthDuration/v2_depth_duration_MTurk/v2_DepthDuration_HTML.html#196,196,1366,768,1366,768,8-29-2022,9-2-57,21,depth_duration_stimuli/000486_2014-06-09_20-47-20_260595134347_rgbf000143-resize_2/000486_2014-06-09_20-47-20_260595134347_rgbf000143-resize_2-target.png,1000,4.8325,6,2699,1006,feet,jsons/v1_VE1000_randls_31_rotated.json,1066759,1160737,25,Man
21,975399,DepthScenes,duration_manipulation_targetAtFixation,jsons/v1_VE1000_randls_31_rotated.json,http://54.235.29.9/FacialAge/BNav_EC2/DepthDuration/v2_depth_duration_MTurk/v2_DepthDuration_HTML.html#196,196,1366,768,1366,768,8-29-2022,9-2-57,22,depth_duration_stimuli/001132_2014-06-17_14-48-54_260595134347_rgbf000100-resize_2/001132_2014-06-17_14-48-54_260595134347_rgbf000100-resize_2-target.png,1000,3.753,7,3558,994,feet,jsons/v1_VE1000_randls_31_rotated.json,1066759,1160737,25,Man
22,975399,DepthScenes,duration_manipulation_targetAtFixation,jsons/v1_VE1000_randls_31_rotated.json,http://54.235.29.9/FacialAge/BNav_EC2/DepthDuration/v2_depth_duration_MTurk/v2_DepthDuration_HTML.html#196,196,1366,768,1366,768,8-29-2022,9-2-57,23,depth_duration_stimuli/001133_2014-06-17_14-49-16_260595134347_rgbf000100-resize_0/001133_2014-06-17_14-49-16_260595134347_rgbf000100-resize_0-target.png,1000,4.2115,6,3696,1000,feet,jsons/v1_VE1000_randls_31_rotated.json,1066759,1160737,25,Man
23,975399,DepthScenes,duration_manipulation_targetAtFixation,jsons/v1_VE1000_randls_31_rotated.json,http://54.235.29.9/FacialAge/BNav_EC2/DepthDuration/v2_depth_duration_MTurk/v2_DepthDuration_HTML.html#196,196,1366,768,1366,768,8-29-2022,9-2-57,24,depth_duration_stimuli/001650_2014-06-20_12-09-00_260595134347_rgbf000087-resize_3/001650_2014-06-20_12-09-00_260595134347_rgbf000087-resize_3-target.png,1000,1.9505,3,2553,999,feet,jsons/v1_VE1000_randls_31_rotated.json,1066759,1160737,25,Man
24,975399,DepthScenes,duration_manipulation_targetAtFixation,jsons/v1_VE1000_randls_31_rotated.json,http://54.235.29.9/FacialAge/BNav_EC2/DepthDuration/v2_depth_duration_MTurk/v2_DepthDuration_HTML.html#196,196,1366,768,1366,768,8-29-2022,9-2-57,25,depth_duration_stimuli/000682_2014-06-08_23-14-58_260595134347_rgbf000041-resize_5/000682_2014-06-08_23-14-58_260595134347_rgbf000041-resize_5-target.png,1000,2.7239999999999998,4,3037,1000,feet,jsons/v1_VE1000_randls_31_rotated.json,1066759,1160737,25,Man
25,975399,DepthScenes,duration_manipulation_targetAtFixation,jsons/v1_VE1000_randls_31_rotated.json,http://54.235.29.9/FacialAge/BNav_EC2/DepthDuration/v2_depth_duration_MTurk/v2_DepthDuration_HTML.html#196,196,1366,768,1366,768,8-29-2022,9-2-57,26,depth_duration_stimuli/000691_2014-06-08_13-08-50_260595134347_rgbf000132-resize_3/000691_2014-06-08_13-08-50_260595134347_rgbf000132-resize_3-target.png,1000,4.1530000000000005,5,2635,992,feet,jsons/v1_VE1000_randls_31_rotated.json,1066759,1160737,25,Man
26,975399,DepthScenes,duration_manipulation_targetAtFixation,jsons/v1_VE1000_randls_31_rotated.json,http://54.235.29.9/FacialAge/BNav_EC2/DepthDuration/v2_depth_duration_MTurk/v2_DepthDuration_HTML.html#196,196,1366,768,1366,768,8-29-2022,9-2-57,27,depth_duration_stimuli/002213_2014-06-28_18-37-58_260595134347_rgbf000055-resize_1/002213_2014-06-28_18-37-58_260595134347_rgbf000055-resize_1-target.png,1000,3.62,5,4014,994,feet,jsons/v1_VE1000_randls_31_rotated.json,1066759,1160737,25,Man
27,975399,DepthScenes,duration_manipulation_targetAtFixation,jsons/v1_VE1000_randls_31_rotated.json,http://54.235.29.9/FacialAge/BNav_EC2/DepthDuration/v2_depth_duration_MTurk/v2_DepthDuration_HTML.html#196,196,1366,768,1366,768,8-29-2022,9-2-57,28,depth_duration_stimuli/002637_2014-06-24_14-51-13_094959634447_rgbf000066-resize_4/002637_2014-06-24_14-51-13_094959634447_rgbf000066-resize_4-target.png,1000,1.9955,7,3300,996,feet,jsons/v1_VE1000_randls_31_rotated.json,1066759,1160737,25,Man
28,975399,DepthScenes,duration_manipulation_targetAtFixation,jsons/v1_VE1000_randls_31_rotated.json,http://54.235.29.9/FacialAge/BNav_EC2/DepthDuration/v2_depth_duration_MTurk/v2_DepthDuration_HTML.html#196,196,1366,768,1366,768,8-29-2022,9-2-57,29,depth_duration_stimuli/003534_2014-05-22_15-06-10_094959634447_rgbf000102-resize_4/003534_2014-05-22_15-06-10_094959634447_rgbf000102-resize_4-target.png,1000,1.426,3,2943,993,feet,jsons/v1_VE1000_randls_31_rotated.json,1066759,1160737,25,Man
29,975399,DepthScenes,duration_manipulation_targetAtFixation,jsons/v1_VE1000_randls_31_rotated.json,http://54.235.29.9/FacialAge/BNav_EC2/DepthDuration/v2_depth_duration_MTurk/v2_DepthDuration_HTML.html#196,196,1366,768,1366,768,8-29-2022,9-2-57,30,depth_duration_stimuli/002072_2014-06-24_21-48-06_260595134347_rgbf000115-resize_0/002072_2014-06-24_21-48-06_260595134347_rgbf000115-resize-original.jpg,1000,4.702,0,6289,998,feet,jsons/v1_VE1000_randls_31_rotated.json,1066759,1160737,25,Man
30,975399,DepthScenes,duration_manipulation_targetAtFixation,jsons/v1_VE1000_randls_31_rotated.json,http://54.235.29.9/FacialAge/BNav_EC2/DepthDuration/v2_depth_duration_MTurk/v2_DepthDuration_HTML.html#196,196,1366,768,1366,768,8-29-2022,9-2-57,31,depth_duration_stimuli/001235_2014-06-17_16-37-36_260595134347_rgbf000084-resize_4/001235_2014-06-17_16-37-36_260595134347_rgbf000084-resize_4-target.png,1000,3.6605,5,2505,1012,feet,jsons/v1_VE1000_randls_31_rotated.json,1066759,1160737,25,Man
31,975399,DepthScenes,duration_manipulation_targetAtFixation,jsons/v1_VE1000_randls_31_rotated.json,http://54.235.29.9/FacialAge/BNav_EC2/DepthDuration/v2_depth_duration_MTurk/v2_DepthDuration_HTML.html#196,196,1366,768,1366,768,8-29-2022,9-2-57,32,depth_duration_stimuli/000788_2014-06-08_22-34-36_260595134347_rgbf000131-resize_1/000788_2014-06-08_22-34-36_260595134347_rgbf000131-resize_1-target.png,1000,3.359,5,2513,998,feet,jsons/v1_VE1000_randls_31_rotated.json,1066759,1160737,25,Man
32,975399,DepthScenes,duration_manipulation_targetAtFixation,jsons/v1_VE1000_randls_31_rotated.json,http://54.235.29.9/FacialAge/BNav_EC2/DepthDuration/v2_depth_duration_MTurk/v2_DepthDuration_HTML.html#196,196,1366,768,1366,768,8-29-2022,9-2-57,33,depth_duration_stimuli/002136_2014-06-25_21-18-03_260595134347_rgbf000109-resize_3/002136_2014-06-25_21-18-03_260595134347_rgbf000109-resize_3-target.png,1000,1.9569999999999999,6,2499,1000,feet,jsons/v1_VE1000_randls_31_rotated.json,1066759,1160737,25,Man
33,975399,DepthScenes,duration_manipulation_targetAtFixation,jsons/v1_VE1000_randls_31_rotated.json,http://54.235.29.9/FacialAge/BNav_EC2/DepthDuration/v2_depth_duration_MTurk/v2_DepthDuration_HTML.html#196,196,1366,768,1366,768,8-29-2022,9-2-57,34,depth_duration_stimuli/002964_2014-06-08_17-46-11_094959634447_rgbf000091-resize_4/002964_2014-06-08_17-46-11_094959634447_rgbf000091-resize_4-target.png,1000,1.6909999999999998,3,2468,999,feet,jsons/v1_VE1000_randls_31_rotated.json,1066759,1160737,25,Man
34,975399,DepthScenes,duration_manipulation_targetAtFixation,jsons/v1_VE1000_randls_31_rotated.json,http://54.235.29.9/FacialAge/BNav_EC2/DepthDuration/v2_depth_duration_MTurk/v2_DepthDuration_HTML.html#196,196,1366,768,1366,768,8-29-2022,9-2-57,35,depth_duration_stimuli/001815_2014-06-26_20-52-55_260595134347_rgbf000020-resize_0/001815_2014-06-26_20-52-55_260595134347_rgbf000020-resize_0-target.png,1000,3.3865,8,2467,999,feet,jsons/v1_VE1000_randls_31_rotated.json,1066759,1160737,25,Man
35,975399,DepthScenes,duration_manipulation_targetAtFixation,jsons/v1_VE1000_randls_31_rotated.json,http://54.235.29.9/FacialAge/BNav_EC2/DepthDuration/v2_depth_duration_MTurk/v2_DepthDuration_HTML.html#196,196,1366,768,1366,768,8-29-2022,9-2-57,36,depth_duration_stimuli/001808_2014-06-26_20-50-58_260595134347_rgbf000029-resize_1/001808_2014-06-26_20-50-58_260595134347_rgbf000029-resize_1-target.png,1000,4.249,7,3566,1001,feet,jsons/v1_VE1000_randls_31_rotated.json,1066759,1160737,25,Man
36,975399,DepthScenes,duration_manipulation_targetAtFixation,jsons/v1_VE1000_randls_31_rotated.json,http://54.235.29.9/FacialAge/BNav_EC2/DepthDuration/v2_depth_duration_MTurk/v2_DepthDuration_HTML.html#196,196,1366,768,1366,768,8-29-2022,9-2-57,37,depth_duration_stimuli/000103_2014-05-14_22-01-17_260595134347_rgbf000152-resize_5/000103_2014-05-14_22-01-17_260595134347_rgbf000152-resize_5-target.png,1000,1.993,6,2776,1000,feet,jsons/v1_VE1000_randls_31_rotated.json,1066759,1160737,25,Man
37,975399,DepthScenes,duration_manipulation_targetAtFixation,jsons/v1_VE1000_randls_31_rotated.json,http://54.235.29.9/FacialAge/BNav_EC2/DepthDuration/v2_depth_duration_MTurk/v2_DepthDuration_HTML.html#196,196,1366,768,1366,768,8-29-2022,9-2-57,38,depth_duration_stimuli/001555_2014-06-20_17-12-10_260595134347_rgbf000065-resize_4/001555_2014-06-20_17-12-10_260595134347_rgbf000065-resize_4-target.png,1000,1.633,5,5665,1000,feet,jsons/v1_VE1000_randls_31_rotated.json,1066759,1160737,25,Man
38,975399,DepthScenes,duration_manipulation_targetAtFixation,jsons/v1_VE1000_randls_31_rotated.json,http://54.235.29.9/FacialAge/BNav_EC2/DepthDuration/v2_depth_duration_MTurk/v2_DepthDuration_HTML.html#196,196,1366,768,1366,768,8-29-2022,9-2-57,39,depth_duration_stimuli/001100_2014-06-15_17-46-26_260595134347_rgbf000225-resize_2/001100_2014-06-15_17-46-26_260595134347_rgbf000225-resize_2-target.png,1000,2.24,4,3302,1001,feet,jsons/v1_VE1000_randls_31_rotated.json,1066759,1160737,25,Man
39,975399,DepthScenes,duration_manipulation_targetAtFixation,jsons/v1_VE1000_randls_31_rotated.json,http://54.235.29.9/FacialAge/BNav_EC2/DepthDuration/v2_depth_duration_MTurk/v2_DepthDuration_HTML.html#196,196,1366,768,1366,768,8-29-2022,9-2-57,40,depth_duration_stimuli/002784_2014-06-22_19-26-30_094959634447_rgbf000083-resize_3/002784_2014-06-22_19-26-30_094959634447_rgbf000083-resize_3-target.png,1000,1.8046666666667,3,2657,998,feet,jsons/v1_VE1000_randls_31_rotated.json,1066759,1160737,25,Man
40,975399,DepthScenes,duration_manipulation_targetAtFixation,jsons/v1_VE1000_randls_31_rotated.json,http://54.235.29.9/FacialAge/BNav_EC2/DepthDuration/v2_depth_duration_MTurk/v2_DepthDuration_HTML.html#196,196,1366,768,1366,768,8-29-2022,9-2-57,41,depth_duration_stimuli/002444_2014-06-28_20-32-08_260595134347_rgbf000027-resize_0/002444_2014-06-28_20-32-08_260595134347_rgbf000027-resize_0-target.png,1000,4.388999999999999,6,3940,1005,feet,jsons/v1_VE1000_randls_31_rotated.json,1066759,1160737,25,Man
41,975399,DepthScenes,duration_manipulation_targetAtFixation,jsons/v1_VE1000_randls_31_rotated.json,http://54.235.29.9/FacialAge/BNav_EC2/DepthDuration/v2_depth_duration_MTurk/v2_DepthDuration_HTML.html#196,196,1366,768,1366,768,8-29-2022,9-2-57,42,depth_duration_stimuli/000436_2014-06-09_22-25-11_260595134347_rgbf000137-resize_1/000436_2014-06-09_22-25-11_260595134347_rgbf000137-resize_1-target.png,1000,4.0705,8,2419,1000,feet,jsons/v1_VE1000_randls_31_rotated.json,1066759,1160737,25,Man
42,975399,DepthScenes,duration_manipulation_targetAtFixation,jsons/v1_VE1000_randls_31_rotated.json,http://54.235.29.9/FacialAge/BNav_EC2/DepthDuration/v2_depth_duration_MTurk/v2_DepthDuration_HTML.html#196,196,1366,768,1366,768,8-29-2022,9-2-57,43,depth_duration_stimuli/002414_2014-06-28_20-24-58_260595134347_rgbf000067-resize_4/002414_2014-06-28_20-24-58_260595134347_rgbf000067-resize_4-target.png,1000,4.363,7,2392,989,feet,jsons/v1_VE1000_randls_31_rotated.json,1066759,1160737,25,Man
43,975399,DepthScenes,duration_manipulation_targetAtFixation,jsons/v1_VE1000_randls_31_rotated.json,http://54.235.29.9/FacialAge/BNav_EC2/DepthDuration/v2_depth_duration_MTurk/v2_DepthDuration_HTML.html#196,196,1366,768,1366,768,8-29-2022,9-2-57,44,depth_duration_stimuli/000773_2014-06-08_22-24-54_260595134347_rgbf000093-resize_1/000773_2014-06-08_22-24-54_260595134347_rgbf000093-resize_1-target.png,1000,4.973,6,3115,997,feet,jsons/v1_VE1000_randls_31_rotated.json,1066759,1160737,25,Man
44,975399,DepthScenes,duration_manipulation_targetAtFixation,jsons/v1_VE1000_randls_31_rotated.json,http://54.235.29.9/FacialAge/BNav_EC2/DepthDuration/v2_depth_duration_MTurk/v2_DepthDuration_HTML.html#196,196,1366,768,1366,768,8-29-2022,9-2-57,45,depth_duration_stimuli/002568_2014-06-24_13-59-21_094959634447_rgbf000062-resize_4/002568_2014-06-24_13-59-21_094959634447_rgbf000062-resize_4-target.png,1000,3.015,8,2652,998,feet,jsons/v1_VE1000_randls_31_rotated.json,1066759,1160737,25,Man
45,975399,DepthScenes,duration_manipulation_targetAtFixation,jsons/v1_VE1000_randls_31_rotated.json,http://54.235.29.9/FacialAge/BNav_EC2/DepthDuration/v2_depth_duration_MTurk/v2_DepthDuration_HTML.html#196,196,1366,768,1366,768,8-29-2022,9-2-57,46,depth_duration_stimuli/003492_2014-05-21_15-50-55_094959634447_rgbf000828-resize_1/003492_2014-05-21_15-50-55_094959634447_rgbf000828-resize_1-target.png,1000,4.06875,7,2608,996,feet,jsons/v1_VE1000_randls_31_rotated.json,1066759,1160737,25,Man
46,975399,DepthScenes,duration_manipulation_targetAtFixation,jsons/v1_VE1000_randls_31_rotated.json,http://54.235.29.9/FacialAge/BNav_EC2/DepthDuration/v2_depth_duration_MTurk/v2_DepthDuration_HTML.html#196,196,1366,768,1366,768,8-29-2022,9-2-57,47,depth_duration_stimuli/003079_2014-06-15_15-18-20_094959634447_rgbf000152-resize_8/003079_2014-06-15_15-18-20_094959634447_rgbf000152-resize_8-target.png,1000,2.8775,8,2500,990,feet,jsons/v1_VE1000_randls_31_rotated.json,1066759,1160737,25,Man
47,975399,DepthScenes,duration_manipulation_targetAtFixation,jsons/v1_VE1000_randls_31_rotated.json,http://54.235.29.9/FacialAge/BNav_EC2/DepthDuration/v2_depth_duration_MTurk/v2_DepthDuration_HTML.html#196,196,1366,768,1366,768,8-29-2022,9-2-57,48,depth_duration_stimuli/000506_2014-06-08_23-21-00_260595134347_rgbf000070-resize_7/000506_2014-06-08_23-21-00_260595134347_rgbf000070-resize_7-target.png,1000,4.0585,6,2485,989,feet,jsons/v1_VE1000_randls_31_rotated.json,1066759,1160737,25,Man
48,975399,DepthScenes,duration_manipulation_targetAtFixation,jsons/v1_VE1000_randls_31_rotated.json,http://54.235.29.9/FacialAge/BNav_EC2/DepthDuration/v2_depth_duration_MTurk/v2_DepthDuration_HTML.html#196,196,1366,768,1366,768,8-29-2022,9-2-57,49,depth_duration_stimuli/001170_2014-06-17_15-43-44_260595134347_rgbf000096-resize_6/001170_2014-06-17_15-43-44_260595134347_rgbf000096-resize-original.jpg,1000,1.1909999999999998,0,3243,1002,feet,jsons/v1_VE1000_randls_31_rotated.json,1066759,1160737,25,Man
49,975399,DepthScenes,duration_manipulation_targetAtFixation,jsons/v1_VE1000_randls_31_rotated.json,http://54.235.29.9/FacialAge/BNav_EC2/DepthDuration/v2_depth_duration_MTurk/v2_DepthDuration_HTML.html#196,196,1366,768,1366,768,8-29-2022,9-2-57,50,depth_duration_stimuli/002949_2014-06-26_15-57-42_094959634447_rgbf000079-resize_1/002949_2014-06-26_15-57-42_094959634447_rgbf000079-resize_1-target.png,1000,1.8915,7,3866,1006,feet,jsons/v1_VE1000_randls_31_rotated.json,1066759,1160737,25,Man
50,975399,DepthScenes,duration_manipulation_targetAtFixation,jsons/v1_VE1000_randls_31_rotated.json,http://54.235.29.9/FacialAge/BNav_EC2/DepthDuration/v2_depth_duration_MTurk/v2_DepthDuration_HTML.html#196,196,1366,768,1366,768,8-29-2022,9-2-57,51,depth_duration_stimuli/000522_2014-06-08_13-35-06_260595134347_rgbf000244-resize_1/000522_2014-06-08_13-35-06_260595134347_rgbf000244-resize_1-target.png,1000,2.3715,4,3219,990,feet,jsons/v1_VE1000_randls_31_rotated.json,1066759,1160737,25,Man
51,975399,DepthScenes,duration_manipulation_targetAtFixation,jsons/v1_VE1000_randls_31_rotated.json,http://54.235.29.9/FacialAge/BNav_EC2/DepthDuration/v2_depth_duration_MTurk/v2_DepthDuration_HTML.html#196,196,1366,768,1366,768,8-29-2022,9-2-57,52,depth_duration_stimuli/001571_2014-06-20_17-21-32_260595134347_rgbf000089-resize_1/001571_2014-06-20_17-21-32_260595134347_rgbf000089-resize_1-target.png,1000,1.86,5,3195,1011,feet,jsons/v1_VE1000_randls_31_rotated.json,1066759,1160737,25,Man
52,975399,DepthScenes,duration_manipulation_targetAtFixation,jsons/v1_VE1000_randls_31_rotated.json,http://54.235.29.9/FacialAge/BNav_EC2/DepthDuration/v2_depth_duration_MTurk/v2_DepthDuration_HTML.html#196,196,1366,768,1366,768,8-29-2022,9-2-57,53,depth_duration_stimuli/002272_2014-06-28_18-53-56_260595134347_rgbf000067-resize_2/002272_2014-06-28_18-53-56_260595134347_rgbf000067-resize_2-target.png,1000,1.138,4,2555,1012,feet,jsons/v1_VE1000_randls_31_rotated.json,1066759,1160737,25,Man
53,975399,DepthScenes,duration_manipulation_targetAtFixation,jsons/v1_VE1000_randls_31_rotated.json,http://54.235.29.9/FacialAge/BNav_EC2/DepthDuration/v2_depth_duration_MTurk/v2_DepthDuration_HTML.html#196,196,1366,768,1366,768,8-29-2022,9-2-57,54,depth_duration_stimuli/000549_2014-06-08_22-10-24_260595134347_rgbf000247-resize_3/000549_2014-06-08_22-10-24_260595134347_rgbf000247-resize_3-target.png,1000,1.841,3,2914,1003,feet,jsons/v1_VE1000_randls_31_rotated.json,1066759,1160737,25,Man
54,975399,DepthScenes,duration_manipulation_targetAtFixation,jsons/v1_VE1000_randls_31_rotated.json,http://54.235.29.9/FacialAge/BNav_EC2/DepthDuration/v2_depth_duration_MTurk/v2_DepthDuration_HTML.html#196,196,1366,768,1366,768,8-29-2022,9-2-57,55,depth_duration_stimuli/001055_2014-06-08_18-45-35_260595134347_rgbf000111-resize_4/001055_2014-06-08_18-45-35_260595134347_rgbf000111-resize_4-target.png,1000,2.4290000000000003,8,3061,996,feet,jsons/v1_VE1000_randls_31_rotated.json,1066759,1160737,25,Man
55,975399,DepthScenes,duration_manipulation_targetAtFixation,jsons/v1_VE1000_randls_31_rotated.json,http://54.235.29.9/FacialAge/BNav_EC2/DepthDuration/v2_depth_duration_MTurk/v2_DepthDuration_HTML.html#196,196,1366,768,1366,768,8-29-2022,9-2-57,56,depth_duration_stimuli/003495_2014-05-21_16-01-51_094959634447_rgbf000100-resize_3/003495_2014-05-21_16-01-51_094959634447_rgbf000100-resize_3-target.png,1000,1.6255,3,2737,991,feet,jsons/v1_VE1000_randls_31_rotated.json,1066759,1160737,25,Man
56,975399,DepthScenes,duration_manipulation_targetAtFixation,jsons/v1_VE1000_randls_31_rotated.json,http://54.235.29.9/FacialAge/BNav_EC2/DepthDuration/v2_depth_duration_MTurk/v2_DepthDuration_HTML.html#196,196,1366,768,1366,768,8-29-2022,9-2-57,57,depth_duration_stimuli/001244_2014-06-17_16-47-45_260595134347_rgbf000030-resize_4/001244_2014-06-17_16-47-45_260595134347_rgbf000030-resize_4-target.png,1000,2.0425,4,5435,1001,feet,jsons/v1_VE1000_randls_31_rotated.json,1066759,1160737,25,Man
57,975399,DepthScenes,duration_manipulation_targetAtFixation,jsons/v1_VE1000_randls_31_rotated.json,http://54.235.29.9/FacialAge/BNav_EC2/DepthDuration/v2_depth_duration_MTurk/v2_DepthDuration_HTML.html#196,196,1366,768,1366,768,8-29-2022,9-2-57,58,depth_duration_stimuli/003081_2014-06-15_15-19-16_094959634447_rgbf000150-resize_1/003081_2014-06-15_15-19-16_094959634447_rgbf000150-resize_1-target.png,1000,3.9125,7,2744,1001,feet,jsons/v1_VE1000_randls_31_rotated.json,1066759,1160737,25,Man
58,975399,DepthScenes,duration_manipulation_targetAtFixation,jsons/v1_VE1000_randls_31_rotated.json,http://54.235.29.9/FacialAge/BNav_EC2/DepthDuration/v2_depth_duration_MTurk/v2_DepthDuration_HTML.html#196,196,1366,768,1366,768,8-29-2022,9-2-57,59,depth_duration_stimuli/001417_2014-06-19_16-25-36_260595134347_rgbf000115-resize_5/001417_2014-06-19_16-25-36_260595134347_rgbf000115-resize_5-target.png,1000,4.6255,8,2687,988,feet,jsons/v1_VE1000_randls_31_rotated.json,1066759,1160737,25,Man
59,975399,DepthScenes,duration_manipulation_targetAtFixation,jsons/v1_VE1000_randls_31_rotated.json,http://54.235.29.9/FacialAge/BNav_EC2/DepthDuration/v2_depth_duration_MTurk/v2_DepthDuration_HTML.html#196,196,1366,768,1366,768,8-29-2022,9-2-57,60,depth_duration_stimuli/000943_2014-06-09_19-31-07_260595134347_rgbf000128-resize_1/000943_2014-06-09_19-31-07_260595134347_rgbf000128-resize_1-target.png,1000,1.9765,5,2498,1001,feet,jsons/v1_VE1000_randls_31_rotated.json,1066759,1160737,25,Man
60,975399,DepthScenes,duration_manipulation_targetAtFixation,jsons/v1_VE1000_randls_31_rotated.json,http://54.235.29.9/FacialAge/BNav_EC2/DepthDuration/v2_depth_duration_MTurk/v2_DepthDuration_HTML.html#196,196,1366,768,1366,768,8-29-2022,9-2-57,61,depth_duration_stimuli/003070_2014-06-15_14-58-27_094959634447_rgbf000150-resize_3/003070_2014-06-15_14-58-27_094959634447_rgbf000150-resize_3-target.png,1000,2.9415,7,3226,1012,feet,jsons/v1_VE1000_randls_31_rotated.json,1066759,1160737,25,Man
61,975399,DepthScenes,duration_manipulation_targetAtFixation,jsons/v1_VE1000_randls_31_rotated.json,http://54.235.29.9/FacialAge/BNav_EC2/DepthDuration/v2_depth_duration_MTurk/v2_DepthDuration_HTML.html#196,196,1366,768,1366,768,8-29-2022,9-2-57,62,depth_duration_stimuli/000556_2014-06-09_22-42-56_260595134347_rgbf000214-resize_1/000556_2014-06-09_22-42-56_260595134347_rgbf000214-resize_1-target.png,1000,4.8415,5,2563,995,feet,jsons/v1_VE1000_randls_31_rotated.json,1066759,1160737,25,Man
62,975399,DepthScenes,duration_manipulation_targetAtFixation,jsons/v1_VE1000_randls_31_rotated.json,http://54.235.29.9/FacialAge/BNav_EC2/DepthDuration/v2_depth_duration_MTurk/v2_DepthDuration_HTML.html#196,196,1366,625,1366,768,8-29-2022,9-2-57,63,depth_duration_stimuli/001158_2014-06-17_15-32-16_260595134347_rgbf000138-resize_2/001158_2014-06-17_15-32-16_260595134347_rgbf000138-resize_2-target.png,1000,4.5315,5,60682,999,feet,jsons/v1_VE1000_randls_31_rotated.json,1066759,1160737,25,Man
63,975399,DepthScenes,duration_manipulation_targetAtFixation,jsons/v1_VE1000_randls_31_rotated.json,http://54.235.29.9/FacialAge/BNav_EC2/DepthDuration/v2_depth_duration_MTurk/v2_DepthDuration_HTML.html#196,196,1366,625,1366,768,8-29-2022,9-2-57,64,depth_duration_stimuli/002657_2014-06-13_15-29-54_094959634447_rgbf000150-resize_1/002657_2014-06-13_15-29-54_094959634447_rgbf000150-resize_1-target.png,1000,4.919,6,2499,999,feet,jsons/v1_VE1000_randls_31_rotated.json,1066759,1160737,25,Man
64,975399,DepthScenes,duration_manipulation_targetAtFixation,jsons/v1_VE1000_randls_31_rotated.json,http://54.235.29.9/FacialAge/BNav_EC2/DepthDuration/v2_depth_duration_MTurk/v2_DepthDuration_HTML.html#196,196,1366,768,1366,768,8-29-2022,9-2-57,65,depth_duration_stimuli/002375_2014-06-28_20-13-44_260595134347_rgbf000032-resize_1/002375_2014-06-28_20-13-44_260595134347_rgbf000032-resize_1-target.png,1000,4.0175,5,3348,996,feet,jsons/v1_VE1000_randls_31_rotated.json,1066759,1160737,25,Man
65,975399,DepthScenes,duration_manipulation_targetAtFixation,jsons/v1_VE1000_randls_31_rotated.json,http://54.235.29.9/FacialAge/BNav_EC2/DepthDuration/v2_depth_duration_MTurk/v2_DepthDuration_HTML.html#196,196,1366,768,1366,768,8-29-2022,9-2-57,66,depth_duration_stimuli/001540_2014-06-20_17-01-05_260595134347_rgbf000086-resize_2/001540_2014-06-20_17-01-05_260595134347_rgbf000086-resize-original.jpg,1000,1.459,0,3171,1000,feet,jsons/v1_VE1000_randls_31_rotated.json,1066759,1160737,25,Man
66,975399,DepthScenes,duration_manipulation_targetAtFixation,jsons/v1_VE1000_randls_31_rotated.json,http://54.235.29.9/FacialAge/BNav_EC2/DepthDuration/v2_depth_duration_MTurk/v2_DepthDuration_HTML.html#196,196,1366,768,1366,768,8-29-2022,9-2-57,67,depth_duration_stimuli/003010_2014-06-15_12-54-35_094959634447_rgbf000112-resize_0/003010_2014-06-15_12-54-35_094959634447_rgbf000112-resize_0-target.png,1000,3.1185,7,2704,1002,feet,jsons/v1_VE1000_randls_31_rotated.json,1066759,1160737,25,Man
67,975399,DepthScenes,duration_manipulation_targetAtFixation,jsons/v1_VE1000_randls_31_rotated.json,http://54.235.29.9/FacialAge/BNav_EC2/DepthDuration/v2_depth_duration_MTurk/v2_DepthDuration_HTML.html#196,196,1366,768,1366,768,8-29-2022,9-2-57,68,depth_duration_stimuli/001810_2014-06-26_20-51-35_260595134347_rgbf000040-resize_3/001810_2014-06-26_20-51-35_260595134347_rgbf000040-resize_3-target.png,1000,2.2525,5,2739,1000,feet,jsons/v1_VE1000_randls_31_rotated.json,1066759,1160737,25,Man
68,975399,DepthScenes,duration_manipulation_targetAtFixation,jsons/v1_VE1000_randls_31_rotated.json,http://54.235.29.9/FacialAge/BNav_EC2/DepthDuration/v2_depth_duration_MTurk/v2_DepthDuration_HTML.html#196,196,1366,768,1366,768,8-29-2022,9-2-57,69,depth_duration_stimuli/002678_2014-06-13_16-15-32_094959634447_rgbf000151-resize_6/002678_2014-06-13_16-15-32_094959634447_rgbf000151-resize_6-target.png,1000,2.1830000000000003,7,3000,990,feet,jsons/v1_VE1000_randls_31_rotated.json,1066759,1160737,25,Man
69,975399,DepthScenes,duration_manipulation_targetAtFixation,jsons/v1_VE1000_randls_31_rotated.json,http://54.235.29.9/FacialAge/BNav_EC2/DepthDuration/v2_depth_duration_MTurk/v2_DepthDuration_HTML.html#196,196,1366,768,1366,768,8-29-2022,9-2-57,70,depth_duration_stimuli/000368_2014-06-09_15-53-01_260595134347_rgbf000155-resize_2/000368_2014-06-09_15-53-01_260595134347_rgbf000155-resize_2-target.png,1000,2.4859999999999998,3,2836,1000,feet,jsons/v1_VE1000_randls_31_rotated.json,1066759,1160737,25,Man
70,975399,DepthScenes,duration_manipulation_targetAtFixation,jsons/v1_VE1000_randls_31_rotated.json,http://54.235.29.9/FacialAge/BNav_EC2/DepthDuration/v2_depth_duration_MTurk/v2_DepthDuration_HTML.html#196,196,1366,768,1366,768,8-29-2022,9-2-57,71,depth_duration_stimuli/002660_2014-06-13_15-44-18_094959634447_rgbf001878-resize_2/002660_2014-06-13_15-44-18_094959634447_rgbf001878-resize_2-target.png,1000,3.576,5,23302,1002,feet,jsons/v1_VE1000_randls_31_rotated.json,1066759,1160737,25,Man
71,975399,DepthScenes,duration_manipulation_targetAtFixation,jsons/v1_VE1000_randls_31_rotated.json,http://54.235.29.9/FacialAge/BNav_EC2/DepthDuration/v2_depth_duration_MTurk/v2_DepthDuration_HTML.html#196,196,1366,768,1366,768,8-29-2022,9-2-57,72,depth_duration_stimuli/002153_2014-06-25_21-27-18_260595134347_rgbf000038-resize_5/002153_2014-06-25_21-27-18_260595134347_rgbf000038-resize_5-target.png,1000,2.505,5,3150,1001,feet,jsons/v1_VE1000_randls_31_rotated.json,1066759,1160737,25,Man
72,975399,DepthScenes,duration_manipulation_targetAtFixation,jsons/v1_VE1000_randls_31_rotated.json,http://54.235.29.9/FacialAge/BNav_EC2/DepthDuration/v2_depth_duration_MTurk/v2_DepthDuration_HTML.html#196,196,1366,768,1366,768,8-29-2022,9-2-57,73,depth_duration_stimuli/001094_2014-06-15_17-36-00_260595134347_rgbf000205-resize_0/001094_2014-06-15_17-36-00_260595134347_rgbf000205-resize_0-target.png,1000,4.2175,8,2809,988,feet,jsons/v1_VE1000_randls_31_rotated.json,1066759,1160737,25,Man
73,975399,DepthScenes,duration_manipulation_targetAtFixation,jsons/v1_VE1000_randls_31_rotated.json,http://54.235.29.9/FacialAge/BNav_EC2/DepthDuration/v2_depth_duration_MTurk/v2_DepthDuration_HTML.html#196,196,1366,768,1366,768,8-29-2022,9-2-57,74,depth_duration_stimuli/000692_2014-06-08_13-09-42_260595134347_rgbf000199-resize_2/000692_2014-06-08_13-09-42_260595134347_rgbf000199-resize_2-target.png,1000,3.661,7,2501,986,feet,jsons/v1_VE1000_randls_31_rotated.json,1066759,1160737,25,Man
74,975399,DepthScenes,duration_manipulation_targetAtFixation,jsons/v1_VE1000_randls_31_rotated.json,http://54.235.29.9/FacialAge/BNav_EC2/DepthDuration/v2_depth_duration_MTurk/v2_DepthDuration_HTML.html#196,196,1366,768,1366,768,8-29-2022,9-2-57,75,depth_duration_stimuli/001447_2014-06-19_17-00-32_260595134347_rgbf000082-resize_5/001447_2014-06-19_17-00-32_260595134347_rgbf000082-resize_5-target.png,1000,4.13775,4,3832,987,feet,jsons/v1_VE1000_randls_31_rotated.json,1066759,1160737,25,Man
75,975399,DepthScenes,duration_manipulation_targetAtFixation,jsons/v1_VE1000_randls_31_rotated.json,http://54.235.29.9/FacialAge/BNav_EC2/DepthDuration/v2_depth_duration_MTurk/v2_DepthDuration_HTML.html#196,196,1366,768,1366,768,8-29-2022,9-2-57,76,depth_duration_stimuli/000447_2014-06-08_16-15-46_260595134347_rgbf000130-resize_1/000447_2014-06-08_16-15-46_260595134347_rgbf000130-resize_1-target.png,1000,4.479,7,3058,1001,feet,jsons/v1_VE1000_randls_31_rotated.json,1066759,1160737,25,Man
76,975399,DepthScenes,duration_manipulation_targetAtFixation,jsons/v1_VE1000_randls_31_rotated.json,http://54.235.29.9/FacialAge/BNav_EC2/DepthDuration/v2_depth_duration_MTurk/v2_DepthDuration_HTML.html#196,196,1366,768,1366,768,8-29-2022,9-2-57,77,depth_duration_stimuli/001214_2014-06-17_16-13-55_260595134347_rgbf000111-resize_0/001214_2014-06-17_16-13-55_260595134347_rgbf000111-resize_0-target.png,1000,2.6505,5,5647,1001,feet,jsons/v1_VE1000_randls_31_rotated.json,1066759,1160737,25,Man
77,975399,DepthScenes,duration_manipulation_targetAtFixation,jsons/v1_VE1000_randls_31_rotated.json,http://54.235.29.9/FacialAge/BNav_EC2/DepthDuration/v2_depth_duration_MTurk/v2_DepthDuration_HTML.html#196,196,1366,768,1366,768,8-29-2022,9-2-57,78,depth_duration_stimuli/000810_2014-06-08_17-20-01_260595134347_rgbf000105-resize_0/000810_2014-06-08_17-20-01_260595134347_rgbf000105-resize_0-target.png,1000,1.4865,7,3832,999,feet,jsons/v1_VE1000_randls_31_rotated.json,1066759,1160737,25,Man
78,975399,DepthScenes,duration_manipulation_targetAtFixation,jsons/v1_VE1000_randls_31_rotated.json,http://54.235.29.9/FacialAge/BNav_EC2/DepthDuration/v2_depth_duration_MTurk/v2_DepthDuration_HTML.html#196,196,1366,768,1366,768,8-29-2022,9-2-57,79,depth_duration_stimuli/003423_2014-05-21_10-23-26_094959634447_rgbf002665-resize_2/003423_2014-05-21_10-23-26_094959634447_rgbf002665-resize_2-target.png,1000,3.2575,7,3933,1002,feet,jsons/v1_VE1000_randls_31_rotated.json,1066759,1160737,25,Man
79,975399,DepthScenes,duration_manipulation_targetAtFixation,jsons/v1_VE1000_randls_31_rotated.json,http://54.235.29.9/FacialAge/BNav_EC2/DepthDuration/v2_depth_duration_MTurk/v2_DepthDuration_HTML.html#196,196,1366,768,1366,768,8-29-2022,9-2-57,80,depth_duration_stimuli/002905_2014-06-03_18-04-43_094959634447_rgbf000151-resize_2/002905_2014-06-03_18-04-43_094959634447_rgbf000151-resize_2-target.png,1000,2.0295,7,3488,1000,feet,jsons/v1_VE1000_randls_31_rotated.json,1066759,1160737,25,Man
80,975399,DepthScenes,duration_manipulation_targetAtFixation,jsons/v1_VE1000_randls_31_rotated.json,http://54.235.29.9/FacialAge/BNav_EC2/DepthDuration/v2_depth_duration_MTurk/v2_DepthDuration_HTML.html#196,196,1366,768,1366,768,8-29-2022,9-2-57,81,depth_duration_stimuli/002875_2014-06-01_15-19-00_094959634447_rgbf000151-resize_1/002875_2014-06-01_15-19-00_094959634447_rgbf000151-resize_1-target.png,1000,1.9675,8,3795,1000,feet,jsons/v1_VE1000_randls_31_rotated.json,1066759,1160737,25,Man
81,975399,DepthScenes,duration_manipulation_targetAtFixation,jsons/v1_VE1000_randls_31_rotated.json,http://54.235.29.9/FacialAge/BNav_EC2/DepthDuration/v2_depth_duration_MTurk/v2_DepthDuration_HTML.html#196,196,1366,768,1366,768,8-29-2022,9-2-57,82,depth_duration_stimuli/001011_2014-06-08_23-18-54_260595134347_rgbf000044-resize_4/001011_2014-06-08_23-18-54_260595134347_rgbf000044-resize_4-target.png,1000,2.4730000000000003,7,4297,991,feet,jsons/v1_VE1000_randls_31_rotated.json,1066759,1160737,25,Man
82,975399,DepthScenes,duration_manipulation_targetAtFixation,jsons/v1_VE1000_randls_31_rotated.json,http://54.235.29.9/FacialAge/BNav_EC2/DepthDuration/v2_depth_duration_MTurk/v2_DepthDuration_HTML.html#196,196,1366,768,1366,768,8-29-2022,9-2-57,83,depth_duration_stimuli/001450_2014-06-19_17-02-03_260595134347_rgbf000203-resize_4/001450_2014-06-19_17-02-03_260595134347_rgbf000203-resize_4-target.png,1000,4.0106666666667,7,5486,1002,feet,jsons/v1_VE1000_randls_31_rotated.json,1066759,1160737,25,Man
83,975399,DepthScenes,duration_manipulation_targetAtFixation,jsons/v1_VE1000_randls_31_rotated.json,http://54.235.29.9/FacialAge/BNav_EC2/DepthDuration/v2_depth_duration_MTurk/v2_DepthDuration_HTML.html#196,196,1366,625,1366,768,8-29-2022,9-2-57,84,depth_duration_stimuli/001449_2014-06-19_17-01-27_260595134347_rgbf000116-resize_2/001449_2014-06-19_17-01-27_260595134347_rgbf000116-resize_2-target.png,1000,3.452,8,37499,1001,feet,jsons/v1_VE1000_randls_31_rotated.json,1066759,1160737,25,Man
84,975399,DepthScenes,duration_manipulation_targetAtFixation,jsons/v1_VE1000_randls_31_rotated.json,http://54.235.29.9/FacialAge/BNav_EC2/DepthDuration/v2_depth_duration_MTurk/v2_DepthDuration_HTML.html#196,196,1366,625,1366,768,8-29-2022,9-2-57,85,depth_duration_stimuli/003129_2014-05-12_10-48-10_094959634447_rgbf000100-resize_0/003129_2014-05-12_10-48-10_094959634447_rgbf000100-resize_0-target.png,1000,4.9305,5,10934,999,feet,jsons/v1_VE1000_randls_31_rotated.json,1066759,1160737,25,Man
85,975399,DepthScenes,duration_manipulation_targetAtFixation,jsons/v1_VE1000_randls_31_rotated.json,http://54.235.29.9/FacialAge/BNav_EC2/DepthDuration/v2_depth_duration_MTurk/v2_DepthDuration_HTML.html#196,196,1366,625,1366,768,8-29-2022,9-2-57,86,depth_duration_stimuli/000414_2014-06-04_19-49-13_260595134347_rgbf000044-resize_0/000414_2014-06-04_19-49-13_260595134347_rgbf000044-resize_0-target.png,1000,4.329,7,26789,972,feet,jsons/v1_VE1000_randls_31_rotated.json,1066759,1160737,25,Man
86,975399,DepthScenes,duration_manipulation_targetAtFixation,jsons/v1_VE1000_randls_31_rotated.json,http://54.235.29.9/FacialAge/BNav_EC2/DepthDuration/v2_depth_duration_MTurk/v2_DepthDuration_HTML.html#196,196,1366,768,1366,768,8-29-2022,9-2-57,87,depth_duration_stimuli/002103_2014-06-25_20-00-40_260595134347_rgbf000049-resize_0/002103_2014-06-25_20-00-40_260595134347_rgbf000049-resize_0-target.png,1000,4.105,5,3827,999,feet,jsons/v1_VE1000_randls_31_rotated.json,1066759,1160737,25,Man
87,975399,DepthScenes,duration_manipulation_targetAtFixation,jsons/v1_VE1000_randls_31_rotated.json,http://54.235.29.9/FacialAge/BNav_EC2/DepthDuration/v2_depth_duration_MTurk/v2_DepthDuration_HTML.html#196,196,1366,768,1366,768,8-29-2022,9-2-57,88,depth_duration_stimuli/002039_2014-06-24_20-22-38_260595134347_rgbf000084-resize_1/002039_2014-06-24_20-22-38_260595134347_rgbf000084-resize_1-target.png,1000,4.408,7,2877,1007,feet,jsons/v1_VE1000_randls_31_rotated.json,1066759,1160737,25,Man
88,975399,DepthScenes,duration_manipulation_targetAtFixation,jsons/v1_VE1000_randls_31_rotated.json,http://54.235.29.9/FacialAge/BNav_EC2/DepthDuration/v2_depth_duration_MTurk/v2_DepthDuration_HTML.html#196,196,1366,768,1366,768,8-29-2022,9-2-57,89,depth_duration_stimuli/000457_2014-06-08_16-52-43_260595134347_rgbf000199-resize_1/000457_2014-06-08_16-52-43_260595134347_rgbf000199-resize_1-target.png,1000,3.6489999999999996,5,2531,1012,feet,jsons/v1_VE1000_randls_31_rotated.json,1066759,1160737,25,Man
89,975399,DepthScenes,duration_manipulation_targetAtFixation,jsons/v1_VE1000_randls_31_rotated.json,http://54.235.29.9/FacialAge/BNav_EC2/DepthDuration/v2_depth_duration_MTurk/v2_DepthDuration_HTML.html#196,196,1366,768,1366,768,8-29-2022,9-2-57,90,depth_duration_stimuli/000929_2014-06-09_16-33-19_260595134347_rgbf000139-resize_0/000929_2014-06-09_16-33-19_260595134347_rgbf000139-resize_0-target.png,1000,2.8680000000000003,7,3751,997,feet,jsons/v1_VE1000_randls_31_rotated.json,1066759,1160737,25,Man
90,975399,DepthScenes,duration_manipulation_targetAtFixation,jsons/v1_VE1000_randls_31_rotated.json,http://54.235.29.9/FacialAge/BNav_EC2/DepthDuration/v2_depth_duration_MTurk/v2_DepthDuration_HTML.html#196,196,1366,768,1366,768,8-29-2022,9-2-57,91,depth_duration_stimuli/002995_2014-06-15_12-31-26_094959634447_rgbf000150-resize_1/002995_2014-06-15_12-31-26_094959634447_rgbf000150-resize_1-target.png,1000,3.8360000000000003,8,2491,984,feet,jsons/v1_VE1000_randls_31_rotated.json,1066759,1160737,25,Man
91,975399,DepthScenes,duration_manipulation_targetAtFixation,jsons/v1_VE1000_randls_31_rotated.json,http://54.235.29.9/FacialAge/BNav_EC2/DepthDuration/v2_depth_duration_MTurk/v2_DepthDuration_HTML.html#196,196,1366,768,1366,768,8-29-2022,9-2-57,92,depth_duration_stimuli/002748_2014-06-22_19-07-22_094959634447_rgbf000078-resize_1/002748_2014-06-22_19-07-22_094959634447_rgbf000078-resize_1-target.png,1000,4.6705,8,2459,1023,feet,jsons/v1_VE1000_randls_31_rotated.json,1066759,1160737,25,Man
92,975399,DepthScenes,duration_manipulation_targetAtFixation,jsons/v1_VE1000_randls_31_rotated.json,http://54.235.29.9/FacialAge/BNav_EC2/DepthDuration/v2_depth_duration_MTurk/v2_DepthDuration_HTML.html#196,196,1366,768,1366,768,8-29-2022,9-2-57,93,depth_duration_stimuli/000109_2014-05-14_23-41-52_260595134347_rgbf000035-resize_9/000109_2014-05-14_23-41-52_260595134347_rgbf000035-resize_9-target.png,1000,1.3545,4,2699,1002,feet,jsons/v1_VE1000_randls_31_rotated.json,1066759,1160737,25,Man
93,975399,DepthScenes,duration_manipulation_targetAtFixation,jsons/v1_VE1000_randls_31_rotated.json,http://54.235.29.9/FacialAge/BNav_EC2/DepthDuration/v2_depth_duration_MTurk/v2_DepthDuration_HTML.html#196,196,1366,768,1366,768,8-29-2022,9-2-57,94,depth_duration_stimuli/000470_2014-06-09_19-42-40_260595134347_rgbf000094-resize_1/000470_2014-06-09_19-42-40_260595134347_rgbf000094-resize_1-target.png,1000,1.831,7,6174,988,feet,jsons/v1_VE1000_randls_31_rotated.json,1066759,1160737,25,Man
94,975399,DepthScenes,duration_manipulation_targetAtFixation,jsons/v1_VE1000_randls_31_rotated.json,http://54.235.29.9/FacialAge/BNav_EC2/DepthDuration/v2_depth_duration_MTurk/v2_DepthDuration_HTML.html#196,196,1366,768,1366,768,8-29-2022,9-2-57,95,depth_duration_stimuli/000137_2014-05-20_17-04-49_260595134347_rgbf000120-resize_1/000137_2014-05-20_17-04-49_260595134347_rgbf000120-resize_1-target.png,1000,3.786,8,2633,998,feet,jsons/v1_VE1000_randls_31_rotated.json,1066759,1160737,25,Man
95,975399,DepthScenes,duration_manipulation_targetAtFixation,jsons/v1_VE1000_randls_31_rotated.json,http://54.235.29.9/FacialAge/BNav_EC2/DepthDuration/v2_depth_duration_MTurk/v2_DepthDuration_HTML.html#196,196,1366,768,1366,768,8-29-2022,9-2-57,96,depth_duration_stimuli/000736_2014-06-08_18-24-15_260595134347_rgbf000206-resize_3/000736_2014-06-08_18-24-15_260595134347_rgbf000206-resize_3-target.png,1000,3.515,6,3785,999,feet,jsons/v1_VE1000_randls_31_rotated.json,1066759,1160737,25,Man
96,975399,DepthScenes,duration_manipulation_targetAtFixation,jsons/v1_VE1000_randls_31_rotated.json,http://54.235.29.9/FacialAge/BNav_EC2/DepthDuration/v2_depth_duration_MTurk/v2_DepthDuration_HTML.html#196,196,1366,768,1366,768,8-29-2022,9-2-57,97,depth_duration_stimuli/002545_2014-06-24_13-38-53_094959634447_rgbf000080-resize_4/002545_2014-06-24_13-38-53_094959634447_rgbf000080-resize_4-target.png,1000,1.9205,7,3449,998,feet,jsons/v1_VE1000_randls_31_rotated.json,1066759,1160737,25,Man
97,975399,DepthScenes,duration_manipulation_targetAtFixation,jsons/v1_VE1000_randls_31_rotated.json,http://54.235.29.9/FacialAge/BNav_EC2/DepthDuration/v2_depth_duration_MTurk/v2_DepthDuration_HTML.html#196,196,1366,768,1366,768,8-29-2022,9-2-57,98,depth_duration_stimuli/001092_2014-06-15_17-34-58_260595134347_rgbf000171-resize_3/001092_2014-06-15_17-34-58_260595134347_rgbf000171-resize_3-target.png,1000,2.6935,5,2739,1015,feet,jsons/v1_VE1000_randls_31_rotated.json,1066759,1160737,25,Man
98,975399,DepthScenes,duration_manipulation_targetAtFixation,jsons/v1_VE1000_randls_31_rotated.json,http://54.235.29.9/FacialAge/BNav_EC2/DepthDuration/v2_depth_duration_MTurk/v2_DepthDuration_HTML.html#196,196,1366,768,1366,768,8-29-2022,9-2-57,99,depth_duration_stimuli/001222_2014-06-17_16-24-06_260595134347_rgbf000073-resize_0/001222_2014-06-17_16-24-06_260595134347_rgbf000073-resize-original.jpg,1000,1.4385,0,2531,1001,feet,jsons/v1_VE1000_randls_31_rotated.json,1066759,1160737,25,Man
99,975399,DepthScenes,duration_manipulation_targetAtFixation,jsons/v1_VE1000_randls_31_rotated.json,http://54.235.29.9/FacialAge/BNav_EC2/DepthDuration/v2_depth_duration_MTurk/v2_DepthDuration_HTML.html#196,196,1366,768,1366,768,8-29-2022,9-2-57,100,depth_duration_stimuli/001052_2014-06-08_18-24-54_260595134347_rgbf000130-resize_1/001052_2014-06-08_18-24-54_260595134347_rgbf000130-resize_1-target.png,1000,4.1045,8,2623,1001,feet,jsons/v1_VE1000_randls_31_rotated.json,1066759,1160737,25,Man
100,975399,DepthScenes,duration_manipulation_targetAtFixation,jsons/v1_VE1000_randls_31_rotated.json,http://54.235.29.9/FacialAge/BNav_EC2/DepthDuration/v2_depth_duration_MTurk/v2_DepthDuration_HTML.html#196,196,1366,768,1366,768,8-29-2022,9-2-57,101,depth_duration_stimuli/002988_2014-06-15_12-24-20_094959634447_rgbf000150-resize_1/002988_2014-06-15_12-24-20_094959634447_rgbf000150-resize_1-target.png,1000,4.7669999999999995,8,2571,1000,feet,jsons/v1_VE1000_randls_31_rotated.json,1066759,1160737,25,Man
101,975399,DepthScenes,duration_manipulation_targetAtFixation,jsons/v1_VE1000_randls_31_rotated.json,http://54.235.29.9/FacialAge/BNav_EC2/DepthDuration/v2_depth_duration_MTurk/v2_DepthDuration_HTML.html#196,196,1366,768,1366,768,8-29-2022,9-2-57,102,depth_duration_stimuli/002209_2014-06-28_18-36-10_260595134347_rgbf000051-resize_1/002209_2014-06-28_18-36-10_260595134347_rgbf000051-resize_1-target.png,1000,2.057,5,2494,987,feet,jsons/v1_VE1000_randls_31_rotated.json,1066759,1160737,25,Man
102,975399,DepthScenes,duration_manipulation_targetAtFixation,jsons/v1_VE1000_randls_31_rotated.json,http://54.235.29.9/FacialAge/BNav_EC2/DepthDuration/v2_depth_duration_MTurk/v2_DepthDuration_HTML.html#196,196,1366,768,1366,768,8-29-2022,9-2-57,103,depth_duration_stimuli/002763_2014-06-22_19-13-10_094959634447_rgbf000075-resize_4/002763_2014-06-22_19-13-10_094959634447_rgbf000075-resize_4-target.png,1000,1.68375,7,3018,1000,feet,jsons/v1_VE1000_randls_31_rotated.json,1066759,1160737,25,Man
103,975399,DepthScenes,duration_manipulation_targetAtFixation,jsons/v1_VE1000_randls_31_rotated.json,http://54.235.29.9/FacialAge/BNav_EC2/DepthDuration/v2_depth_duration_MTurk/v2_DepthDuration_HTML.html#196,196,1366,768,1366,768,8-29-2022,9-2-57,104,depth_duration_stimuli/001584_2014-06-20_11-07-43_260595134347_rgbf000002-resize_1/001584_2014-06-20_11-07-43_260595134347_rgbf000002-resize_1-target.png,1000,3.53,8,2501,1000,feet,jsons/v1_VE1000_randls_31_rotated.json,1066759,1160737,25,Man
104,975399,DepthScenes,duration_manipulation_targetAtFixation,jsons/v1_VE1000_randls_31_rotated.json,http://54.235.29.9/FacialAge/BNav_EC2/DepthDuration/v2_depth_duration_MTurk/v2_DepthDuration_HTML.html#196,196,1366,768,1366,768,8-29-2022,9-2-57,105,depth_duration_stimuli/003621_2014-05-23_18-06-08_094959634447_rgbf000101-resize_1/003621_2014-05-23_18-06-08_094959634447_rgbf000101-resize_1-target.png,1000,3.9835,7,2957,1001,feet,jsons/v1_VE1000_randls_31_rotated.json,1066759,1160737,25,Man
105,975399,DepthScenes,duration_manipulation_targetAtFixation,jsons/v1_VE1000_randls_31_rotated.json,http://54.235.29.9/FacialAge/BNav_EC2/DepthDuration/v2_depth_duration_MTurk/v2_DepthDuration_HTML.html#196,196,1366,768,1366,768,8-29-2022,9-2-57,106,depth_duration_stimuli/002467_2014-06-28_20-38-07_260595134347_rgbf000026-resize_2/002467_2014-06-28_20-38-07_260595134347_rgbf000026-resize_2-target.png,1000,4.742,8,2468,1000,feet,jsons/v1_VE1000_randls_31_rotated.json,1066759,1160737,25,Man
106,975399,DepthScenes,duration_manipulation_targetAtFixation,jsons/v1_VE1000_randls_31_rotated.json,http://54.235.29.9/FacialAge/BNav_EC2/DepthDuration/v2_depth_duration_MTurk/v2_DepthDuration_HTML.html#196,196,1366,768,1366,768,8-29-2022,9-2-57,107,depth_duration_stimuli/002570_2014-06-24_13-59-54_094959634447_rgbf000059-resize_0/002570_2014-06-24_13-59-54_094959634447_rgbf000059-resize_0-target.png,1000,4.037,8,3089,1000,feet,jsons/v1_VE1000_randls_31_rotated.json,1066759,1160737,25,Man
107,975399,DepthScenes,duration_manipulation_targetAtFixation,jsons/v1_VE1000_randls_31_rotated.json,http://54.235.29.9/FacialAge/BNav_EC2/DepthDuration/v2_depth_duration_MTurk/v2_DepthDuration_HTML.html#196,196,1366,768,1366,768,8-29-2022,9-2-57,108,depth_duration_stimuli/000483_2014-06-09_20-41-45_260595134347_rgbf000116-resize_4/000483_2014-06-09_20-41-45_260595134347_rgbf000116-resize_4-target.png,1000,1.337,5,2408,989,feet,jsons/v1_VE1000_randls_31_rotated.json,1066759,1160737,25,Man
108,975399,DepthScenes,duration_manipulation_targetAtFixation,jsons/v1_VE1000_randls_31_rotated.json,http://54.235.29.9/FacialAge/BNav_EC2/DepthDuration/v2_depth_duration_MTurk/v2_DepthDuration_HTML.html#196,196,1366,768,1366,768,8-29-2022,9-2-57,109,depth_duration_stimuli/000469_2014-06-09_19-42-10_260595134347_rgbf000081-resize_1/000469_2014-06-09_19-42-10_260595134347_rgbf000081-resize_1-target.png,1000,1.652,6,2619,998,feet,jsons/v1_VE1000_randls_31_rotated.json,1066759,1160737,25,Man
109,975399,DepthScenes,duration_manipulation_targetAtFixation,jsons/v1_VE1000_randls_31_rotated.json,http://54.235.29.9/FacialAge/BNav_EC2/DepthDuration/v2_depth_duration_MTurk/v2_DepthDuration_HTML.html#196,196,1366,768,1366,768,8-29-2022,9-2-57,110,depth_duration_stimuli/002805_2014-06-22_19-54-03_094959634447_rgbf000079-resize_1/002805_2014-06-22_19-54-03_094959634447_rgbf000079-resize_1-target.png,1000,3.1439999999999997,8,2975,998,feet,jsons/v1_VE1000_randls_31_rotated.json,1066759,1160737,25,Man
110,975399,DepthScenes,duration_manipulation_targetAtFixation,jsons/v1_VE1000_randls_31_rotated.json,http://54.235.29.9/FacialAge/BNav_EC2/DepthDuration/v2_depth_duration_MTurk/v2_DepthDuration_HTML.html#196,196,1366,768,1366,768,8-29-2022,9-2-57,111,depth_duration_stimuli/000906_2014-06-08_13-35-43_260595134347_rgbf000155-resize_1/000906_2014-06-08_13-35-43_260595134347_rgbf000155-resize_1-target.png,1000,2.8489999999999998,8,3331,1014,feet,jsons/v1_VE1000_randls_31_rotated.json,1066759,1160737,25,Man
111,975399,DepthScenes,duration_manipulation_targetAtFixation,jsons/v1_VE1000_randls_31_rotated.json,http://54.235.29.9/FacialAge/BNav_EC2/DepthDuration/v2_depth_duration_MTurk/v2_DepthDuration_HTML.html#196,196,1366,768,1366,768,8-29-2022,9-2-57,112,depth_duration_stimuli/003587_2014-05-23_16-48-02_094959634447_rgbf002384-resize_2/003587_2014-05-23_16-48-02_094959634447_rgbf002384-resize_2-target.png,1000,1.357,5,3322,1002,feet,jsons/v1_VE1000_randls_31_rotated.json,1066759,1160737,25,Man
112,975399,DepthScenes,duration_manipulation_targetAtFixation,jsons/v1_VE1000_randls_31_rotated.json,http://54.235.29.9/FacialAge/BNav_EC2/DepthDuration/v2_depth_duration_MTurk/v2_DepthDuration_HTML.html#196,196,1366,768,1366,768,8-29-2022,9-2-57,113,depth_duration_stimuli/001167_2014-06-17_15-38-07_260595134347_rgbf000108-resize_0/001167_2014-06-17_15-38-07_260595134347_rgbf000108-resize_0-target.png,1000,1.8505,5,2692,994,feet,jsons/v1_VE1000_randls_31_rotated.json,1066759,1160737,25,Man
113,975399,DepthScenes,duration_manipulation_targetAtFixation,jsons/v1_VE1000_randls_31_rotated.json,http://54.235.29.9/FacialAge/BNav_EC2/DepthDuration/v2_depth_duration_MTurk/v2_DepthDuration_HTML.html#196,196,1366,768,1366,768,8-29-2022,9-2-57,114,depth_duration_stimuli/001516_2014-06-20_16-25-09_260595134347_rgbf000076-resize_2/001516_2014-06-20_16-25-09_260595134347_rgbf000076-resize_2-target.png,1000,1.7445,7,3426,1001,feet,jsons/v1_VE1000_randls_31_rotated.json,1066759,1160737,25,Man
114,975399,DepthScenes,duration_manipulation_targetAtFixation,jsons/v1_VE1000_randls_31_rotated.json,http://54.235.29.9/FacialAge/BNav_EC2/DepthDuration/v2_depth_duration_MTurk/v2_DepthDuration_HTML.html#196,196,1366,768,1366,768,8-29-2022,9-2-57,115,depth_duration_stimuli/002118_2014-06-25_20-32-08_260595134347_rgbf000078-resize_1/002118_2014-06-25_20-32-08_260595134347_rgbf000078-resize_1-target.png,1000,2.6460000000000004,6,3297,1001,feet,jsons/v1_VE1000_randls_31_rotated.json,1066759,1160737,25,Man
115,975399,DepthScenes,duration_manipulation_targetAtFixation,jsons/v1_VE1000_randls_31_rotated.json,http://54.235.29.9/FacialAge/BNav_EC2/DepthDuration/v2_depth_duration_MTurk/v2_DepthDuration_HTML.html#196,196,1366,768,1366,768,8-29-2022,9-2-57,116,depth_duration_stimuli/002758_2014-06-22_19-11-20_094959634447_rgbf000128-resize_1/002758_2014-06-22_19-11-20_094959634447_rgbf000128-resize_1-target.png,1000,2.555,7,4029,1002,feet,jsons/v1_VE1000_randls_31_rotated.json,1066759,1160737,25,Man
116,975399,DepthScenes,duration_manipulation_targetAtFixation,jsons/v1_VE1000_randls_31_rotated.json,http://54.235.29.9/FacialAge/BNav_EC2/DepthDuration/v2_depth_duration_MTurk/v2_DepthDuration_HTML.html#196,196,1366,768,1366,768,8-29-2022,9-2-57,117,depth_duration_stimuli/002630_2014-06-24_14-47-50_094959634447_rgbf000055-resize_1/002630_2014-06-24_14-47-50_094959634447_rgbf000055-resize_1-target.png,1000,3.0095,8,4498,1025,feet,jsons/v1_VE1000_randls_31_rotated.json,1066759,1160737,25,Man
117,975399,DepthScenes,duration_manipulation_targetAtFixation,jsons/v1_VE1000_randls_31_rotated.json,http://54.235.29.9/FacialAge/BNav_EC2/DepthDuration/v2_depth_duration_MTurk/v2_DepthDuration_HTML.html#196,196,1366,768,1366,768,8-29-2022,9-2-57,118,depth_duration_stimuli/003338_2014-05-20_11-01-23_094959634447_rgbf000051-resize_6/003338_2014-05-20_11-01-23_094959634447_rgbf000051-resize_6-target.png,1000,1.693,5,4099,991,feet,jsons/v1_VE1000_randls_31_rotated.json,1066759,1160737,25,Man
118,975399,DepthScenes,duration_manipulation_targetAtFixation,jsons/v1_VE1000_randls_31_rotated.json,http://54.235.29.9/FacialAge/BNav_EC2/DepthDuration/v2_depth_duration_MTurk/v2_DepthDuration_HTML.html#196,196,1366,768,1366,768,8-29-2022,9-2-57,119,depth_duration_stimuli/002509_2014-06-24_13-19-22_094959634447_rgbf000077-resize_0/002509_2014-06-24_13-19-22_094959634447_rgbf000077-resize_0-target.png,1000,1.3065,2,3788,1005,feet,jsons/v1_VE1000_randls_31_rotated.json,1066759,1160737,25,Man
119,975399,DepthScenes,duration_manipulation_targetAtFixation,jsons/v1_VE1000_randls_31_rotated.json,http://54.235.29.9/FacialAge/BNav_EC2/DepthDuration/v2_depth_duration_MTurk/v2_DepthDuration_HTML.html#196,196,1366,768,1366,768,8-29-2022,9-2-57,120,depth_duration_stimuli/000787_2014-06-08_22-33-53_260595134347_rgbf000175-resize_1/000787_2014-06-08_22-33-53_260595134347_rgbf000175-resize-original.jpg,1000,4.784,0,3090,1000,feet,jsons/v1_VE1000_randls_31_rotated.json,1066759,1160737,25,Man
120,975399,DepthScenes,duration_manipulation_targetAtFixation,jsons/v1_VE1000_randls_31_rotated.json,http://54.235.29.9/FacialAge/BNav_EC2/DepthDuration/v2_depth_duration_MTurk/v2_DepthDuration_HTML.html#196,196,1366,768,1366,768,8-29-2022,9-2-57,121,depth_duration_stimuli/000749_2014-06-08_21-55-06_260595134347_rgbf000070-resize_2/000749_2014-06-08_21-55-06_260595134347_rgbf000070-resize_2-target.png,1000,2.331,7,6576,1002,feet,jsons/v1_VE1000_randls_31_rotated.json,1066759,1160737,25,Man
121,975399,DepthScenes,duration_manipulation_targetAtFixation,jsons/v1_VE1000_randls_31_rotated.json,http://54.235.29.9/FacialAge/BNav_EC2/DepthDuration/v2_depth_duration_MTurk/v2_DepthDuration_HTML.html#196,196,1366,768,1366,768,8-29-2022,9-2-57,122,depth_duration_stimuli/002788_2014-06-22_19-36-03_094959634447_rgbf000088-resize_2/002788_2014-06-22_19-36-03_094959634447_rgbf000088-resize_2-target.png,1000,1.6465,8,3123,999,feet,jsons/v1_VE1000_randls_31_rotated.json,1066759,1160737,25,Man
122,975399,DepthScenes,duration_manipulation_targetAtFixation,jsons/v1_VE1000_randls_31_rotated.json,http://54.235.29.9/FacialAge/BNav_EC2/DepthDuration/v2_depth_duration_MTurk/v2_DepthDuration_HTML.html#196,196,1366,768,1366,768,8-29-2022,9-2-57,123,depth_duration_stimuli/002953_2014-06-08_17-32-18_094959634447_rgbf000059-resize_5/002953_2014-06-08_17-32-18_094959634447_rgbf000059-resize_5-target.png,1000,1.551,5,2604,997,feet,jsons/v1_VE1000_randls_31_rotated.json,1066759,1160737,25,Man
123,975399,DepthScenes,duration_manipulation_targetAtFixation,jsons/v1_VE1000_randls_31_rotated.json,http://54.235.29.9/FacialAge/BNav_EC2/DepthDuration/v2_depth_duration_MTurk/v2_DepthDuration_HTML.html#196,196,1366,768,1366,768,8-29-2022,9-2-57,124,depth_duration_stimuli/000878_2014-06-08_22-52-45_260595134347_rgbf000045-resize_2/000878_2014-06-08_22-52-45_260595134347_rgbf000045-resize_2-target.png,1000,2.092,8,2516,989,feet,jsons/v1_VE1000_randls_31_rotated.json,1066759,1160737,25,Man
124,975399,DepthScenes,duration_manipulation_targetAtFixation,jsons/v1_VE1000_randls_31_rotated.json,http://54.235.29.9/FacialAge/BNav_EC2/DepthDuration/v2_depth_duration_MTurk/v2_DepthDuration_HTML.html#196,196,1366,768,1366,768,8-29-2022,9-2-57,125,depth_duration_stimuli/002639_2014-06-24_14-51-37_094959634447_rgbf000074-resize_4/002639_2014-06-24_14-51-37_094959634447_rgbf000074-resize_4-target.png,1000,4.0375,7,2470,994,feet,jsons/v1_VE1000_randls_31_rotated.json,1066759,1160737,25,Man
125,975399,DepthScenes,duration_manipulation_targetAtFixation,jsons/v1_VE1000_randls_31_rotated.json,http://54.235.29.9/FacialAge/BNav_EC2/DepthDuration/v2_depth_duration_MTurk/v2_DepthDuration_HTML.html#196,196,1366,768,1366,768,8-29-2022,9-2-57,126,depth_duration_stimuli/003292_2014-05-14_21-53-49_094959634447_rgbf000100-resize_2/003292_2014-05-14_21-53-49_094959634447_rgbf000100-resize_2-target.png,1000,3.4815,5,2659,999,feet,jsons/v1_VE1000_randls_31_rotated.json,1066759,1160737,25,Man
126,975399,DepthScenes,duration_manipulation_targetAtFixation,jsons/v1_VE1000_randls_31_rotated.json,http://54.235.29.9/FacialAge/BNav_EC2/DepthDuration/v2_depth_duration_MTurk/v2_DepthDuration_HTML.html#196,196,1366,768,1366,768,8-29-2022,9-2-57,127,depth_duration_stimuli/000927_2014-06-09_16-32-30_260595134347_rgbf000123-resize_3/000927_2014-06-09_16-32-30_260595134347_rgbf000123-resize_3-target.png,1000,2.6785,7,2418,999,feet,jsons/v1_VE1000_randls_31_rotated.json,1066759,1160737,25,Man
127,975399,DepthScenes,duration_manipulation_targetAtFixation,jsons/v1_VE1000_randls_31_rotated.json,http://54.235.29.9/FacialAge/BNav_EC2/DepthDuration/v2_depth_duration_MTurk/v2_DepthDuration_HTML.html#196,196,1366,768,1366,768,8-29-2022,9-2-57,128,depth_duration_stimuli/001110_2014-06-15_17-25-28_260595134347_rgbf000150-resize_1/001110_2014-06-15_17-25-28_260595134347_rgbf000150-resize_1-target.png,1000,1.7115,5,2431,992,feet,jsons/v1_VE1000_randls_31_rotated.json,1066759,1160737,25,Man
128,975399,DepthScenes,duration_manipulation_targetAtFixation,jsons/v1_VE1000_randls_31_rotated.json,http://54.235.29.9/FacialAge/BNav_EC2/DepthDuration/v2_depth_duration_MTurk/v2_DepthDuration_HTML.html#196,196,1366,768,1366,768,8-29-2022,9-2-57,129,depth_duration_stimuli/000409_2014-06-04_19-23-33_260595134347_rgbf000067-resize_0/000409_2014-06-04_19-23-33_260595134347_rgbf000067-resize_0-target.png,1000,3.7335,5,2518,990,feet,jsons/v1_VE1000_randls_31_rotated.json,1066759,1160737,25,Man
129,975399,DepthScenes,duration_manipulation_targetAtFixation,jsons/v1_VE1000_randls_31_rotated.json,http://54.235.29.9/FacialAge/BNav_EC2/DepthDuration/v2_depth_duration_MTurk/v2_DepthDuration_HTML.html#196,196,1366,768,1366,768,8-29-2022,9-2-57,130,depth_duration_stimuli/002663_2014-06-13_15-50-26_094959634447_rgbf000075-resize_1/002663_2014-06-13_15-50-26_094959634447_rgbf000075-resize_1-target.png,1000,4.7495,7,2947,977,feet,jsons/v1_VE1000_randls_31_rotated.json,1066759,1160737,25,Man
130,975399,DepthScenes,duration_manipulation_targetAtFixation,jsons/v1_VE1000_randls_31_rotated.json,http://54.235.29.9/FacialAge/BNav_EC2/DepthDuration/v2_depth_duration_MTurk/v2_DepthDuration_HTML.html#196,196,1366,768,1366,768,8-29-2022,9-2-57,131,depth_duration_stimuli/002750_2014-06-22_19-08-03_094959634447_rgbf000094-resize_4/002750_2014-06-22_19-08-03_094959634447_rgbf000094-resize_4-target.png,1000,2.354,6,3066,992,feet,jsons/v1_VE1000_randls_31_rotated.json,1066759,1160737,25,Man
131,975399,DepthScenes,duration_manipulation_targetAtFixation,jsons/v1_VE1000_randls_31_rotated.json,http://54.235.29.9/FacialAge/BNav_EC2/DepthDuration/v2_depth_duration_MTurk/v2_DepthDuration_HTML.html#196,196,1366,768,1366,768,8-29-2022,9-2-57,132,depth_duration_stimuli/002549_2014-06-24_13-41-39_094959634447_rgbf000022-resize_3/002549_2014-06-24_13-41-39_094959634447_rgbf000022-resize_3-target.png,1000,1.476,5,2969,1001,feet,jsons/v1_VE1000_randls_31_rotated.json,1066759,1160737,25,Man
132,975399,DepthScenes,duration_manipulation_targetAtFixation,jsons/v1_VE1000_randls_31_rotated.json,http://54.235.29.9/FacialAge/BNav_EC2/DepthDuration/v2_depth_duration_MTurk/v2_DepthDuration_HTML.html#196,196,1366,768,1366,768,8-29-2022,9-2-57,133,depth_duration_stimuli/002344_2014-06-28_20-06-29_260595134347_rgbf000030-resize_1/002344_2014-06-28_20-06-29_260595134347_rgbf000030-resize_1-target.png,1000,1.5795,3,3200,996,feet,jsons/v1_VE1000_randls_31_rotated.json,1066759,1160737,25,Man
133,975399,DepthScenes,duration_manipulation_targetAtFixation,jsons/v1_VE1000_randls_31_rotated.json,http://54.235.29.9/FacialAge/BNav_EC2/DepthDuration/v2_depth_duration_MTurk/v2_DepthDuration_HTML.html#196,196,1366,768,1366,768,8-29-2022,9-2-57,134,depth_duration_stimuli/002725_2014-06-22_11-47-51_094959634447_rgbf000070-resize_1/002725_2014-06-22_11-47-51_094959634447_rgbf000070-resize_1-target.png,1000,2.195,5,3238,1001,feet,jsons/v1_VE1000_randls_31_rotated.json,1066759,1160737,25,Man
134,975399,DepthScenes,duration_manipulation_targetAtFixation,jsons/v1_VE1000_randls_31_rotated.json,http://54.235.29.9/FacialAge/BNav_EC2/DepthDuration/v2_depth_duration_MTurk/v2_DepthDuration_HTML.html#196,196,1366,768,1366,768,8-29-2022,9-2-57,135,depth_duration_stimuli/000375_2014-06-08_11-17-29_260595134347_rgbf000133-resize_2/000375_2014-06-08_11-17-29_260595134347_rgbf000133-resize-original.jpg,1000,4.718,0,2702,1000,feet,jsons/v1_VE1000_randls_31_rotated.json,1066759,1160737,25,Man
135,975399,DepthScenes,duration_manipulation_targetAtFixation,jsons/v1_VE1000_randls_31_rotated.json,http://54.235.29.9/FacialAge/BNav_EC2/DepthDuration/v2_depth_duration_MTurk/v2_DepthDuration_HTML.html#196,196,1366,768,1366,768,8-29-2022,9-2-57,136,depth_duration_stimuli/000742_2014-06-08_18-48-09_260595134347_rgbf000164-resize_4/000742_2014-06-08_18-48-09_260595134347_rgbf000164-resize_4-target.png,1000,4.632,7,2675,992,feet,jsons/v1_VE1000_randls_31_rotated.json,1066759,1160737,25,Man
136,975399,DepthScenes,duration_manipulation_targetAtFixation,jsons/v1_VE1000_randls_31_rotated.json,http://54.235.29.9/FacialAge/BNav_EC2/DepthDuration/v2_depth_duration_MTurk/v2_DepthDuration_HTML.html#196,196,1366,768,1366,768,8-29-2022,9-2-57,137,depth_duration_stimuli/001066_2014-06-08_22-03-20_260595134347_rgbf000066-resize_4/001066_2014-06-08_22-03-20_260595134347_rgbf000066-resize_4-target.png,1000,4.2330000000000005,8,2591,990,feet,jsons/v1_VE1000_randls_31_rotated.json,1066759,1160737,25,Man
137,975399,DepthScenes,duration_manipulation_targetAtFixation,jsons/v1_VE1000_randls_31_rotated.json,http://54.235.29.9/FacialAge/BNav_EC2/DepthDuration/v2_depth_duration_MTurk/v2_DepthDuration_HTML.html#196,196,1366,768,1366,768,8-29-2022,9-2-57,138,depth_duration_stimuli/002323_2014-06-28_20-01-54_260595134347_rgbf000051-resize_4/002323_2014-06-28_20-01-54_260595134347_rgbf000051-resize_4-target.png,1000,3.7310000000000003,7,2491,1000,feet,jsons/v1_VE1000_randls_31_rotated.json,1066759,1160737,25,Man
138,975399,DepthScenes,duration_manipulation_targetAtFixation,jsons/v1_VE1000_randls_31_rotated.json,http://54.235.29.9/FacialAge/BNav_EC2/DepthDuration/v2_depth_duration_MTurk/v2_DepthDuration_HTML.html#196,196,1366,768,1366,768,8-29-2022,9-2-57,139,depth_duration_stimuli/000917_2014-06-09_22-45-29_260595134347_rgbf000149-resize_3/000917_2014-06-09_22-45-29_260595134347_rgbf000149-resize_3-target.png,1000,4.1865,7,2531,997,feet,jsons/v1_VE1000_randls_31_rotated.json,1066759,1160737,25,Man
139,975399,DepthScenes,duration_manipulation_targetAtFixation,jsons/v1_VE1000_randls_31_rotated.json,http://54.235.29.9/FacialAge/BNav_EC2/DepthDuration/v2_depth_duration_MTurk/v2_DepthDuration_HTML.html#196,196,1366,768,1366,768,8-29-2022,9-2-57,140,depth_duration_stimuli/003048_2014-06-15_13-49-43_094959634447_rgbf000150-resize_1/003048_2014-06-15_13-49-43_094959634447_rgbf000150-resize_1-target.png,1000,4.0035,6,3634,984,feet,jsons/v1_VE1000_randls_31_rotated.json,1066759,1160737,25,Man
140,975399,DepthScenes,duration_manipulation_targetAtFixation,jsons/v1_VE1000_randls_31_rotated.json,http://54.235.29.9/FacialAge/BNav_EC2/DepthDuration/v2_depth_duration_MTurk/v2_DepthDuration_HTML.html#196,196,1366,768,1366,768,8-29-2022,9-2-57,141,depth_duration_stimuli/002043_2014-06-24_20-29-38_260595134347_rgbf000039-resize_4/002043_2014-06-24_20-29-38_260595134347_rgbf000039-resize_4-target.png,1000,2.8435,7,2441,1003,feet,jsons/v1_VE1000_randls_31_rotated.json,1066759,1160737,25,Man
141,975399,DepthScenes,duration_manipulation_targetAtFixation,jsons/v1_VE1000_randls_31_rotated.json,http://54.235.29.9/FacialAge/BNav_EC2/DepthDuration/v2_depth_duration_MTurk/v2_DepthDuration_HTML.html#196,196,1366,768,1366,768,8-29-2022,9-2-57,142,depth_duration_stimuli/001032_2014-06-08_13-23-17_260595134347_rgbf000021-resize_3/001032_2014-06-08_13-23-17_260595134347_rgbf000021-resize_3-target.png,1000,3.2725,5,2577,1012,feet,jsons/v1_VE1000_randls_31_rotated.json,1066759,1160737,25,Man
142,975399,DepthScenes,duration_manipulation_targetAtFixation,jsons/v1_VE1000_randls_31_rotated.json,http://54.235.29.9/FacialAge/BNav_EC2/DepthDuration/v2_depth_duration_MTurk/v2_DepthDuration_HTML.html#196,196,1366,768,1366,768,8-29-2022,9-2-57,143,depth_duration_stimuli/001059_2014-06-08_21-53-27_260595134347_rgbf000061-resize_4/001059_2014-06-08_21-53-27_260595134347_rgbf000061-resize_4-target.png,1000,2.4185,5,2408,990,feet,jsons/v1_VE1000_randls_31_rotated.json,1066759,1160737,25,Man
143,975399,DepthScenes,duration_manipulation_targetAtFixation,jsons/v1_VE1000_randls_31_rotated.json,http://54.235.29.9/FacialAge/BNav_EC2/DepthDuration/v2_depth_duration_MTurk/v2_DepthDuration_HTML.html#196,196,1366,768,1366,768,8-29-2022,9-2-57,144,depth_duration_stimuli/001392_2014-06-19_16-07-59_260595134347_rgbf000046-resize_1/001392_2014-06-19_16-07-59_260595134347_rgbf000046-resize_1-target.png,1000,4.135,7,3057,999,feet,jsons/v1_VE1000_randls_31_rotated.json,1066759,1160737,25,Man
144,975399,DepthScenes,duration_manipulation_targetAtFixation,jsons/v1_VE1000_randls_31_rotated.json,http://54.235.29.9/FacialAge/BNav_EC2/DepthDuration/v2_depth_duration_MTurk/v2_DepthDuration_HTML.html#196,196,1366,768,1366,768,8-29-2022,9-2-57,145,depth_duration_stimuli/001570_2014-06-20_17-21-09_260595134347_rgbf000135-resize_4/001570_2014-06-20_17-21-09_260595134347_rgbf000135-resize_4-target.png,1000,4.467,7,2477,999,feet,jsons/v1_VE1000_randls_31_rotated.json,1066759,1160737,25,Man
145,975399,DepthScenes,duration_manipulation_targetAtFixation,jsons/v1_VE1000_randls_31_rotated.json,http://54.235.29.9/FacialAge/BNav_EC2/DepthDuration/v2_depth_duration_MTurk/v2_DepthDuration_HTML.html#196,196,1366,768,1366,768,8-29-2022,9-2-57,146,depth_duration_stimuli/000191_2014-05-12_17-07-38_260595134347_rgbf000199-resize_0/000191_2014-05-12_17-07-38_260595134347_rgbf000199-resize_0-target.png,1000,3.7995,6,2495,999,feet,jsons/v1_VE1000_randls_31_rotated.json,1066759,1160737,25,Man
146,975399,DepthScenes,duration_manipulation_targetAtFixation,jsons/v1_VE1000_randls_31_rotated.json,http://54.235.29.9/FacialAge/BNav_EC2/DepthDuration/v2_depth_duration_MTurk/v2_DepthDuration_HTML.html#196,196,1366,768,1366,768,8-29-2022,9-2-57,147,depth_duration_stimuli/000493_2014-06-09_21-01-18_260595134347_rgbf000196-resize_3/000493_2014-06-09_21-01-18_260595134347_rgbf000196-resize_3-target.png,1000,3.44,5,2508,1001,feet,jsons/v1_VE1000_randls_31_rotated.json,1066759,1160737,25,Man
147,975399,DepthScenes,duration_manipulation_targetAtFixation,jsons/v1_VE1000_randls_31_rotated.json,http://54.235.29.9/FacialAge/BNav_EC2/DepthDuration/v2_depth_duration_MTurk/v2_DepthDuration_HTML.html#196,196,1366,768,1366,768,8-29-2022,9-2-57,148,depth_duration_stimuli/000677_2014-06-08_23-10-32_260595134347_rgbf000158-resize_6/000677_2014-06-08_23-10-32_260595134347_rgbf000158-resize_6-target.png,1000,3.556,7,2784,999,feet,jsons/v1_VE1000_randls_31_rotated.json,1066759,1160737,25,Man
148,975399,DepthScenes,duration_manipulation_targetAtFixation,jsons/v1_VE1000_randls_31_rotated.json,http://54.235.29.9/FacialAge/BNav_EC2/DepthDuration/v2_depth_duration_MTurk/v2_DepthDuration_HTML.html#196,196,1366,768,1366,768,8-29-2022,9-2-57,149,depth_duration_stimuli/001029_2014-06-08_13-17-57_260595134347_rgbf000065-resize_1/001029_2014-06-08_13-17-57_260595134347_rgbf000065-resize_1-target.png,1000,3.0835,8,330633,1003,feet,jsons/v1_VE1000_randls_31_rotated.json,1066759,1160737,25,Man
149,975399,DepthScenes,duration_manipulation_targetAtFixation,jsons/v1_VE1000_randls_31_rotated.json,http://54.235.29.9/FacialAge/BNav_EC2/DepthDuration/v2_depth_duration_MTurk/v2_DepthDuration_HTML.html#196,196,1366,768,1366,768,8-29-2022,9-2-57,150,depth_duration_stimuli/000854_2014-06-09_19-43-13_260595134347_rgbf000066-resize_0/000854_2014-06-09_19-43-13_260595134347_rgbf000066-resize_0-target.png,1000,3.068,7,3085,994,feet,jsons/v1_VE1000_randls_31_rotated.json,1066759,1160737,25,Man
150,975399,DepthScenes,duration_manipulation_targetAtFixation,jsons/v1_VE1000_randls_31_rotated.json,http://54.235.29.9/FacialAge/BNav_EC2/DepthDuration/v2_depth_duration_MTurk/v2_DepthDuration_HTML.html#196,196,1366,768,1366,768,8-29-2022,9-2-57,151,depth_duration_stimuli/000758_2014-06-08_22-05-08_260595134347_rgbf000085-resize_0/000758_2014-06-08_22-05-08_260595134347_rgbf000085-resize_0-target.png,1000,3.3810000000000002,7,2957,987,feet,jsons/v1_VE1000_randls_31_rotated.json,1066759,1160737,25,Man
151,975399,DepthScenes,duration_manipulation_targetAtFixation,jsons/v1_VE1000_randls_31_rotated.json,http://54.235.29.9/FacialAge/BNav_EC2/DepthDuration/v2_depth_duration_MTurk/v2_DepthDuration_HTML.html#196,196,1366,768,1366,768,8-29-2022,9-2-57,152,depth_duration_stimuli/000569_2014-06-09_22-51-47_260595134347_rgbf000141-resize_3/000569_2014-06-09_22-51-47_260595134347_rgbf000141-resize-original.jpg,1000,4.512,0,3223,995,feet,jsons/v1_VE1000_randls_31_rotated.json,1066759,1160737,25,Man
152,975399,DepthScenes,duration_manipulation_targetAtFixation,jsons/v1_VE1000_randls_31_rotated.json,http://54.235.29.9/FacialAge/BNav_EC2/DepthDuration/v2_depth_duration_MTurk/v2_DepthDuration_HTML.html#196,196,1366,768,1366,768,8-29-2022,9-2-57,153,depth_duration_stimuli/003490_2014-05-21_15-50-11_094959634447_rgbf000101-resize_3/003490_2014-05-21_15-50-11_094959634447_rgbf000101-resize_3-target.png,1000,3.6445,7,3743,996,feet,jsons/v1_VE1000_randls_31_rotated.json,1066759,1160737,25,Man
153,975399,DepthScenes,duration_manipulation_targetAtFixation,jsons/v1_VE1000_randls_31_rotated.json,http://54.235.29.9/FacialAge/BNav_EC2/DepthDuration/v2_depth_duration_MTurk/v2_DepthDuration_HTML.html#196,196,1366,768,1366,768,8-29-2022,9-2-57,154,depth_duration_stimuli/001175_2014-06-17_15-45-55_260595134347_rgbf000129-resize_4/001175_2014-06-17_15-45-55_260595134347_rgbf000129-resize_4-target.png,1000,4.255,8,3739,1000,feet,jsons/v1_VE1000_randls_31_rotated.json,1066759,1160737,25,Man
154,975399,DepthScenes,duration_manipulation_targetAtFixation,jsons/v1_VE1000_randls_31_rotated.json,http://54.235.29.9/FacialAge/BNav_EC2/DepthDuration/v2_depth_duration_MTurk/v2_DepthDuration_HTML.html#196,196,1366,768,1366,768,8-29-2022,9-2-57,155,depth_duration_stimuli/000866_2014-06-09_20-45-42_260595134347_rgbf000139-resize_1/000866_2014-06-09_20-45-42_260595134347_rgbf000139-resize_1-target.png,1000,3.2155,7,3259,1002,feet,jsons/v1_VE1000_randls_31_rotated.json,1066759,1160737,25,Man
155,975399,DepthScenes,duration_manipulation_targetAtFixation,jsons/v1_VE1000_randls_31_rotated.json,http://54.235.29.9/FacialAge/BNav_EC2/DepthDuration/v2_depth_duration_MTurk/v2_DepthDuration_HTML.html#196,196,1366,768,1366,768,8-29-2022,9-2-57,156,depth_duration_stimuli/002989_2014-06-15_12-25-03_094959634447_rgbf000150-resize_3/002989_2014-06-15_12-25-03_094959634447_rgbf000150-resize_3-target.png,1000,4.1975,8,3578,1001,feet,jsons/v1_VE1000_randls_31_rotated.json,1066759,1160737,25,Man
156,975399,DepthScenes,duration_manipulation_targetAtFixation,jsons/v1_VE1000_randls_31_rotated.json,http://54.235.29.9/FacialAge/BNav_EC2/DepthDuration/v2_depth_duration_MTurk/v2_DepthDuration_HTML.html#196,196,1366,768,1366,768,8-29-2022,9-2-57,157,depth_duration_stimuli/000780_2014-06-08_22-28-29_260595134347_rgbf000126-resize_1/000780_2014-06-08_22-28-29_260595134347_rgbf000126-resize_1-target.png,1000,3.3825,8,2463,1011,feet,jsons/v1_VE1000_randls_31_rotated.json,1066759,1160737,25,Man
157,975399,DepthScenes,duration_manipulation_targetAtFixation,jsons/v1_VE1000_randls_31_rotated.json,http://54.235.29.9/FacialAge/BNav_EC2/DepthDuration/v2_depth_duration_MTurk/v2_DepthDuration_HTML.html#196,196,1366,768,1366,768,8-29-2022,9-2-57,158,depth_duration_stimuli/002445_2014-06-28_20-32-16_260595134347_rgbf000029-resize_4/002445_2014-06-28_20-32-16_260595134347_rgbf000029-resize_4-target.png,1000,2.5315,7,2609,988,feet,jsons/v1_VE1000_randls_31_rotated.json,1066759,1160737,25,Man
158,975399,DepthScenes,duration_manipulation_targetAtFixation,jsons/v1_VE1000_randls_31_rotated.json,http://54.235.29.9/FacialAge/BNav_EC2/DepthDuration/v2_depth_duration_MTurk/v2_DepthDuration_HTML.html#196,196,1366,768,1366,768,8-29-2022,9-2-57,159,depth_duration_stimuli/003228_2014-05-14_13-42-35_094959634447_rgbf000101-resize_1/003228_2014-05-14_13-42-35_094959634447_rgbf000101-resize_1-target.png,1000,1.9680000000000002,5,2615,1004,feet,jsons/v1_VE1000_randls_31_rotated.json,1066759,1160737,25,Man
159,975399,DepthScenes,duration_manipulation_targetAtFixation,jsons/v1_VE1000_randls_31_rotated.json,http://54.235.29.9/FacialAge/BNav_EC2/DepthDuration/v2_depth_duration_MTurk/v2_DepthDuration_HTML.html#196,196,1366,768,1366,768,8-29-2022,9-2-57,160,depth_duration_stimuli/002600_2014-06-24_14-27-04_094959634447_rgbf000074-resize_2/002600_2014-06-24_14-27-04_094959634447_rgbf000074-resize_2-target.png,1000,2.7575,7,2523,1001,feet,jsons/v1_VE1000_randls_31_rotated.json,1066759,1160737,25,Man
160,975399,DepthScenes,duration_manipulation_targetAtFixation,jsons/v1_VE1000_randls_31_rotated.json,http://54.235.29.9/FacialAge/BNav_EC2/DepthDuration/v2_depth_duration_MTurk/v2_DepthDuration_HTML.html#196,196,1366,768,1366,768,8-29-2022,9-2-57,161,depth_duration_stimuli/002425_2014-06-28_20-27-29_260595134347_rgbf000031-resize_8/002425_2014-06-28_20-27-29_260595134347_rgbf000031-resize_8-target.png,1000,3.8960000000000004,6,2502,1000,feet,jsons/v1_VE1000_randls_31_rotated.json,1066759,1160737,25,Man
161,975399,DepthScenes,duration_manipulation_targetAtFixation,jsons/v1_VE1000_randls_31_rotated.json,http://54.235.29.9/FacialAge/BNav_EC2/DepthDuration/v2_depth_duration_MTurk/v2_DepthDuration_HTML.html#196,196,1366,768,1366,768,8-29-2022,9-2-57,162,depth_duration_stimuli/000642_2014-06-08_16-59-25_260595134347_rgbf000098-resize_2/000642_2014-06-08_16-59-25_260595134347_rgbf000098-resize_2-target.png,1000,2.8815,7,2916,986,feet,jsons/v1_VE1000_randls_31_rotated.json,1066759,1160737,25,Man
162,975399,DepthScenes,duration_manipulation_targetAtFixation,jsons/v1_VE1000_randls_31_rotated.json,http://54.235.29.9/FacialAge/BNav_EC2/DepthDuration/v2_depth_duration_MTurk/v2_DepthDuration_HTML.html#196,196,1366,768,1366,768,8-29-2022,9-2-57,163,depth_duration_stimuli/002199_2014-06-28_18-33-56_260595134347_rgbf000074-resize_0/002199_2014-06-28_18-33-56_260595134347_rgbf000074-resize_0-target.png,1000,1.996,3,2505,989,feet,jsons/v1_VE1000_randls_31_rotated.json,1066759,1160737,25,Man
163,975399,DepthScenes,duration_manipulation_targetAtFixation,jsons/v1_VE1000_randls_31_rotated.json,http://54.235.29.9/FacialAge/BNav_EC2/DepthDuration/v2_depth_duration_MTurk/v2_DepthDuration_HTML.html#196,196,1366,768,1366,768,8-29-2022,9-2-57,164,depth_duration_stimuli/001056_2014-06-08_18-46-44_260595134347_rgbf000068-resize_0/001056_2014-06-08_18-46-44_260595134347_rgbf000068-resize_0-target.png,1000,2.6625,7,2693,986,feet,jsons/v1_VE1000_randls_31_rotated.json,1066759,1160737,25,Man
