,subjID,experimentName,versionName,sequenceName,url,selected_row,windowWidth,windowHeight,screenWidth,screenHeight,startDate,startTime,trial,stimulus,duration,actual_depth,depth_estimate,trial_RT,log_sceneDuration,unitSelection,seq_filepath,experimentTime,totalTime,age,gender
0,975880,DepthScenes,duration_manipulation_targetAtFixation,jsons/v1_VE1000_randls_28_rotated.json,http://54.235.29.9/FacialAge/BNav_EC2/DepthDuration/v2_depth_duration_MTurk/v2_DepthDuration_HTML.html#111,111,1366,657,1366,768,8-29-2022,6-42-44,1,depth_duration_stimuli/002136_2014-06-25_21-18-03_260595134347_rgbf000109-resize_3/002136_2014-06-25_21-18-03_260595134347_rgbf000109-resize_3-target.png,1000,1.9569999999999999,12,4623,1002,feet,jsons/v1_VE1000_randls_28_rotated.json,859594,1668913,26,Woman
1,975880,DepthScenes,duration_manipulation_targetAtFixation,jsons/v1_VE1000_randls_28_rotated.json,http://54.235.29.9/FacialAge/BNav_EC2/DepthDuration/v2_depth_duration_MTurk/v2_DepthDuration_HTML.html#111,111,1366,657,1366,768,8-29-2022,6-42-44,2,depth_duration_stimuli/002964_2014-06-08_17-46-11_094959634447_rgbf000091-resize_4/002964_2014-06-08_17-46-11_094959634447_rgbf000091-resize_4-target.png,1000,1.6909999999999998,14,5416,988,feet,jsons/v1_VE1000_randls_28_rotated.json,859594,1668913,26,Woman
2,975880,DepthScenes,duration_manipulation_targetAtFixation,jsons/v1_VE1000_randls_28_rotated.json,http://54.235.29.9/FacialAge/BNav_EC2/DepthDuration/v2_depth_duration_MTurk/v2_DepthDuration_HTML.html#111,111,1366,657,1366,768,8-29-2022,6-42-44,3,depth_duration_stimuli/000866_2014-06-09_20-45-42_260595134347_rgbf000139-resize_1/000866_2014-06-09_20-45-42_260595134347_rgbf000139-resize_1-target.png,1000,3.2155,13,4398,1000,feet,jsons/v1_VE1000_randls_28_rotated.json,859594,1668913,26,Woman
3,975880,DepthScenes,duration_manipulation_targetAtFixation,jsons/v1_VE1000_randls_28_rotated.json,http://54.235.29.9/FacialAge/BNav_EC2/DepthDuration/v2_depth_duration_MTurk/v2_DepthDuration_HTML.html#111,111,1366,657,1366,768,8-29-2022,6-42-44,4,depth_duration_stimuli/002989_2014-06-15_12-25-03_094959634447_rgbf000150-resize_3/002989_2014-06-15_12-25-03_094959634447_rgbf000150-resize_3-target.png,1000,4.1975,15,4220,1000,feet,jsons/v1_VE1000_randls_28_rotated.json,859594,1668913,26,Woman
4,975880,DepthScenes,duration_manipulation_targetAtFixation,jsons/v1_VE1000_randls_28_rotated.json,http://54.235.29.9/FacialAge/BNav_EC2/DepthDuration/v2_depth_duration_MTurk/v2_DepthDuration_HTML.html#111,111,1366,657,1366,768,8-29-2022,6-42-44,5,depth_duration_stimuli/000409_2014-06-04_19-23-33_260595134347_rgbf000067-resize_0/000409_2014-06-04_19-23-33_260595134347_rgbf000067-resize_0-target.png,1000,3.7335,11,5556,999,feet,jsons/v1_VE1000_randls_28_rotated.json,859594,1668913,26,Woman
5,975880,DepthScenes,duration_manipulation_targetAtFixation,jsons/v1_VE1000_randls_28_rotated.json,http://54.235.29.9/FacialAge/BNav_EC2/DepthDuration/v2_depth_duration_MTurk/v2_DepthDuration_HTML.html#111,111,1366,657,1366,768,8-29-2022,6-42-44,6,depth_duration_stimuli/002663_2014-06-13_15-50-26_094959634447_rgbf000075-resize_1/002663_2014-06-13_15-50-26_094959634447_rgbf000075-resize_1-target.png,1000,4.7495,9,4202,994,feet,jsons/v1_VE1000_randls_28_rotated.json,859594,1668913,26,Woman
6,975880,DepthScenes,duration_manipulation_targetAtFixation,jsons/v1_VE1000_randls_28_rotated.json,http://54.235.29.9/FacialAge/BNav_EC2/DepthDuration/v2_depth_duration_MTurk/v2_DepthDuration_HTML.html#111,111,1366,657,1366,768,8-29-2022,6-42-44,7,depth_duration_stimuli/003495_2014-05-21_16-01-51_094959634447_rgbf000100-resize_3/003495_2014-05-21_16-01-51_094959634447_rgbf000100-resize_3-target.png,1000,1.6255,5,4425,941,feet,jsons/v1_VE1000_randls_28_rotated.json,859594,1668913,26,Woman
7,975880,DepthScenes,duration_manipulation_targetAtFixation,jsons/v1_VE1000_randls_28_rotated.json,http://54.235.29.9/FacialAge/BNav_EC2/DepthDuration/v2_depth_duration_MTurk/v2_DepthDuration_HTML.html#111,111,1366,657,1366,768,8-29-2022,6-42-44,8,depth_duration_stimuli/001244_2014-06-17_16-47-45_260595134347_rgbf000030-resize_4/001244_2014-06-17_16-47-45_260595134347_rgbf000030-resize_4-target.png,1000,2.0425,11,29810,998,feet,jsons/v1_VE1000_randls_28_rotated.json,859594,1668913,26,Woman
8,975880,DepthScenes,duration_manipulation_targetAtFixation,jsons/v1_VE1000_randls_28_rotated.json,http://54.235.29.9/FacialAge/BNav_EC2/DepthDuration/v2_depth_duration_MTurk/v2_DepthDuration_HTML.html#111,111,1366,657,1366,768,8-29-2022,6-42-44,9,depth_duration_stimuli/000854_2014-06-09_19-43-13_260595134347_rgbf000066-resize_0/000854_2014-06-09_19-43-13_260595134347_rgbf000066-resize_0-target.png,1000,3.068,6,4398,997,feet,jsons/v1_VE1000_randls_28_rotated.json,859594,1668913,26,Woman
9,975880,DepthScenes,duration_manipulation_targetAtFixation,jsons/v1_VE1000_randls_28_rotated.json,http://54.235.29.9/FacialAge/BNav_EC2/DepthDuration/v2_depth_duration_MTurk/v2_DepthDuration_HTML.html#111,111,1366,657,1366,768,8-29-2022,6-42-44,10,depth_duration_stimuli/000758_2014-06-08_22-05-08_260595134347_rgbf000085-resize_0/000758_2014-06-08_22-05-08_260595134347_rgbf000085-resize_0-target.png,1000,3.3810000000000002,8,3650,1000,feet,jsons/v1_VE1000_randls_28_rotated.json,859594,1668913,26,Woman
10,975880,DepthScenes,duration_manipulation_targetAtFixation,jsons/v1_VE1000_randls_28_rotated.json,http://54.235.29.9/FacialAge/BNav_EC2/DepthDuration/v2_depth_duration_MTurk/v2_DepthDuration_HTML.html#111,111,1366,657,1366,768,8-29-2022,6-42-44,11,depth_duration_stimuli/001450_2014-06-19_17-02-03_260595134347_rgbf000203-resize_4/001450_2014-06-19_17-02-03_260595134347_rgbf000203-resize_4-target.png,1000,4.0106666666667,9,3732,1001,feet,jsons/v1_VE1000_randls_28_rotated.json,859594,1668913,26,Woman
11,975880,DepthScenes,duration_manipulation_targetAtFixation,jsons/v1_VE1000_randls_28_rotated.json,http://54.235.29.9/FacialAge/BNav_EC2/DepthDuration/v2_depth_duration_MTurk/v2_DepthDuration_HTML.html#111,111,1366,657,1366,768,8-29-2022,6-42-44,12,depth_duration_stimuli/001449_2014-06-19_17-01-27_260595134347_rgbf000116-resize_2/001449_2014-06-19_17-01-27_260595134347_rgbf000116-resize_2-target.png,1000,3.452,11,3913,989,feet,jsons/v1_VE1000_randls_28_rotated.json,859594,1668913,26,Woman
12,975880,DepthScenes,duration_manipulation_targetAtFixation,jsons/v1_VE1000_randls_28_rotated.json,http://54.235.29.9/FacialAge/BNav_EC2/DepthDuration/v2_depth_duration_MTurk/v2_DepthDuration_HTML.html#111,111,1366,657,1366,768,8-29-2022,6-42-44,13,depth_duration_stimuli/001617_2014-06-20_11-35-32_260595134347_rgbf000066-resize_1/001617_2014-06-20_11-35-32_260595134347_rgbf000066-resize_1-target.png,1000,3.7910000000000004,8,3950,1001,feet,jsons/v1_VE1000_randls_28_rotated.json,859594,1668913,26,Woman
13,975880,DepthScenes,duration_manipulation_targetAtFixation,jsons/v1_VE1000_randls_28_rotated.json,http://54.235.29.9/FacialAge/BNav_EC2/DepthDuration/v2_depth_duration_MTurk/v2_DepthDuration_HTML.html#111,111,1366,657,1366,768,8-29-2022,6-42-44,14,depth_duration_stimuli/001806_2014-06-26_20-50-20_260595134347_rgbf000091-resize_1/001806_2014-06-26_20-50-20_260595134347_rgbf000091-resize_1-target.png,1000,2.7305,5,3831,1018,feet,jsons/v1_VE1000_randls_28_rotated.json,859594,1668913,26,Woman
14,975880,DepthScenes,duration_manipulation_targetAtFixation,jsons/v1_VE1000_randls_28_rotated.json,http://54.235.29.9/FacialAge/BNav_EC2/DepthDuration/v2_depth_duration_MTurk/v2_DepthDuration_HTML.html#111,111,1366,657,1366,768,8-29-2022,6-42-44,15,depth_duration_stimuli/002750_2014-06-22_19-08-03_094959634447_rgbf000094-resize_4/002750_2014-06-22_19-08-03_094959634447_rgbf000094-resize_4-target.png,1000,2.354,7,3723,906,feet,jsons/v1_VE1000_randls_28_rotated.json,859594,1668913,26,Woman
15,975880,DepthScenes,duration_manipulation_targetAtFixation,jsons/v1_VE1000_randls_28_rotated.json,http://54.235.29.9/FacialAge/BNav_EC2/DepthDuration/v2_depth_duration_MTurk/v2_DepthDuration_HTML.html#111,111,1366,657,1366,768,8-29-2022,6-42-44,16,depth_duration_stimuli/002549_2014-06-24_13-41-39_094959634447_rgbf000022-resize_3/002549_2014-06-24_13-41-39_094959634447_rgbf000022-resize_3-target.png,1000,1.476,8,3883,990,feet,jsons/v1_VE1000_randls_28_rotated.json,859594,1668913,26,Woman
16,975880,DepthScenes,duration_manipulation_targetAtFixation,jsons/v1_VE1000_randls_28_rotated.json,http://54.235.29.9/FacialAge/BNav_EC2/DepthDuration/v2_depth_duration_MTurk/v2_DepthDuration_HTML.html#111,111,1366,657,1366,768,8-29-2022,6-42-44,17,depth_duration_stimuli/003423_2014-05-21_10-23-26_094959634447_rgbf002665-resize_2/003423_2014-05-21_10-23-26_094959634447_rgbf002665-resize_2-target.png,1000,3.2575,3,4193,997,feet,jsons/v1_VE1000_randls_28_rotated.json,859594,1668913,26,Woman
17,975880,DepthScenes,duration_manipulation_targetAtFixation,jsons/v1_VE1000_randls_28_rotated.json,http://54.235.29.9/FacialAge/BNav_EC2/DepthDuration/v2_depth_duration_MTurk/v2_DepthDuration_HTML.html#111,111,1366,657,1366,768,8-29-2022,6-42-44,18,depth_duration_stimuli/002905_2014-06-03_18-04-43_094959634447_rgbf000151-resize_2/002905_2014-06-03_18-04-43_094959634447_rgbf000151-resize_2-target.png,1000,2.0295,6,3450,999,feet,jsons/v1_VE1000_randls_28_rotated.json,859594,1668913,26,Woman
18,975880,DepthScenes,duration_manipulation_targetAtFixation,jsons/v1_VE1000_randls_28_rotated.json,http://54.235.29.9/FacialAge/BNav_EC2/DepthDuration/v2_depth_duration_MTurk/v2_DepthDuration_HTML.html#111,111,1366,657,1366,768,8-29-2022,6-42-44,19,depth_duration_stimuli/001498_2014-06-19_17-45-14_260595134347_rgbf000129-resize_4/001498_2014-06-19_17-45-14_260595134347_rgbf000129-resize-original.jpg,1000,1.4075,0,3854,997,feet,jsons/v1_VE1000_randls_28_rotated.json,859594,1668913,26,Woman
19,975880,DepthScenes,duration_manipulation_targetAtFixation,jsons/v1_VE1000_randls_28_rotated.json,http://54.235.29.9/FacialAge/BNav_EC2/DepthDuration/v2_depth_duration_MTurk/v2_DepthDuration_HTML.html#111,111,1366,657,1366,768,8-29-2022,6-42-44,20,depth_duration_stimuli/000137_2014-05-20_17-04-49_260595134347_rgbf000120-resize_1/000137_2014-05-20_17-04-49_260595134347_rgbf000120-resize_1-target.png,1000,3.786,7,4153,1011,feet,jsons/v1_VE1000_randls_28_rotated.json,859594,1668913,26,Woman
20,975880,DepthScenes,duration_manipulation_targetAtFixation,jsons/v1_VE1000_randls_28_rotated.json,http://54.235.29.9/FacialAge/BNav_EC2/DepthDuration/v2_depth_duration_MTurk/v2_DepthDuration_HTML.html#111,111,1366,657,1366,768,8-29-2022,6-42-44,21,depth_duration_stimuli/000736_2014-06-08_18-24-15_260595134347_rgbf000206-resize_3/000736_2014-06-08_18-24-15_260595134347_rgbf000206-resize_3-target.png,1000,3.515,8,4049,973,feet,jsons/v1_VE1000_randls_28_rotated.json,859594,1668913,26,Woman
21,975880,DepthScenes,duration_manipulation_targetAtFixation,jsons/v1_VE1000_randls_28_rotated.json,http://54.235.29.9/FacialAge/BNav_EC2/DepthDuration/v2_depth_duration_MTurk/v2_DepthDuration_HTML.html#111,111,1366,657,1366,768,8-29-2022,6-42-44,22,depth_duration_stimuli/000709_2014-06-08_13-51-55_260595134347_rgbf000068-resize_3/000709_2014-06-08_13-51-55_260595134347_rgbf000068-resize_3-target.png,1000,1.8030000000000002,11,5130,998,feet,jsons/v1_VE1000_randls_28_rotated.json,859594,1668913,26,Woman
22,975880,DepthScenes,duration_manipulation_targetAtFixation,jsons/v1_VE1000_randls_28_rotated.json,http://54.235.29.9/FacialAge/BNav_EC2/DepthDuration/v2_depth_duration_MTurk/v2_DepthDuration_HTML.html#111,111,1366,657,1366,768,8-29-2022,6-42-44,23,depth_duration_stimuli/002057_2014-06-24_21-00-13_260595134347_rgbf000120-resize_1/002057_2014-06-24_21-00-13_260595134347_rgbf000120-resize_1-target.png,1000,2.967,15,4080,998,feet,jsons/v1_VE1000_randls_28_rotated.json,859594,1668913,26,Woman
23,975880,DepthScenes,duration_manipulation_targetAtFixation,jsons/v1_VE1000_randls_28_rotated.json,http://54.235.29.9/FacialAge/BNav_EC2/DepthDuration/v2_depth_duration_MTurk/v2_DepthDuration_HTML.html#111,111,1366,657,1366,768,8-29-2022,6-42-44,24,depth_duration_stimuli/002209_2014-06-28_18-36-10_260595134347_rgbf000051-resize_1/002209_2014-06-28_18-36-10_260595134347_rgbf000051-resize_1-target.png,1000,2.057,12,4603,1000,feet,jsons/v1_VE1000_randls_28_rotated.json,859594,1668913,26,Woman
24,975880,DepthScenes,duration_manipulation_targetAtFixation,jsons/v1_VE1000_randls_28_rotated.json,http://54.235.29.9/FacialAge/BNav_EC2/DepthDuration/v2_depth_duration_MTurk/v2_DepthDuration_HTML.html#111,111,1366,657,1366,768,8-29-2022,6-42-44,25,depth_duration_stimuli/002763_2014-06-22_19-13-10_094959634447_rgbf000075-resize_4/002763_2014-06-22_19-13-10_094959634447_rgbf000075-resize_4-target.png,1000,1.68375,11,3918,999,feet,jsons/v1_VE1000_randls_28_rotated.json,859594,1668913,26,Woman
25,975880,DepthScenes,duration_manipulation_targetAtFixation,jsons/v1_VE1000_randls_28_rotated.json,http://54.235.29.9/FacialAge/BNav_EC2/DepthDuration/v2_depth_duration_MTurk/v2_DepthDuration_HTML.html#111,111,1366,657,1366,768,8-29-2022,6-42-44,26,depth_duration_stimuli/000191_2014-05-12_17-07-38_260595134347_rgbf000199-resize_0/000191_2014-05-12_17-07-38_260595134347_rgbf000199-resize_0-target.png,1000,3.7995,15,4392,999,feet,jsons/v1_VE1000_randls_28_rotated.json,859594,1668913,26,Woman
26,975880,DepthScenes,duration_manipulation_targetAtFixation,jsons/v1_VE1000_randls_28_rotated.json,http://54.235.29.9/FacialAge/BNav_EC2/DepthDuration/v2_depth_duration_MTurk/v2_DepthDuration_HTML.html#111,111,1366,657,1366,768,8-29-2022,6-42-44,27,depth_duration_stimuli/000493_2014-06-09_21-01-18_260595134347_rgbf000196-resize_3/000493_2014-06-09_21-01-18_260595134347_rgbf000196-resize_3-target.png,1000,3.44,11,3891,998,feet,jsons/v1_VE1000_randls_28_rotated.json,859594,1668913,26,Woman
27,975880,DepthScenes,duration_manipulation_targetAtFixation,jsons/v1_VE1000_randls_28_rotated.json,http://54.235.29.9/FacialAge/BNav_EC2/DepthDuration/v2_depth_duration_MTurk/v2_DepthDuration_HTML.html#111,111,1366,657,1366,768,8-29-2022,6-42-44,28,depth_duration_stimuli/001650_2014-06-20_12-09-00_260595134347_rgbf000087-resize_3/001650_2014-06-20_12-09-00_260595134347_rgbf000087-resize_3-target.png,1000,1.9505,13,3949,1000,feet,jsons/v1_VE1000_randls_28_rotated.json,859594,1668913,26,Woman
28,975880,DepthScenes,duration_manipulation_targetAtFixation,jsons/v1_VE1000_randls_28_rotated.json,http://54.235.29.9/FacialAge/BNav_EC2/DepthDuration/v2_depth_duration_MTurk/v2_DepthDuration_HTML.html#111,111,1366,657,1366,768,8-29-2022,6-42-44,29,depth_duration_stimuli/000682_2014-06-08_23-14-58_260595134347_rgbf000041-resize_5/000682_2014-06-08_23-14-58_260595134347_rgbf000041-resize_5-target.png,1000,2.7239999999999998,11,3858,983,feet,jsons/v1_VE1000_randls_28_rotated.json,859594,1668913,26,Woman
29,975880,DepthScenes,duration_manipulation_targetAtFixation,jsons/v1_VE1000_randls_28_rotated.json,http://54.235.29.9/FacialAge/BNav_EC2/DepthDuration/v2_depth_duration_MTurk/v2_DepthDuration_HTML.html#111,111,1366,657,1366,768,8-29-2022,6-42-44,30,depth_duration_stimuli/002072_2014-06-24_21-48-06_260595134347_rgbf000115-resize_0/002072_2014-06-24_21-48-06_260595134347_rgbf000115-resize-original.jpg,1000,4.702,0,3938,991,feet,jsons/v1_VE1000_randls_28_rotated.json,859594,1668913,26,Woman
30,975880,DepthScenes,duration_manipulation_targetAtFixation,jsons/v1_VE1000_randls_28_rotated.json,http://54.235.29.9/FacialAge/BNav_EC2/DepthDuration/v2_depth_duration_MTurk/v2_DepthDuration_HTML.html#111,111,1366,657,1366,768,8-29-2022,6-42-44,31,depth_duration_stimuli/000943_2014-06-09_19-31-07_260595134347_rgbf000128-resize_1/000943_2014-06-09_19-31-07_260595134347_rgbf000128-resize_1-target.png,1000,1.9765,11,7730,998,feet,jsons/v1_VE1000_randls_28_rotated.json,859594,1668913,26,Woman
31,975880,DepthScenes,duration_manipulation_targetAtFixation,jsons/v1_VE1000_randls_28_rotated.json,http://54.235.29.9/FacialAge/BNav_EC2/DepthDuration/v2_depth_duration_MTurk/v2_DepthDuration_HTML.html#111,111,1366,657,1366,768,8-29-2022,6-42-44,32,depth_duration_stimuli/003070_2014-06-15_14-58-27_094959634447_rgbf000150-resize_3/003070_2014-06-15_14-58-27_094959634447_rgbf000150-resize_3-target.png,1000,2.9415,7,4842,997,feet,jsons/v1_VE1000_randls_28_rotated.json,859594,1668913,26,Woman
32,975880,DepthScenes,duration_manipulation_targetAtFixation,jsons/v1_VE1000_randls_28_rotated.json,http://54.235.29.9/FacialAge/BNav_EC2/DepthDuration/v2_depth_duration_MTurk/v2_DepthDuration_HTML.html#111,111,1366,657,1366,768,8-29-2022,6-42-44,33,depth_duration_stimuli/000635_2014-06-08_16-38-42_260595134347_rgbf000106-resize_1/000635_2014-06-08_16-38-42_260595134347_rgbf000106-resize_1-target.png,1000,2.074,7,4024,996,feet,jsons/v1_VE1000_randls_28_rotated.json,859594,1668913,26,Woman
33,975880,DepthScenes,duration_manipulation_targetAtFixation,jsons/v1_VE1000_randls_28_rotated.json,http://54.235.29.9/FacialAge/BNav_EC2/DepthDuration/v2_depth_duration_MTurk/v2_DepthDuration_HTML.html#111,111,1366,657,1366,768,8-29-2022,6-42-44,34,depth_duration_stimuli/002279_2014-06-28_18-55-32_260595134347_rgbf000040-resize_5/002279_2014-06-28_18-55-32_260595134347_rgbf000040-resize_5-target.png,1000,1.5043333333333,5,3871,996,feet,jsons/v1_VE1000_randls_28_rotated.json,859594,1668913,26,Woman
34,975880,DepthScenes,duration_manipulation_targetAtFixation,jsons/v1_VE1000_randls_28_rotated.json,http://54.235.29.9/FacialAge/BNav_EC2/DepthDuration/v2_depth_duration_MTurk/v2_DepthDuration_HTML.html#111,111,1366,657,1366,768,8-29-2022,6-42-44,35,depth_duration_stimuli/002340_2014-06-28_20-05-46_260595134347_rgbf000113-resize_0/002340_2014-06-28_20-05-46_260595134347_rgbf000113-resize_0-target.png,1000,2.4735,11,3659,999,feet,jsons/v1_VE1000_randls_28_rotated.json,859594,1668913,26,Woman
35,975880,DepthScenes,duration_manipulation_targetAtFixation,jsons/v1_VE1000_randls_28_rotated.json,http://54.235.29.9/FacialAge/BNav_EC2/DepthDuration/v2_depth_duration_MTurk/v2_DepthDuration_HTML.html#111,111,1366,657,1366,768,8-29-2022,6-42-44,36,depth_duration_stimuli/001016_2014-06-09_16-16-10_260595134347_rgbf000112-resize_5/001016_2014-06-09_16-16-10_260595134347_rgbf000112-resize_5-target.png,1000,1.6565,11,3835,999,feet,jsons/v1_VE1000_randls_28_rotated.json,859594,1668913,26,Woman
36,975880,DepthScenes,duration_manipulation_targetAtFixation,jsons/v1_VE1000_randls_28_rotated.json,http://54.235.29.9/FacialAge/BNav_EC2/DepthDuration/v2_depth_duration_MTurk/v2_DepthDuration_HTML.html#111,111,1366,657,1366,768,8-29-2022,6-42-44,37,depth_duration_stimuli/003587_2014-05-23_16-48-02_094959634447_rgbf002384-resize_2/003587_2014-05-23_16-48-02_094959634447_rgbf002384-resize_2-target.png,1000,1.357,9,6864,996,feet,jsons/v1_VE1000_randls_28_rotated.json,859594,1668913,26,Woman
37,975880,DepthScenes,duration_manipulation_targetAtFixation,jsons/v1_VE1000_randls_28_rotated.json,http://54.235.29.9/FacialAge/BNav_EC2/DepthDuration/v2_depth_duration_MTurk/v2_DepthDuration_HTML.html#111,111,1366,657,1366,768,8-29-2022,6-42-44,38,depth_duration_stimuli/001167_2014-06-17_15-38-07_260595134347_rgbf000108-resize_0/001167_2014-06-17_15-38-07_260595134347_rgbf000108-resize_0-target.png,1000,1.8505,11,3891,994,feet,jsons/v1_VE1000_randls_28_rotated.json,859594,1668913,26,Woman
38,975880,DepthScenes,duration_manipulation_targetAtFixation,jsons/v1_VE1000_randls_28_rotated.json,http://54.235.29.9/FacialAge/BNav_EC2/DepthDuration/v2_depth_duration_MTurk/v2_DepthDuration_HTML.html#111,111,1366,657,1366,768,8-29-2022,6-42-44,39,depth_duration_stimuli/002657_2014-06-13_15-29-54_094959634447_rgbf000150-resize_1/002657_2014-06-13_15-29-54_094959634447_rgbf000150-resize_1-target.png,1000,4.919,5,3657,999,feet,jsons/v1_VE1000_randls_28_rotated.json,859594,1668913,26,Woman
39,975880,DepthScenes,duration_manipulation_targetAtFixation,jsons/v1_VE1000_randls_28_rotated.json,http://54.235.29.9/FacialAge/BNav_EC2/DepthDuration/v2_depth_duration_MTurk/v2_DepthDuration_HTML.html#111,111,1366,657,1366,768,8-29-2022,6-42-44,40,depth_duration_stimuli/002375_2014-06-28_20-13-44_260595134347_rgbf000032-resize_1/002375_2014-06-28_20-13-44_260595134347_rgbf000032-resize_1-target.png,1000,4.0175,8,4119,1000,feet,jsons/v1_VE1000_randls_28_rotated.json,859594,1668913,26,Woman
40,975880,DepthScenes,duration_manipulation_targetAtFixation,jsons/v1_VE1000_randls_28_rotated.json,http://54.235.29.9/FacialAge/BNav_EC2/DepthDuration/v2_depth_duration_MTurk/v2_DepthDuration_HTML.html#111,111,1366,657,1366,768,8-29-2022,6-42-44,41,depth_duration_stimuli/000665_2014-06-09_20-42-35_260595134347_rgbf000110-resize_1/000665_2014-06-09_20-42-35_260595134347_rgbf000110-resize_1-target.png,1000,3.057,8,4609,1000,feet,jsons/v1_VE1000_randls_28_rotated.json,859594,1668913,26,Woman
41,975880,DepthScenes,duration_manipulation_targetAtFixation,jsons/v1_VE1000_randls_28_rotated.json,http://54.235.29.9/FacialAge/BNav_EC2/DepthDuration/v2_depth_duration_MTurk/v2_DepthDuration_HTML.html#111,111,1366,657,1366,768,8-29-2022,6-42-44,42,depth_duration_stimuli/001150_2014-06-17_15-27-34_260595134347_rgbf000108-resize_2/001150_2014-06-17_15-27-34_260595134347_rgbf000108-resize_2-target.png,1000,4.0325,9,3649,953,feet,jsons/v1_VE1000_randls_28_rotated.json,859594,1668913,26,Woman
42,975880,DepthScenes,duration_manipulation_targetAtFixation,jsons/v1_VE1000_randls_28_rotated.json,http://54.235.29.9/FacialAge/BNav_EC2/DepthDuration/v2_depth_duration_MTurk/v2_DepthDuration_HTML.html#111,111,1366,657,1366,768,8-29-2022,6-42-44,43,depth_duration_stimuli/002199_2014-06-28_18-33-56_260595134347_rgbf000074-resize_0/002199_2014-06-28_18-33-56_260595134347_rgbf000074-resize_0-target.png,1000,1.996,8,3959,997,feet,jsons/v1_VE1000_randls_28_rotated.json,859594,1668913,26,Woman
43,975880,DepthScenes,duration_manipulation_targetAtFixation,jsons/v1_VE1000_randls_28_rotated.json,http://54.235.29.9/FacialAge/BNav_EC2/DepthDuration/v2_depth_duration_MTurk/v2_DepthDuration_HTML.html#111,111,1366,657,1366,768,8-29-2022,6-42-44,44,depth_duration_stimuli/001056_2014-06-08_18-46-44_260595134347_rgbf000068-resize_0/001056_2014-06-08_18-46-44_260595134347_rgbf000068-resize_0-target.png,1000,2.6625,7,4841,997,feet,jsons/v1_VE1000_randls_28_rotated.json,859594,1668913,26,Woman
44,975880,DepthScenes,duration_manipulation_targetAtFixation,jsons/v1_VE1000_randls_28_rotated.json,http://54.235.29.9/FacialAge/BNav_EC2/DepthDuration/v2_depth_duration_MTurk/v2_DepthDuration_HTML.html#111,111,1366,657,1366,768,8-29-2022,6-42-44,45,depth_duration_stimuli/002660_2014-06-13_15-44-18_094959634447_rgbf001878-resize_2/002660_2014-06-13_15-44-18_094959634447_rgbf001878-resize_2-target.png,1000,3.576,7,3539,999,feet,jsons/v1_VE1000_randls_28_rotated.json,859594,1668913,26,Woman
45,975880,DepthScenes,duration_manipulation_targetAtFixation,jsons/v1_VE1000_randls_28_rotated.json,http://54.235.29.9/FacialAge/BNav_EC2/DepthDuration/v2_depth_duration_MTurk/v2_DepthDuration_HTML.html#111,111,1366,657,1366,768,8-29-2022,6-42-44,46,depth_duration_stimuli/002153_2014-06-25_21-27-18_260595134347_rgbf000038-resize_5/002153_2014-06-25_21-27-18_260595134347_rgbf000038-resize_5-target.png,1000,2.505,5,3497,1000,feet,jsons/v1_VE1000_randls_28_rotated.json,859594,1668913,26,Woman
46,975880,DepthScenes,duration_manipulation_targetAtFixation,jsons/v1_VE1000_randls_28_rotated.json,http://54.235.29.9/FacialAge/BNav_EC2/DepthDuration/v2_depth_duration_MTurk/v2_DepthDuration_HTML.html#111,111,1366,657,1366,768,8-29-2022,6-42-44,47,depth_duration_stimuli/002323_2014-06-28_20-01-54_260595134347_rgbf000051-resize_4/002323_2014-06-28_20-01-54_260595134347_rgbf000051-resize_4-target.png,1000,3.7310000000000003,9,4320,1000,feet,jsons/v1_VE1000_randls_28_rotated.json,859594,1668913,26,Woman
47,975880,DepthScenes,duration_manipulation_targetAtFixation,jsons/v1_VE1000_randls_28_rotated.json,http://54.235.29.9/FacialAge/BNav_EC2/DepthDuration/v2_depth_duration_MTurk/v2_DepthDuration_HTML.html#111,111,1366,657,1366,768,8-29-2022,6-42-44,48,depth_duration_stimuli/000917_2014-06-09_22-45-29_260595134347_rgbf000149-resize_3/000917_2014-06-09_22-45-29_260595134347_rgbf000149-resize_3-target.png,1000,4.1865,11,3795,998,feet,jsons/v1_VE1000_randls_28_rotated.json,859594,1668913,26,Woman
48,975880,DepthScenes,duration_manipulation_targetAtFixation,jsons/v1_VE1000_randls_28_rotated.json,http://54.235.29.9/FacialAge/BNav_EC2/DepthDuration/v2_depth_duration_MTurk/v2_DepthDuration_HTML.html#111,111,1366,657,1366,768,8-29-2022,6-42-44,49,depth_duration_stimuli/001170_2014-06-17_15-43-44_260595134347_rgbf000096-resize_6/001170_2014-06-17_15-43-44_260595134347_rgbf000096-resize-original.jpg,1000,1.1909999999999998,0,5002,999,feet,jsons/v1_VE1000_randls_28_rotated.json,859594,1668913,26,Woman
49,975880,DepthScenes,duration_manipulation_targetAtFixation,jsons/v1_VE1000_randls_28_rotated.json,http://54.235.29.9/FacialAge/BNav_EC2/DepthDuration/v2_depth_duration_MTurk/v2_DepthDuration_HTML.html#111,111,1366,657,1366,768,8-29-2022,6-42-44,50,depth_duration_stimuli/003081_2014-06-15_15-19-16_094959634447_rgbf000150-resize_1/003081_2014-06-15_15-19-16_094959634447_rgbf000150-resize_1-target.png,1000,3.9125,11,7429,1000,feet,jsons/v1_VE1000_randls_28_rotated.json,859594,1668913,26,Woman
50,975880,DepthScenes,duration_manipulation_targetAtFixation,jsons/v1_VE1000_randls_28_rotated.json,http://54.235.29.9/FacialAge/BNav_EC2/DepthDuration/v2_depth_duration_MTurk/v2_DepthDuration_HTML.html#111,111,1366,657,1366,768,8-29-2022,6-42-44,51,depth_duration_stimuli/001417_2014-06-19_16-25-36_260595134347_rgbf000115-resize_5/001417_2014-06-19_16-25-36_260595134347_rgbf000115-resize_5-target.png,1000,4.6255,10,4241,998,feet,jsons/v1_VE1000_randls_28_rotated.json,859594,1668913,26,Woman
51,975880,DepthScenes,duration_manipulation_targetAtFixation,jsons/v1_VE1000_randls_28_rotated.json,http://54.235.29.9/FacialAge/BNav_EC2/DepthDuration/v2_depth_duration_MTurk/v2_DepthDuration_HTML.html#111,111,1366,657,1366,768,8-29-2022,6-42-44,52,depth_duration_stimuli/000927_2014-06-09_16-32-30_260595134347_rgbf000123-resize_3/000927_2014-06-09_16-32-30_260595134347_rgbf000123-resize_3-target.png,1000,2.6785,12,4595,1088,feet,jsons/v1_VE1000_randls_28_rotated.json,859594,1668913,26,Woman
52,975880,DepthScenes,duration_manipulation_targetAtFixation,jsons/v1_VE1000_randls_28_rotated.json,http://54.235.29.9/FacialAge/BNav_EC2/DepthDuration/v2_depth_duration_MTurk/v2_DepthDuration_HTML.html#111,111,1366,657,1366,768,8-29-2022,6-42-44,53,depth_duration_stimuli/001110_2014-06-15_17-25-28_260595134347_rgbf000150-resize_1/001110_2014-06-15_17-25-28_260595134347_rgbf000150-resize_1-target.png,1000,1.7115,11,4461,1059,feet,jsons/v1_VE1000_randls_28_rotated.json,859594,1668913,26,Woman
53,975880,DepthScenes,duration_manipulation_targetAtFixation,jsons/v1_VE1000_randls_28_rotated.json,http://54.235.29.9/FacialAge/BNav_EC2/DepthDuration/v2_depth_duration_MTurk/v2_DepthDuration_HTML.html#111,111,1366,657,1366,768,8-29-2022,6-42-44,54,depth_duration_stimuli/001136_2014-06-17_15-19-41_260595134347_rgbf000076-resize_3/001136_2014-06-17_15-19-41_260595134347_rgbf000076-resize_3-target.png,1000,1.8655,13,5055,999,feet,jsons/v1_VE1000_randls_28_rotated.json,859594,1668913,26,Woman
54,975880,DepthScenes,duration_manipulation_targetAtFixation,jsons/v1_VE1000_randls_28_rotated.json,http://54.235.29.9/FacialAge/BNav_EC2/DepthDuration/v2_depth_duration_MTurk/v2_DepthDuration_HTML.html#111,111,1366,657,1366,768,8-29-2022,6-42-44,55,depth_duration_stimuli/001164_2014-06-17_15-35-46_260595134347_rgbf000085-resize_3/001164_2014-06-17_15-35-46_260595134347_rgbf000085-resize_3-target.png,1000,2.354,14,3961,1154,feet,jsons/v1_VE1000_randls_28_rotated.json,859594,1668913,26,Woman
55,975880,DepthScenes,duration_manipulation_targetAtFixation,jsons/v1_VE1000_randls_28_rotated.json,http://54.235.29.9/FacialAge/BNav_EC2/DepthDuration/v2_depth_duration_MTurk/v2_DepthDuration_HTML.html#111,111,1366,657,1366,768,8-29-2022,6-42-44,56,depth_duration_stimuli/001132_2014-06-17_14-48-54_260595134347_rgbf000100-resize_2/001132_2014-06-17_14-48-54_260595134347_rgbf000100-resize_2-target.png,1000,3.753,15,4022,994,feet,jsons/v1_VE1000_randls_28_rotated.json,859594,1668913,26,Woman
56,975880,DepthScenes,duration_manipulation_targetAtFixation,jsons/v1_VE1000_randls_28_rotated.json,http://54.235.29.9/FacialAge/BNav_EC2/DepthDuration/v2_depth_duration_MTurk/v2_DepthDuration_HTML.html#111,111,1366,657,1366,768,8-29-2022,6-42-44,57,depth_duration_stimuli/001133_2014-06-17_14-49-16_260595134347_rgbf000100-resize_0/001133_2014-06-17_14-49-16_260595134347_rgbf000100-resize_0-target.png,1000,4.2115,8,3917,989,feet,jsons/v1_VE1000_randls_28_rotated.json,859594,1668913,26,Woman
57,975880,DepthScenes,duration_manipulation_targetAtFixation,jsons/v1_VE1000_randls_28_rotated.json,http://54.235.29.9/FacialAge/BNav_EC2/DepthDuration/v2_depth_duration_MTurk/v2_DepthDuration_HTML.html#111,111,1366,657,1366,768,8-29-2022,6-42-44,58,depth_duration_stimuli/002425_2014-06-28_20-27-29_260595134347_rgbf000031-resize_8/002425_2014-06-28_20-27-29_260595134347_rgbf000031-resize_8-target.png,1000,3.8960000000000004,9,3647,1001,feet,jsons/v1_VE1000_randls_28_rotated.json,859594,1668913,26,Woman
58,975880,DepthScenes,duration_manipulation_targetAtFixation,jsons/v1_VE1000_randls_28_rotated.json,http://54.235.29.9/FacialAge/BNav_EC2/DepthDuration/v2_depth_duration_MTurk/v2_DepthDuration_HTML.html#111,111,1366,657,1366,768,8-29-2022,6-42-44,59,depth_duration_stimuli/000642_2014-06-08_16-59-25_260595134347_rgbf000098-resize_2/000642_2014-06-08_16-59-25_260595134347_rgbf000098-resize_2-target.png,1000,2.8815,8,3713,988,feet,jsons/v1_VE1000_randls_28_rotated.json,859594,1668913,26,Woman
59,975880,DepthScenes,duration_manipulation_targetAtFixation,jsons/v1_VE1000_randls_28_rotated.json,http://54.235.29.9/FacialAge/BNav_EC2/DepthDuration/v2_depth_duration_MTurk/v2_DepthDuration_HTML.html#111,111,1366,657,1366,768,8-29-2022,6-42-44,60,depth_duration_stimuli/000780_2014-06-08_22-28-29_260595134347_rgbf000126-resize_1/000780_2014-06-08_22-28-29_260595134347_rgbf000126-resize_1-target.png,1000,3.3825,11,4472,1011,feet,jsons/v1_VE1000_randls_28_rotated.json,859594,1668913,26,Woman
60,975880,DepthScenes,duration_manipulation_targetAtFixation,jsons/v1_VE1000_randls_28_rotated.json,http://54.235.29.9/FacialAge/BNav_EC2/DepthDuration/v2_depth_duration_MTurk/v2_DepthDuration_HTML.html#111,111,1366,657,1366,768,8-29-2022,6-42-44,61,depth_duration_stimuli/002445_2014-06-28_20-32-16_260595134347_rgbf000029-resize_4/002445_2014-06-28_20-32-16_260595134347_rgbf000029-resize_4-target.png,1000,2.5315,7,4748,1003,feet,jsons/v1_VE1000_randls_28_rotated.json,859594,1668913,26,Woman
61,975880,DepthScenes,duration_manipulation_targetAtFixation,jsons/v1_VE1000_randls_28_rotated.json,http://54.235.29.9/FacialAge/BNav_EC2/DepthDuration/v2_depth_duration_MTurk/v2_DepthDuration_HTML.html#111,111,1366,657,1366,768,8-29-2022,6-42-44,62,depth_duration_stimuli/002758_2014-06-22_19-11-20_094959634447_rgbf000128-resize_1/002758_2014-06-22_19-11-20_094959634447_rgbf000128-resize_1-target.png,1000,2.555,8,4335,1018,feet,jsons/v1_VE1000_randls_28_rotated.json,859594,1668913,26,Woman
62,975880,DepthScenes,duration_manipulation_targetAtFixation,jsons/v1_VE1000_randls_28_rotated.json,http://54.235.29.9/FacialAge/BNav_EC2/DepthDuration/v2_depth_duration_MTurk/v2_DepthDuration_HTML.html#111,111,1366,657,1366,768,8-29-2022,6-42-44,63,depth_duration_stimuli/002630_2014-06-24_14-47-50_094959634447_rgbf000055-resize_1/002630_2014-06-24_14-47-50_094959634447_rgbf000055-resize_1-target.png,1000,3.0095,8,3767,998,feet,jsons/v1_VE1000_randls_28_rotated.json,859594,1668913,26,Woman
63,975880,DepthScenes,duration_manipulation_targetAtFixation,jsons/v1_VE1000_randls_28_rotated.json,http://54.235.29.9/FacialAge/BNav_EC2/DepthDuration/v2_depth_duration_MTurk/v2_DepthDuration_HTML.html#111,111,1366,657,1366,768,8-29-2022,6-42-44,64,depth_duration_stimuli/002953_2014-06-08_17-32-18_094959634447_rgbf000059-resize_5/002953_2014-06-08_17-32-18_094959634447_rgbf000059-resize_5-target.png,1000,1.551,9,3974,996,feet,jsons/v1_VE1000_randls_28_rotated.json,859594,1668913,26,Woman
64,975880,DepthScenes,duration_manipulation_targetAtFixation,jsons/v1_VE1000_randls_28_rotated.json,http://54.235.29.9/FacialAge/BNav_EC2/DepthDuration/v2_depth_duration_MTurk/v2_DepthDuration_HTML.html#111,111,1366,657,1366,768,8-29-2022,6-42-44,65,depth_duration_stimuli/000878_2014-06-08_22-52-45_260595134347_rgbf000045-resize_2/000878_2014-06-08_22-52-45_260595134347_rgbf000045-resize_2-target.png,1000,2.092,7,3968,1000,feet,jsons/v1_VE1000_randls_28_rotated.json,859594,1668913,26,Woman
65,975880,DepthScenes,duration_manipulation_targetAtFixation,jsons/v1_VE1000_randls_28_rotated.json,http://54.235.29.9/FacialAge/BNav_EC2/DepthDuration/v2_depth_duration_MTurk/v2_DepthDuration_HTML.html#111,111,1366,657,1366,768,8-29-2022,6-42-44,66,depth_duration_stimuli/001540_2014-06-20_17-01-05_260595134347_rgbf000086-resize_2/001540_2014-06-20_17-01-05_260595134347_rgbf000086-resize-original.jpg,1000,1.459,0,3855,998,feet,jsons/v1_VE1000_randls_28_rotated.json,859594,1668913,26,Woman
66,975880,DepthScenes,duration_manipulation_targetAtFixation,jsons/v1_VE1000_randls_28_rotated.json,http://54.235.29.9/FacialAge/BNav_EC2/DepthDuration/v2_depth_duration_MTurk/v2_DepthDuration_HTML.html#111,111,1366,657,1366,768,8-29-2022,6-42-44,67,depth_duration_stimuli/002344_2014-06-28_20-06-29_260595134347_rgbf000030-resize_1/002344_2014-06-28_20-06-29_260595134347_rgbf000030-resize_1-target.png,1000,1.5795,7,3898,1001,feet,jsons/v1_VE1000_randls_28_rotated.json,859594,1668913,26,Woman
67,975880,DepthScenes,duration_manipulation_targetAtFixation,jsons/v1_VE1000_randls_28_rotated.json,http://54.235.29.9/FacialAge/BNav_EC2/DepthDuration/v2_depth_duration_MTurk/v2_DepthDuration_HTML.html#111,111,1366,657,1366,768,8-29-2022,6-42-44,68,depth_duration_stimuli/002725_2014-06-22_11-47-51_094959634447_rgbf000070-resize_1/002725_2014-06-22_11-47-51_094959634447_rgbf000070-resize_1-target.png,1000,2.195,9,4457,998,feet,jsons/v1_VE1000_randls_28_rotated.json,859594,1668913,26,Woman
68,975880,DepthScenes,duration_manipulation_targetAtFixation,jsons/v1_VE1000_randls_28_rotated.json,http://54.235.29.9/FacialAge/BNav_EC2/DepthDuration/v2_depth_duration_MTurk/v2_DepthDuration_HTML.html#111,111,1366,657,1366,768,8-29-2022,6-42-44,69,depth_duration_stimuli/000549_2014-06-08_22-10-24_260595134347_rgbf000247-resize_3/000549_2014-06-08_22-10-24_260595134347_rgbf000247-resize_3-target.png,1000,1.841,7,3954,999,feet,jsons/v1_VE1000_randls_28_rotated.json,859594,1668913,26,Woman
69,975880,DepthScenes,duration_manipulation_targetAtFixation,jsons/v1_VE1000_randls_28_rotated.json,http://54.235.29.9/FacialAge/BNav_EC2/DepthDuration/v2_depth_duration_MTurk/v2_DepthDuration_HTML.html#111,111,1366,657,1366,768,8-29-2022,6-42-44,70,depth_duration_stimuli/001055_2014-06-08_18-45-35_260595134347_rgbf000111-resize_4/001055_2014-06-08_18-45-35_260595134347_rgbf000111-resize_4-target.png,1000,2.4290000000000003,11,4259,1008,feet,jsons/v1_VE1000_randls_28_rotated.json,859594,1668913,26,Woman
70,975880,DepthScenes,duration_manipulation_targetAtFixation,jsons/v1_VE1000_randls_28_rotated.json,http://54.235.29.9/FacialAge/BNav_EC2/DepthDuration/v2_depth_duration_MTurk/v2_DepthDuration_HTML.html#111,111,1366,657,1366,768,8-29-2022,6-42-44,71,depth_duration_stimuli/001516_2014-06-20_16-25-09_260595134347_rgbf000076-resize_2/001516_2014-06-20_16-25-09_260595134347_rgbf000076-resize_2-target.png,1000,1.7445,12,4199,999,feet,jsons/v1_VE1000_randls_28_rotated.json,859594,1668913,26,Woman
71,975880,DepthScenes,duration_manipulation_targetAtFixation,jsons/v1_VE1000_randls_28_rotated.json,http://54.235.29.9/FacialAge/BNav_EC2/DepthDuration/v2_depth_duration_MTurk/v2_DepthDuration_HTML.html#111,111,1366,657,1366,768,8-29-2022,6-42-44,72,depth_duration_stimuli/002118_2014-06-25_20-32-08_260595134347_rgbf000078-resize_1/002118_2014-06-25_20-32-08_260595134347_rgbf000078-resize_1-target.png,1000,2.6460000000000004,7,5165,993,feet,jsons/v1_VE1000_randls_28_rotated.json,859594,1668913,26,Woman
72,975880,DepthScenes,duration_manipulation_targetAtFixation,jsons/v1_VE1000_randls_28_rotated.json,http://54.235.29.9/FacialAge/BNav_EC2/DepthDuration/v2_depth_duration_MTurk/v2_DepthDuration_HTML.html#111,111,1366,657,1366,768,8-29-2022,6-42-44,73,depth_duration_stimuli/001828_2014-06-26_21-40-03_260595134347_rgbf000024-resize_0/001828_2014-06-26_21-40-03_260595134347_rgbf000024-resize_0-target.png,1000,4.8260000000000005,5,3845,994,feet,jsons/v1_VE1000_randls_28_rotated.json,859594,1668913,26,Woman
73,975880,DepthScenes,duration_manipulation_targetAtFixation,jsons/v1_VE1000_randls_28_rotated.json,http://54.235.29.9/FacialAge/BNav_EC2/DepthDuration/v2_depth_duration_MTurk/v2_DepthDuration_HTML.html#111,111,1366,657,1366,768,8-29-2022,6-42-44,74,depth_duration_stimuli/000009_2014-05-26_14-32-05_260595134347_rgbf000034-resize_3/000009_2014-05-26_14-32-05_260595134347_rgbf000034-resize_3-target.png,1000,3.8715,11,4608,1013,feet,jsons/v1_VE1000_randls_28_rotated.json,859594,1668913,26,Woman
74,975880,DepthScenes,duration_manipulation_targetAtFixation,jsons/v1_VE1000_randls_28_rotated.json,http://54.235.29.9/FacialAge/BNav_EC2/DepthDuration/v2_depth_duration_MTurk/v2_DepthDuration_HTML.html#111,111,1366,657,1366,768,8-29-2022,6-42-44,75,depth_duration_stimuli/000109_2014-05-14_23-41-52_260595134347_rgbf000035-resize_9/000109_2014-05-14_23-41-52_260595134347_rgbf000035-resize_9-target.png,1000,1.3545,8,3781,1003,feet,jsons/v1_VE1000_randls_28_rotated.json,859594,1668913,26,Woman
75,975880,DepthScenes,duration_manipulation_targetAtFixation,jsons/v1_VE1000_randls_28_rotated.json,http://54.235.29.9/FacialAge/BNav_EC2/DepthDuration/v2_depth_duration_MTurk/v2_DepthDuration_HTML.html#111,111,1366,657,1366,768,8-29-2022,6-42-44,76,depth_duration_stimuli/000470_2014-06-09_19-42-40_260595134347_rgbf000094-resize_1/000470_2014-06-09_19-42-40_260595134347_rgbf000094-resize_1-target.png,1000,1.831,6,3929,1003,feet,jsons/v1_VE1000_randls_28_rotated.json,859594,1668913,26,Woman
76,975880,DepthScenes,duration_manipulation_targetAtFixation,jsons/v1_VE1000_randls_28_rotated.json,http://54.235.29.9/FacialAge/BNav_EC2/DepthDuration/v2_depth_duration_MTurk/v2_DepthDuration_HTML.html#111,111,1366,657,1366,768,8-29-2022,6-42-44,77,depth_duration_stimuli/001815_2014-06-26_20-52-55_260595134347_rgbf000020-resize_0/001815_2014-06-26_20-52-55_260595134347_rgbf000020-resize_0-target.png,1000,3.3865,13,4247,990,feet,jsons/v1_VE1000_randls_28_rotated.json,859594,1668913,26,Woman
77,975880,DepthScenes,duration_manipulation_targetAtFixation,jsons/v1_VE1000_randls_28_rotated.json,http://54.235.29.9/FacialAge/BNav_EC2/DepthDuration/v2_depth_duration_MTurk/v2_DepthDuration_HTML.html#111,111,1366,657,1366,768,8-29-2022,6-42-44,78,depth_duration_stimuli/001808_2014-06-26_20-50-58_260595134347_rgbf000029-resize_1/001808_2014-06-26_20-50-58_260595134347_rgbf000029-resize_1-target.png,1000,4.249,14,4205,991,feet,jsons/v1_VE1000_randls_28_rotated.json,859594,1668913,26,Woman
78,975880,DepthScenes,duration_manipulation_targetAtFixation,jsons/v1_VE1000_randls_28_rotated.json,http://54.235.29.9/FacialAge/BNav_EC2/DepthDuration/v2_depth_duration_MTurk/v2_DepthDuration_HTML.html#111,111,1366,657,1366,768,8-29-2022,6-42-44,79,depth_duration_stimuli/000502_2014-06-08_23-02-32_260595134347_rgbf000063-resize_4/000502_2014-06-08_23-02-32_260595134347_rgbf000063-resize_4-target.png,1000,2.431,6,4020,998,feet,jsons/v1_VE1000_randls_28_rotated.json,859594,1668913,26,Woman
79,975880,DepthScenes,duration_manipulation_targetAtFixation,jsons/v1_VE1000_randls_28_rotated.json,http://54.235.29.9/FacialAge/BNav_EC2/DepthDuration/v2_depth_duration_MTurk/v2_DepthDuration_HTML.html#111,111,1366,657,1366,768,8-29-2022,6-42-44,80,depth_duration_stimuli/001199_2014-06-17_16-03-48_260595134347_rgbf000077-resize_0/001199_2014-06-17_16-03-48_260595134347_rgbf000077-resize_0-target.png,1000,3.4375,9,3737,999,feet,jsons/v1_VE1000_randls_28_rotated.json,859594,1668913,26,Woman
80,975880,DepthScenes,duration_manipulation_targetAtFixation,jsons/v1_VE1000_randls_28_rotated.json,http://54.235.29.9/FacialAge/BNav_EC2/DepthDuration/v2_depth_duration_MTurk/v2_DepthDuration_HTML.html#111,111,1366,657,1366,768,8-29-2022,6-42-44,81,depth_duration_stimuli/003048_2014-06-15_13-49-43_094959634447_rgbf000150-resize_1/003048_2014-06-15_13-49-43_094959634447_rgbf000150-resize_1-target.png,1000,4.0035,14,4305,1000,feet,jsons/v1_VE1000_randls_28_rotated.json,859594,1668913,26,Woman
81,975880,DepthScenes,duration_manipulation_targetAtFixation,jsons/v1_VE1000_randls_28_rotated.json,http://54.235.29.9/FacialAge/BNav_EC2/DepthDuration/v2_depth_duration_MTurk/v2_DepthDuration_HTML.html#111,111,1366,657,1366,768,8-29-2022,6-42-44,82,depth_duration_stimuli/002043_2014-06-24_20-29-38_260595134347_rgbf000039-resize_4/002043_2014-06-24_20-29-38_260595134347_rgbf000039-resize_4-target.png,1000,2.8435,13,3881,1000,feet,jsons/v1_VE1000_randls_28_rotated.json,859594,1668913,26,Woman
82,975880,DepthScenes,duration_manipulation_targetAtFixation,jsons/v1_VE1000_randls_28_rotated.json,http://54.235.29.9/FacialAge/BNav_EC2/DepthDuration/v2_depth_duration_MTurk/v2_DepthDuration_HTML.html#111,111,1366,657,1366,768,8-29-2022,6-42-44,83,depth_duration_stimuli/000691_2014-06-08_13-08-50_260595134347_rgbf000132-resize_3/000691_2014-06-08_13-08-50_260595134347_rgbf000132-resize_3-target.png,1000,4.1530000000000005,8,3599,989,feet,jsons/v1_VE1000_randls_28_rotated.json,859594,1668913,26,Woman
83,975880,DepthScenes,duration_manipulation_targetAtFixation,jsons/v1_VE1000_randls_28_rotated.json,http://54.235.29.9/FacialAge/BNav_EC2/DepthDuration/v2_depth_duration_MTurk/v2_DepthDuration_HTML.html#111,111,1366,657,1366,768,8-29-2022,6-42-44,84,depth_duration_stimuli/002213_2014-06-28_18-37-58_260595134347_rgbf000055-resize_1/002213_2014-06-28_18-37-58_260595134347_rgbf000055-resize_1-target.png,1000,3.62,6,7630,999,feet,jsons/v1_VE1000_randls_28_rotated.json,859594,1668913,26,Woman
84,975880,DepthScenes,duration_manipulation_targetAtFixation,jsons/v1_VE1000_randls_28_rotated.json,http://54.235.29.9/FacialAge/BNav_EC2/DepthDuration/v2_depth_duration_MTurk/v2_DepthDuration_HTML.html#111,111,1366,657,1366,768,8-29-2022,6-42-44,85,depth_duration_stimuli/001235_2014-06-17_16-37-36_260595134347_rgbf000084-resize_4/001235_2014-06-17_16-37-36_260595134347_rgbf000084-resize_4-target.png,1000,3.6605,8,5126,1107,feet,jsons/v1_VE1000_randls_28_rotated.json,859594,1668913,26,Woman
85,975880,DepthScenes,duration_manipulation_targetAtFixation,jsons/v1_VE1000_randls_28_rotated.json,http://54.235.29.9/FacialAge/BNav_EC2/DepthDuration/v2_depth_duration_MTurk/v2_DepthDuration_HTML.html#111,111,1366,657,1366,768,8-29-2022,6-42-44,86,depth_duration_stimuli/000788_2014-06-08_22-34-36_260595134347_rgbf000131-resize_1/000788_2014-06-08_22-34-36_260595134347_rgbf000131-resize_1-target.png,1000,3.359,5,4970,960,feet,jsons/v1_VE1000_randls_28_rotated.json,859594,1668913,26,Woman
86,975880,DepthScenes,duration_manipulation_targetAtFixation,jsons/v1_VE1000_randls_28_rotated.json,http://54.235.29.9/FacialAge/BNav_EC2/DepthDuration/v2_depth_duration_MTurk/v2_DepthDuration_HTML.html#111,111,1366,657,1366,768,8-29-2022,6-42-44,87,depth_duration_stimuli/002875_2014-06-01_15-19-00_094959634447_rgbf000151-resize_1/002875_2014-06-01_15-19-00_094959634447_rgbf000151-resize_1-target.png,1000,1.9675,9,4904,997,feet,jsons/v1_VE1000_randls_28_rotated.json,859594,1668913,26,Woman
87,975880,DepthScenes,duration_manipulation_targetAtFixation,jsons/v1_VE1000_randls_28_rotated.json,http://54.235.29.9/FacialAge/BNav_EC2/DepthDuration/v2_depth_duration_MTurk/v2_DepthDuration_HTML.html#111,111,1366,657,1366,768,8-29-2022,6-42-44,88,depth_duration_stimuli/001011_2014-06-08_23-18-54_260595134347_rgbf000044-resize_4/001011_2014-06-08_23-18-54_260595134347_rgbf000044-resize_4-target.png,1000,2.4730000000000003,7,4547,1002,feet,jsons/v1_VE1000_randls_28_rotated.json,859594,1668913,26,Woman
88,975880,DepthScenes,duration_manipulation_targetAtFixation,jsons/v1_VE1000_randls_28_rotated.json,http://54.235.29.9/FacialAge/BNav_EC2/DepthDuration/v2_depth_duration_MTurk/v2_DepthDuration_HTML.html#111,111,1366,657,1366,768,8-29-2022,6-42-44,89,depth_duration_stimuli/002637_2014-06-24_14-51-13_094959634447_rgbf000066-resize_4/002637_2014-06-24_14-51-13_094959634447_rgbf000066-resize_4-target.png,1000,1.9955,8,4174,999,feet,jsons/v1_VE1000_randls_28_rotated.json,859594,1668913,26,Woman
89,975880,DepthScenes,duration_manipulation_targetAtFixation,jsons/v1_VE1000_randls_28_rotated.json,http://54.235.29.9/FacialAge/BNav_EC2/DepthDuration/v2_depth_duration_MTurk/v2_DepthDuration_HTML.html#111,111,1366,657,1366,768,8-29-2022,6-42-44,90,depth_duration_stimuli/003534_2014-05-22_15-06-10_094959634447_rgbf000102-resize_4/003534_2014-05-22_15-06-10_094959634447_rgbf000102-resize_4-target.png,1000,1.426,6,3647,924,feet,jsons/v1_VE1000_randls_28_rotated.json,859594,1668913,26,Woman
90,975880,DepthScenes,duration_manipulation_targetAtFixation,jsons/v1_VE1000_randls_28_rotated.json,http://54.235.29.9/FacialAge/BNav_EC2/DepthDuration/v2_depth_duration_MTurk/v2_DepthDuration_HTML.html#111,111,1366,657,1366,768,8-29-2022,6-42-44,91,depth_duration_stimuli/002805_2014-06-22_19-54-03_094959634447_rgbf000079-resize_1/002805_2014-06-22_19-54-03_094959634447_rgbf000079-resize_1-target.png,1000,3.1439999999999997,8,3636,1063,feet,jsons/v1_VE1000_randls_28_rotated.json,859594,1668913,26,Woman
91,975880,DepthScenes,duration_manipulation_targetAtFixation,jsons/v1_VE1000_randls_28_rotated.json,http://54.235.29.9/FacialAge/BNav_EC2/DepthDuration/v2_depth_duration_MTurk/v2_DepthDuration_HTML.html#111,111,1366,657,1366,768,8-29-2022,6-42-44,92,depth_duration_stimuli/000906_2014-06-08_13-35-43_260595134347_rgbf000155-resize_1/000906_2014-06-08_13-35-43_260595134347_rgbf000155-resize_1-target.png,1000,2.8489999999999998,11,3487,999,feet,jsons/v1_VE1000_randls_28_rotated.json,859594,1668913,26,Woman
92,975880,DepthScenes,duration_manipulation_targetAtFixation,jsons/v1_VE1000_randls_28_rotated.json,http://54.235.29.9/FacialAge/BNav_EC2/DepthDuration/v2_depth_duration_MTurk/v2_DepthDuration_HTML.html#111,111,1366,657,1366,768,8-29-2022,6-42-44,93,depth_duration_stimuli/000103_2014-05-14_22-01-17_260595134347_rgbf000152-resize_5/000103_2014-05-14_22-01-17_260595134347_rgbf000152-resize_5-target.png,1000,1.993,13,4905,1007,feet,jsons/v1_VE1000_randls_28_rotated.json,859594,1668913,26,Woman
93,975880,DepthScenes,duration_manipulation_targetAtFixation,jsons/v1_VE1000_randls_28_rotated.json,http://54.235.29.9/FacialAge/BNav_EC2/DepthDuration/v2_depth_duration_MTurk/v2_DepthDuration_HTML.html#111,111,1366,657,1366,768,8-29-2022,6-42-44,94,depth_duration_stimuli/001555_2014-06-20_17-12-10_260595134347_rgbf000065-resize_4/001555_2014-06-20_17-12-10_260595134347_rgbf000065-resize_4-target.png,1000,1.633,7,5602,998,feet,jsons/v1_VE1000_randls_28_rotated.json,859594,1668913,26,Woman
94,975880,DepthScenes,duration_manipulation_targetAtFixation,jsons/v1_VE1000_randls_28_rotated.json,http://54.235.29.9/FacialAge/BNav_EC2/DepthDuration/v2_depth_duration_MTurk/v2_DepthDuration_HTML.html#111,111,1366,657,1366,768,8-29-2022,6-42-44,95,depth_duration_stimuli/002678_2014-06-13_16-15-32_094959634447_rgbf000151-resize_6/002678_2014-06-13_16-15-32_094959634447_rgbf000151-resize_6-target.png,1000,2.1830000000000003,15,5496,998,feet,jsons/v1_VE1000_randls_28_rotated.json,859594,1668913,26,Woman
95,975880,DepthScenes,duration_manipulation_targetAtFixation,jsons/v1_VE1000_randls_28_rotated.json,http://54.235.29.9/FacialAge/BNav_EC2/DepthDuration/v2_depth_duration_MTurk/v2_DepthDuration_HTML.html#111,111,1366,657,1366,768,8-29-2022,6-42-44,96,depth_duration_stimuli/000368_2014-06-09_15-53-01_260595134347_rgbf000155-resize_2/000368_2014-06-09_15-53-01_260595134347_rgbf000155-resize_2-target.png,1000,2.4859999999999998,7,5528,979,feet,jsons/v1_VE1000_randls_28_rotated.json,859594,1668913,26,Woman
96,975880,DepthScenes,duration_manipulation_targetAtFixation,jsons/v1_VE1000_randls_28_rotated.json,http://54.235.29.9/FacialAge/BNav_EC2/DepthDuration/v2_depth_duration_MTurk/v2_DepthDuration_HTML.html#111,111,1366,657,1366,768,8-29-2022,6-42-44,97,depth_duration_stimuli/002568_2014-06-24_13-59-21_094959634447_rgbf000062-resize_4/002568_2014-06-24_13-59-21_094959634447_rgbf000062-resize_4-target.png,1000,3.015,9,4496,1015,feet,jsons/v1_VE1000_randls_28_rotated.json,859594,1668913,26,Woman
97,975880,DepthScenes,duration_manipulation_targetAtFixation,jsons/v1_VE1000_randls_28_rotated.json,http://54.235.29.9/FacialAge/BNav_EC2/DepthDuration/v2_depth_duration_MTurk/v2_DepthDuration_HTML.html#111,111,1366,657,1366,768,8-29-2022,6-42-44,98,depth_duration_stimuli/003492_2014-05-21_15-50-55_094959634447_rgbf000828-resize_1/003492_2014-05-21_15-50-55_094959634447_rgbf000828-resize_1-target.png,1000,4.06875,8,4089,998,feet,jsons/v1_VE1000_randls_28_rotated.json,859594,1668913,26,Woman
98,975880,DepthScenes,duration_manipulation_targetAtFixation,jsons/v1_VE1000_randls_28_rotated.json,http://54.235.29.9/FacialAge/BNav_EC2/DepthDuration/v2_depth_duration_MTurk/v2_DepthDuration_HTML.html#111,111,1366,657,1366,768,8-29-2022,6-42-44,99,depth_duration_stimuli/001222_2014-06-17_16-24-06_260595134347_rgbf000073-resize_0/001222_2014-06-17_16-24-06_260595134347_rgbf000073-resize-original.jpg,1000,1.4385,0,3954,988,feet,jsons/v1_VE1000_randls_28_rotated.json,859594,1668913,26,Woman
99,975880,DepthScenes,duration_manipulation_targetAtFixation,jsons/v1_VE1000_randls_28_rotated.json,http://54.235.29.9/FacialAge/BNav_EC2/DepthDuration/v2_depth_duration_MTurk/v2_DepthDuration_HTML.html#111,111,1366,657,1366,768,8-29-2022,6-42-44,100,depth_duration_stimuli/000457_2014-06-08_16-52-43_260595134347_rgbf000199-resize_1/000457_2014-06-08_16-52-43_260595134347_rgbf000199-resize_1-target.png,1000,3.6489999999999996,6,7327,996,feet,jsons/v1_VE1000_randls_28_rotated.json,859594,1668913,26,Woman
100,975880,DepthScenes,duration_manipulation_targetAtFixation,jsons/v1_VE1000_randls_28_rotated.json,http://54.235.29.9/FacialAge/BNav_EC2/DepthDuration/v2_depth_duration_MTurk/v2_DepthDuration_HTML.html#111,111,1366,657,1366,768,8-29-2022,6-42-44,101,depth_duration_stimuli/000929_2014-06-09_16-33-19_260595134347_rgbf000139-resize_0/000929_2014-06-09_16-33-19_260595134347_rgbf000139-resize_0-target.png,1000,2.8680000000000003,8,3983,999,feet,jsons/v1_VE1000_randls_28_rotated.json,859594,1668913,26,Woman
101,975880,DepthScenes,duration_manipulation_targetAtFixation,jsons/v1_VE1000_randls_28_rotated.json,http://54.235.29.9/FacialAge/BNav_EC2/DepthDuration/v2_depth_duration_MTurk/v2_DepthDuration_HTML.html#111,111,1366,657,1366,768,8-29-2022,6-42-44,102,depth_duration_stimuli/001100_2014-06-15_17-46-26_260595134347_rgbf000225-resize_2/001100_2014-06-15_17-46-26_260595134347_rgbf000225-resize_2-target.png,1000,2.24,5,4659,999,feet,jsons/v1_VE1000_randls_28_rotated.json,859594,1668913,26,Woman
102,975880,DepthScenes,duration_manipulation_targetAtFixation,jsons/v1_VE1000_randls_28_rotated.json,http://54.235.29.9/FacialAge/BNav_EC2/DepthDuration/v2_depth_duration_MTurk/v2_DepthDuration_HTML.html#111,111,1366,657,1366,768,8-29-2022,6-42-44,103,depth_duration_stimuli/002784_2014-06-22_19-26-30_094959634447_rgbf000083-resize_3/002784_2014-06-22_19-26-30_094959634447_rgbf000083-resize_3-target.png,1000,1.8046666666667,6,3863,997,feet,jsons/v1_VE1000_randls_28_rotated.json,859594,1668913,26,Woman
103,975880,DepthScenes,duration_manipulation_targetAtFixation,jsons/v1_VE1000_randls_28_rotated.json,http://54.235.29.9/FacialAge/BNav_EC2/DepthDuration/v2_depth_duration_MTurk/v2_DepthDuration_HTML.html#111,111,1366,657,1366,768,8-29-2022,6-42-44,104,depth_duration_stimuli/000677_2014-06-08_23-10-32_260595134347_rgbf000158-resize_6/000677_2014-06-08_23-10-32_260595134347_rgbf000158-resize_6-target.png,1000,3.556,8,4087,1004,feet,jsons/v1_VE1000_randls_28_rotated.json,859594,1668913,26,Woman
104,975880,DepthScenes,duration_manipulation_targetAtFixation,jsons/v1_VE1000_randls_28_rotated.json,http://54.235.29.9/FacialAge/BNav_EC2/DepthDuration/v2_depth_duration_MTurk/v2_DepthDuration_HTML.html#111,111,1366,657,1366,768,8-29-2022,6-42-44,105,depth_duration_stimuli/001029_2014-06-08_13-17-57_260595134347_rgbf000065-resize_1/001029_2014-06-08_13-17-57_260595134347_rgbf000065-resize_1-target.png,1000,3.0835,11,4482,932,feet,jsons/v1_VE1000_randls_28_rotated.json,859594,1668913,26,Woman
105,975880,DepthScenes,duration_manipulation_targetAtFixation,jsons/v1_VE1000_randls_28_rotated.json,http://54.235.29.9/FacialAge/BNav_EC2/DepthDuration/v2_depth_duration_MTurk/v2_DepthDuration_HTML.html#111,111,1366,657,1366,768,8-29-2022,6-42-44,106,depth_duration_stimuli/003129_2014-05-12_10-48-10_094959634447_rgbf000100-resize_0/003129_2014-05-12_10-48-10_094959634447_rgbf000100-resize_0-target.png,1000,4.9305,8,3916,996,feet,jsons/v1_VE1000_randls_28_rotated.json,859594,1668913,26,Woman
106,975880,DepthScenes,duration_manipulation_targetAtFixation,jsons/v1_VE1000_randls_28_rotated.json,http://54.235.29.9/FacialAge/BNav_EC2/DepthDuration/v2_depth_duration_MTurk/v2_DepthDuration_HTML.html#111,111,1366,657,1366,768,8-29-2022,6-42-44,107,depth_duration_stimuli/000414_2014-06-04_19-49-13_260595134347_rgbf000044-resize_0/000414_2014-06-04_19-49-13_260595134347_rgbf000044-resize_0-target.png,1000,4.329,15,4337,994,feet,jsons/v1_VE1000_randls_28_rotated.json,859594,1668913,26,Woman
107,975880,DepthScenes,duration_manipulation_targetAtFixation,jsons/v1_VE1000_randls_28_rotated.json,http://54.235.29.9/FacialAge/BNav_EC2/DepthDuration/v2_depth_duration_MTurk/v2_DepthDuration_HTML.html#111,111,1366,657,1366,768,8-29-2022,6-42-44,108,depth_duration_stimuli/003083_2014-06-15_15-21-03_094959634447_rgbf000063-resize_1/003083_2014-06-15_15-21-03_094959634447_rgbf000063-resize_1-target.png,1000,4.1405,11,4596,998,feet,jsons/v1_VE1000_randls_28_rotated.json,859594,1668913,26,Woman
108,975880,DepthScenes,duration_manipulation_targetAtFixation,jsons/v1_VE1000_randls_28_rotated.json,http://54.235.29.9/FacialAge/BNav_EC2/DepthDuration/v2_depth_duration_MTurk/v2_DepthDuration_HTML.html#111,111,1366,657,1366,768,8-29-2022,6-42-44,109,depth_duration_stimuli/000486_2014-06-09_20-47-20_260595134347_rgbf000143-resize_2/000486_2014-06-09_20-47-20_260595134347_rgbf000143-resize_2-target.png,1000,4.8325,13,6938,998,feet,jsons/v1_VE1000_randls_28_rotated.json,859594,1668913,26,Woman
109,975880,DepthScenes,duration_manipulation_targetAtFixation,jsons/v1_VE1000_randls_28_rotated.json,http://54.235.29.9/FacialAge/BNav_EC2/DepthDuration/v2_depth_duration_MTurk/v2_DepthDuration_HTML.html#111,111,1366,657,1366,768,8-29-2022,6-42-44,110,depth_duration_stimuli/002639_2014-06-24_14-51-37_094959634447_rgbf000074-resize_4/002639_2014-06-24_14-51-37_094959634447_rgbf000074-resize_4-target.png,1000,4.0375,11,7877,930,feet,jsons/v1_VE1000_randls_28_rotated.json,859594,1668913,26,Woman
110,975880,DepthScenes,duration_manipulation_targetAtFixation,jsons/v1_VE1000_randls_28_rotated.json,http://54.235.29.9/FacialAge/BNav_EC2/DepthDuration/v2_depth_duration_MTurk/v2_DepthDuration_HTML.html#111,111,1366,657,1366,768,8-29-2022,6-42-44,111,depth_duration_stimuli/003292_2014-05-14_21-53-49_094959634447_rgbf000100-resize_2/003292_2014-05-14_21-53-49_094959634447_rgbf000100-resize_2-target.png,1000,3.4815,9,4191,998,feet,jsons/v1_VE1000_randls_28_rotated.json,859594,1668913,26,Woman
111,975880,DepthScenes,duration_manipulation_targetAtFixation,jsons/v1_VE1000_randls_28_rotated.json,http://54.235.29.9/FacialAge/BNav_EC2/DepthDuration/v2_depth_duration_MTurk/v2_DepthDuration_HTML.html#111,111,1366,657,1366,768,8-29-2022,6-42-44,112,depth_duration_stimuli/003228_2014-05-14_13-42-35_094959634447_rgbf000101-resize_1/003228_2014-05-14_13-42-35_094959634447_rgbf000101-resize_1-target.png,1000,1.9680000000000002,7,3949,997,feet,jsons/v1_VE1000_randls_28_rotated.json,859594,1668913,26,Woman
112,975880,DepthScenes,duration_manipulation_targetAtFixation,jsons/v1_VE1000_randls_28_rotated.json,http://54.235.29.9/FacialAge/BNav_EC2/DepthDuration/v2_depth_duration_MTurk/v2_DepthDuration_HTML.html#111,111,1366,657,1366,768,8-29-2022,6-42-44,113,depth_duration_stimuli/002600_2014-06-24_14-27-04_094959634447_rgbf000074-resize_2/002600_2014-06-24_14-27-04_094959634447_rgbf000074-resize_2-target.png,1000,2.7575,6,3574,5,feet,jsons/v1_VE1000_randls_28_rotated.json,859594,1668913,26,Woman
113,975880,DepthScenes,duration_manipulation_targetAtFixation,jsons/v1_VE1000_randls_28_rotated.json,http://54.235.29.9/FacialAge/BNav_EC2/DepthDuration/v2_depth_duration_MTurk/v2_DepthDuration_HTML.html#111,111,1366,657,1366,768,8-29-2022,6-42-44,114,depth_duration_stimuli/002103_2014-06-25_20-00-40_260595134347_rgbf000049-resize_0/002103_2014-06-25_20-00-40_260595134347_rgbf000049-resize_0-target.png,1000,4.105,7,5538,1000,feet,jsons/v1_VE1000_randls_28_rotated.json,859594,1668913,26,Woman
114,975880,DepthScenes,duration_manipulation_targetAtFixation,jsons/v1_VE1000_randls_28_rotated.json,http://54.235.29.9/FacialAge/BNav_EC2/DepthDuration/v2_depth_duration_MTurk/v2_DepthDuration_HTML.html#111,111,1366,657,1366,768,8-29-2022,6-42-44,115,depth_duration_stimuli/002039_2014-06-24_20-22-38_260595134347_rgbf000084-resize_1/002039_2014-06-24_20-22-38_260595134347_rgbf000084-resize_1-target.png,1000,4.408,7,3902,999,feet,jsons/v1_VE1000_randls_28_rotated.json,859594,1668913,26,Woman
115,975880,DepthScenes,duration_manipulation_targetAtFixation,jsons/v1_VE1000_randls_28_rotated.json,http://54.235.29.9/FacialAge/BNav_EC2/DepthDuration/v2_depth_duration_MTurk/v2_DepthDuration_HTML.html#111,111,1366,657,1366,768,8-29-2022,6-42-44,116,depth_duration_stimuli/002995_2014-06-15_12-31-26_094959634447_rgbf000150-resize_1/002995_2014-06-15_12-31-26_094959634447_rgbf000150-resize_1-target.png,1000,3.8360000000000003,11,4589,999,feet,jsons/v1_VE1000_randls_28_rotated.json,859594,1668913,26,Woman
116,975880,DepthScenes,duration_manipulation_targetAtFixation,jsons/v1_VE1000_randls_28_rotated.json,http://54.235.29.9/FacialAge/BNav_EC2/DepthDuration/v2_depth_duration_MTurk/v2_DepthDuration_HTML.html#111,111,1366,657,1366,768,8-29-2022,6-42-44,117,depth_duration_stimuli/002748_2014-06-22_19-07-22_094959634447_rgbf000078-resize_1/002748_2014-06-22_19-07-22_094959634447_rgbf000078-resize_1-target.png,1000,4.6705,12,3759,997,feet,jsons/v1_VE1000_randls_28_rotated.json,859594,1668913,26,Woman
117,975880,DepthScenes,duration_manipulation_targetAtFixation,jsons/v1_VE1000_randls_28_rotated.json,http://54.235.29.9/FacialAge/BNav_EC2/DepthDuration/v2_depth_duration_MTurk/v2_DepthDuration_HTML.html#111,111,1366,657,1366,768,8-29-2022,6-42-44,118,depth_duration_stimuli/001052_2014-06-08_18-24-54_260595134347_rgbf000130-resize_1/001052_2014-06-08_18-24-54_260595134347_rgbf000130-resize_1-target.png,1000,4.1045,15,3709,1002,feet,jsons/v1_VE1000_randls_28_rotated.json,859594,1668913,26,Woman
118,975880,DepthScenes,duration_manipulation_targetAtFixation,jsons/v1_VE1000_randls_28_rotated.json,http://54.235.29.9/FacialAge/BNav_EC2/DepthDuration/v2_depth_duration_MTurk/v2_DepthDuration_HTML.html#111,111,1366,657,1366,768,8-29-2022,6-42-44,119,depth_duration_stimuli/002988_2014-06-15_12-24-20_094959634447_rgbf000150-resize_1/002988_2014-06-15_12-24-20_094959634447_rgbf000150-resize_1-target.png,1000,4.7669999999999995,16,3676,998,feet,jsons/v1_VE1000_randls_28_rotated.json,859594,1668913,26,Woman
119,975880,DepthScenes,duration_manipulation_targetAtFixation,jsons/v1_VE1000_randls_28_rotated.json,http://54.235.29.9/FacialAge/BNav_EC2/DepthDuration/v2_depth_duration_MTurk/v2_DepthDuration_HTML.html#111,111,1366,657,1366,768,8-29-2022,6-42-44,120,depth_duration_stimuli/000787_2014-06-08_22-33-53_260595134347_rgbf000175-resize_1/000787_2014-06-08_22-33-53_260595134347_rgbf000175-resize-original.jpg,1000,4.784,6,14296,999,feet,jsons/v1_VE1000_randls_28_rotated.json,859594,1668913,26,Woman
120,975880,DepthScenes,duration_manipulation_targetAtFixation,jsons/v1_VE1000_randls_28_rotated.json,http://54.235.29.9/FacialAge/BNav_EC2/DepthDuration/v2_depth_duration_MTurk/v2_DepthDuration_HTML.html#111,111,1366,657,1366,768,8-29-2022,6-42-44,121,depth_duration_stimuli/001571_2014-06-20_17-21-32_260595134347_rgbf000089-resize_1/001571_2014-06-20_17-21-32_260595134347_rgbf000089-resize_1-target.png,1000,1.86,8,3737,999,feet,jsons/v1_VE1000_randls_28_rotated.json,859594,1668913,26,Woman
121,975880,DepthScenes,duration_manipulation_targetAtFixation,jsons/v1_VE1000_randls_28_rotated.json,http://54.235.29.9/FacialAge/BNav_EC2/DepthDuration/v2_depth_duration_MTurk/v2_DepthDuration_HTML.html#111,111,1366,657,1366,768,8-29-2022,6-42-44,122,depth_duration_stimuli/002272_2014-06-28_18-53-56_260595134347_rgbf000067-resize_2/002272_2014-06-28_18-53-56_260595134347_rgbf000067-resize_2-target.png,1000,1.138,6,3702,999,feet,jsons/v1_VE1000_randls_28_rotated.json,859594,1668913,26,Woman
122,975880,DepthScenes,duration_manipulation_targetAtFixation,jsons/v1_VE1000_randls_28_rotated.json,http://54.235.29.9/FacialAge/BNav_EC2/DepthDuration/v2_depth_duration_MTurk/v2_DepthDuration_HTML.html#111,111,1366,657,1366,768,8-29-2022,6-42-44,123,depth_duration_stimuli/002545_2014-06-24_13-38-53_094959634447_rgbf000080-resize_4/002545_2014-06-24_13-38-53_094959634447_rgbf000080-resize_4-target.png,1000,1.9205,7,4111,998,feet,jsons/v1_VE1000_randls_28_rotated.json,859594,1668913,26,Woman
123,975880,DepthScenes,duration_manipulation_targetAtFixation,jsons/v1_VE1000_randls_28_rotated.json,http://54.235.29.9/FacialAge/BNav_EC2/DepthDuration/v2_depth_duration_MTurk/v2_DepthDuration_HTML.html#111,111,1366,657,1366,768,8-29-2022,6-42-44,124,depth_duration_stimuli/001092_2014-06-15_17-34-58_260595134347_rgbf000171-resize_3/001092_2014-06-15_17-34-58_260595134347_rgbf000171-resize_3-target.png,1000,2.6935,5,3725,1001,feet,jsons/v1_VE1000_randls_28_rotated.json,859594,1668913,26,Woman
124,975880,DepthScenes,duration_manipulation_targetAtFixation,jsons/v1_VE1000_randls_28_rotated.json,http://54.235.29.9/FacialAge/BNav_EC2/DepthDuration/v2_depth_duration_MTurk/v2_DepthDuration_HTML.html#111,111,1366,657,1366,768,8-29-2022,6-42-44,125,depth_duration_stimuli/003079_2014-06-15_15-18-20_094959634447_rgbf000152-resize_8/003079_2014-06-15_15-18-20_094959634447_rgbf000152-resize_8-target.png,1000,2.8775,11,3849,999,feet,jsons/v1_VE1000_randls_28_rotated.json,859594,1668913,26,Woman
125,975880,DepthScenes,duration_manipulation_targetAtFixation,jsons/v1_VE1000_randls_28_rotated.json,http://54.235.29.9/FacialAge/BNav_EC2/DepthDuration/v2_depth_duration_MTurk/v2_DepthDuration_HTML.html#111,111,1366,657,1366,768,8-29-2022,6-42-44,126,depth_duration_stimuli/000506_2014-06-08_23-21-00_260595134347_rgbf000070-resize_7/000506_2014-06-08_23-21-00_260595134347_rgbf000070-resize_7-target.png,1000,4.0585,12,5225,998,feet,jsons/v1_VE1000_randls_28_rotated.json,859594,1668913,26,Woman
126,975880,DepthScenes,duration_manipulation_targetAtFixation,jsons/v1_VE1000_randls_28_rotated.json,http://54.235.29.9/FacialAge/BNav_EC2/DepthDuration/v2_depth_duration_MTurk/v2_DepthDuration_HTML.html#111,111,1366,657,1366,768,8-29-2022,6-42-44,127,depth_duration_stimuli/000556_2014-06-09_22-42-56_260595134347_rgbf000214-resize_1/000556_2014-06-09_22-42-56_260595134347_rgbf000214-resize_1-target.png,1000,4.8415,7,3724,991,feet,jsons/v1_VE1000_randls_28_rotated.json,859594,1668913,26,Woman
127,975880,DepthScenes,duration_manipulation_targetAtFixation,jsons/v1_VE1000_randls_28_rotated.json,http://54.235.29.9/FacialAge/BNav_EC2/DepthDuration/v2_depth_duration_MTurk/v2_DepthDuration_HTML.html#111,111,1366,657,1366,768,8-29-2022,6-42-44,128,depth_duration_stimuli/001158_2014-06-17_15-32-16_260595134347_rgbf000138-resize_2/001158_2014-06-17_15-32-16_260595134347_rgbf000138-resize_2-target.png,1000,4.5315,8,3569,1003,feet,jsons/v1_VE1000_randls_28_rotated.json,859594,1668913,26,Woman
128,975880,DepthScenes,duration_manipulation_targetAtFixation,jsons/v1_VE1000_randls_28_rotated.json,http://54.235.29.9/FacialAge/BNav_EC2/DepthDuration/v2_depth_duration_MTurk/v2_DepthDuration_HTML.html#111,111,1366,657,1366,768,8-29-2022,6-42-44,129,depth_duration_stimuli/001214_2014-06-17_16-13-55_260595134347_rgbf000111-resize_0/001214_2014-06-17_16-13-55_260595134347_rgbf000111-resize_0-target.png,1000,2.6505,6,3925,999,feet,jsons/v1_VE1000_randls_28_rotated.json,859594,1668913,26,Woman
129,975880,DepthScenes,duration_manipulation_targetAtFixation,jsons/v1_VE1000_randls_28_rotated.json,http://54.235.29.9/FacialAge/BNav_EC2/DepthDuration/v2_depth_duration_MTurk/v2_DepthDuration_HTML.html#111,111,1366,657,1366,768,8-29-2022,6-42-44,130,depth_duration_stimuli/000810_2014-06-08_17-20-01_260595134347_rgbf000105-resize_0/000810_2014-06-08_17-20-01_260595134347_rgbf000105-resize_0-target.png,1000,1.4865,6,3742,997,feet,jsons/v1_VE1000_randls_28_rotated.json,859594,1668913,26,Woman
130,975880,DepthScenes,duration_manipulation_targetAtFixation,jsons/v1_VE1000_randls_28_rotated.json,http://54.235.29.9/FacialAge/BNav_EC2/DepthDuration/v2_depth_duration_MTurk/v2_DepthDuration_HTML.html#111,111,1366,657,1366,768,8-29-2022,6-42-44,131,depth_duration_stimuli/003490_2014-05-21_15-50-11_094959634447_rgbf000101-resize_3/003490_2014-05-21_15-50-11_094959634447_rgbf000101-resize_3-target.png,1000,3.6445,5,3441,998,feet,jsons/v1_VE1000_randls_28_rotated.json,859594,1668913,26,Woman
131,975880,DepthScenes,duration_manipulation_targetAtFixation,jsons/v1_VE1000_randls_28_rotated.json,http://54.235.29.9/FacialAge/BNav_EC2/DepthDuration/v2_depth_duration_MTurk/v2_DepthDuration_HTML.html#111,111,1366,657,1366,768,8-29-2022,6-42-44,132,depth_duration_stimuli/001175_2014-06-17_15-45-55_260595134347_rgbf000129-resize_4/001175_2014-06-17_15-45-55_260595134347_rgbf000129-resize_4-target.png,1000,4.255,11,4393,999,feet,jsons/v1_VE1000_randls_28_rotated.json,859594,1668913,26,Woman
132,975880,DepthScenes,duration_manipulation_targetAtFixation,jsons/v1_VE1000_randls_28_rotated.json,http://54.235.29.9/FacialAge/BNav_EC2/DepthDuration/v2_depth_duration_MTurk/v2_DepthDuration_HTML.html#111,111,1366,657,1366,768,8-29-2022,6-42-44,133,depth_duration_stimuli/002444_2014-06-28_20-32-08_260595134347_rgbf000027-resize_0/002444_2014-06-28_20-32-08_260595134347_rgbf000027-resize_0-target.png,1000,4.388999999999999,12,4211,1000,feet,jsons/v1_VE1000_randls_28_rotated.json,859594,1668913,26,Woman
133,975880,DepthScenes,duration_manipulation_targetAtFixation,jsons/v1_VE1000_randls_28_rotated.json,http://54.235.29.9/FacialAge/BNav_EC2/DepthDuration/v2_depth_duration_MTurk/v2_DepthDuration_HTML.html#111,111,1366,657,1366,768,8-29-2022,6-42-44,134,depth_duration_stimuli/000436_2014-06-09_22-25-11_260595134347_rgbf000137-resize_1/000436_2014-06-09_22-25-11_260595134347_rgbf000137-resize_1-target.png,1000,4.0705,8,4337,1020,feet,jsons/v1_VE1000_randls_28_rotated.json,859594,1668913,26,Woman
134,975880,DepthScenes,duration_manipulation_targetAtFixation,jsons/v1_VE1000_randls_28_rotated.json,http://54.235.29.9/FacialAge/BNav_EC2/DepthDuration/v2_depth_duration_MTurk/v2_DepthDuration_HTML.html#111,111,1366,657,1366,768,8-29-2022,6-42-44,135,depth_duration_stimuli/000375_2014-06-08_11-17-29_260595134347_rgbf000133-resize_2/000375_2014-06-08_11-17-29_260595134347_rgbf000133-resize-original.jpg,1000,4.718,0,3923,999,feet,jsons/v1_VE1000_randls_28_rotated.json,859594,1668913,26,Woman
135,975880,DepthScenes,duration_manipulation_targetAtFixation,jsons/v1_VE1000_randls_28_rotated.json,http://54.235.29.9/FacialAge/BNav_EC2/DepthDuration/v2_depth_duration_MTurk/v2_DepthDuration_HTML.html#111,111,1366,657,1366,768,8-29-2022,6-42-44,136,depth_duration_stimuli/001032_2014-06-08_13-23-17_260595134347_rgbf000021-resize_3/001032_2014-06-08_13-23-17_260595134347_rgbf000021-resize_3-target.png,1000,3.2725,6,4696,999,feet,jsons/v1_VE1000_randls_28_rotated.json,859594,1668913,26,Woman
136,975880,DepthScenes,duration_manipulation_targetAtFixation,jsons/v1_VE1000_randls_28_rotated.json,http://54.235.29.9/FacialAge/BNav_EC2/DepthDuration/v2_depth_duration_MTurk/v2_DepthDuration_HTML.html#111,111,1366,657,1366,768,8-29-2022,6-42-44,137,depth_duration_stimuli/001059_2014-06-08_21-53-27_260595134347_rgbf000061-resize_4/001059_2014-06-08_21-53-27_260595134347_rgbf000061-resize_4-target.png,1000,2.4185,8,3544,999,feet,jsons/v1_VE1000_randls_28_rotated.json,859594,1668913,26,Woman
137,975880,DepthScenes,duration_manipulation_targetAtFixation,jsons/v1_VE1000_randls_28_rotated.json,http://54.235.29.9/FacialAge/BNav_EC2/DepthDuration/v2_depth_duration_MTurk/v2_DepthDuration_HTML.html#111,111,1366,657,1366,768,8-29-2022,6-42-44,138,depth_duration_stimuli/003010_2014-06-15_12-54-35_094959634447_rgbf000112-resize_0/003010_2014-06-15_12-54-35_094959634447_rgbf000112-resize_0-target.png,1000,3.1185,15,4342,1005,feet,jsons/v1_VE1000_randls_28_rotated.json,859594,1668913,26,Woman
138,975880,DepthScenes,duration_manipulation_targetAtFixation,jsons/v1_VE1000_randls_28_rotated.json,http://54.235.29.9/FacialAge/BNav_EC2/DepthDuration/v2_depth_duration_MTurk/v2_DepthDuration_HTML.html#111,111,1366,657,1366,768,8-29-2022,6-42-44,139,depth_duration_stimuli/001810_2014-06-26_20-51-35_260595134347_rgbf000040-resize_3/001810_2014-06-26_20-51-35_260595134347_rgbf000040-resize_3-target.png,1000,2.2525,8,4893,999,feet,jsons/v1_VE1000_randls_28_rotated.json,859594,1668913,26,Woman
139,975880,DepthScenes,duration_manipulation_targetAtFixation,jsons/v1_VE1000_randls_28_rotated.json,http://54.235.29.9/FacialAge/BNav_EC2/DepthDuration/v2_depth_duration_MTurk/v2_DepthDuration_HTML.html#111,111,1366,657,1366,768,8-29-2022,6-42-44,140,depth_duration_stimuli/000483_2014-06-09_20-41-45_260595134347_rgbf000116-resize_4/000483_2014-06-09_20-41-45_260595134347_rgbf000116-resize_4-target.png,1000,1.337,7,5595,1000,feet,jsons/v1_VE1000_randls_28_rotated.json,859594,1668913,26,Woman
140,975880,DepthScenes,duration_manipulation_targetAtFixation,jsons/v1_VE1000_randls_28_rotated.json,http://54.235.29.9/FacialAge/BNav_EC2/DepthDuration/v2_depth_duration_MTurk/v2_DepthDuration_HTML.html#111,111,1366,657,1366,768,8-29-2022,6-42-44,141,depth_duration_stimuli/000469_2014-06-09_19-42-10_260595134347_rgbf000081-resize_1/000469_2014-06-09_19-42-10_260595134347_rgbf000081-resize_1-target.png,1000,1.652,6,5954,991,feet,jsons/v1_VE1000_randls_28_rotated.json,859594,1668913,26,Woman
141,975880,DepthScenes,duration_manipulation_targetAtFixation,jsons/v1_VE1000_randls_28_rotated.json,http://54.235.29.9/FacialAge/BNav_EC2/DepthDuration/v2_depth_duration_MTurk/v2_DepthDuration_HTML.html#111,111,1366,657,1366,768,8-29-2022,6-42-44,142,depth_duration_stimuli/000742_2014-06-08_18-48-09_260595134347_rgbf000164-resize_4/000742_2014-06-08_18-48-09_260595134347_rgbf000164-resize_4-target.png,1000,4.632,11,4058,1015,feet,jsons/v1_VE1000_randls_28_rotated.json,859594,1668913,26,Woman
142,975880,DepthScenes,duration_manipulation_targetAtFixation,jsons/v1_VE1000_randls_28_rotated.json,http://54.235.29.9/FacialAge/BNav_EC2/DepthDuration/v2_depth_duration_MTurk/v2_DepthDuration_HTML.html#111,111,1366,657,1366,768,8-29-2022,6-42-44,143,depth_duration_stimuli/001066_2014-06-08_22-03-20_260595134347_rgbf000066-resize_4/001066_2014-06-08_22-03-20_260595134347_rgbf000066-resize_4-target.png,1000,4.2330000000000005,8,4991,1007,feet,jsons/v1_VE1000_randls_28_rotated.json,859594,1668913,26,Woman
143,975880,DepthScenes,duration_manipulation_targetAtFixation,jsons/v1_VE1000_randls_28_rotated.json,http://54.235.29.9/FacialAge/BNav_EC2/DepthDuration/v2_depth_duration_MTurk/v2_DepthDuration_HTML.html#111,111,1366,657,1366,768,8-29-2022,6-42-44,144,depth_duration_stimuli/001447_2014-06-19_17-00-32_260595134347_rgbf000082-resize_5/001447_2014-06-19_17-00-32_260595134347_rgbf000082-resize_5-target.png,1000,4.13775,9,4902,997,feet,jsons/v1_VE1000_randls_28_rotated.json,859594,1668913,26,Woman
144,975880,DepthScenes,duration_manipulation_targetAtFixation,jsons/v1_VE1000_randls_28_rotated.json,http://54.235.29.9/FacialAge/BNav_EC2/DepthDuration/v2_depth_duration_MTurk/v2_DepthDuration_HTML.html#111,111,1366,657,1366,768,8-29-2022,6-42-44,145,depth_duration_stimuli/000447_2014-06-08_16-15-46_260595134347_rgbf000130-resize_1/000447_2014-06-08_16-15-46_260595134347_rgbf000130-resize_1-target.png,1000,4.479,9,4508,1000,feet,jsons/v1_VE1000_randls_28_rotated.json,859594,1668913,26,Woman
145,975880,DepthScenes,duration_manipulation_targetAtFixation,jsons/v1_VE1000_randls_28_rotated.json,http://54.235.29.9/FacialAge/BNav_EC2/DepthDuration/v2_depth_duration_MTurk/v2_DepthDuration_HTML.html#111,111,1366,657,1366,768,8-29-2022,6-42-44,146,depth_duration_stimuli/000734_2014-06-08_17-39-11_260595134347_rgbf000128-resize_2/000734_2014-06-08_17-39-11_260595134347_rgbf000128-resize_2-target.png,1000,4.098,11,5759,989,feet,jsons/v1_VE1000_randls_28_rotated.json,859594,1668913,26,Woman
146,975880,DepthScenes,duration_manipulation_targetAtFixation,jsons/v1_VE1000_randls_28_rotated.json,http://54.235.29.9/FacialAge/BNav_EC2/DepthDuration/v2_depth_duration_MTurk/v2_DepthDuration_HTML.html#111,111,1366,657,1366,768,8-29-2022,6-42-44,147,depth_duration_stimuli/000739_2014-06-08_18-45-58_260595134347_rgbf000068-resize_1/000739_2014-06-08_18-45-58_260595134347_rgbf000068-resize_1-target.png,1000,3.534,9,4201,1000,feet,jsons/v1_VE1000_randls_28_rotated.json,859594,1668913,26,Woman
147,975880,DepthScenes,duration_manipulation_targetAtFixation,jsons/v1_VE1000_randls_28_rotated.json,http://54.235.29.9/FacialAge/BNav_EC2/DepthDuration/v2_depth_duration_MTurk/v2_DepthDuration_HTML.html#111,111,1366,657,1366,768,8-29-2022,6-42-44,148,depth_duration_stimuli/000749_2014-06-08_21-55-06_260595134347_rgbf000070-resize_2/000749_2014-06-08_21-55-06_260595134347_rgbf000070-resize_2-target.png,1000,2.331,9,4423,1003,feet,jsons/v1_VE1000_randls_28_rotated.json,859594,1668913,26,Woman
148,975880,DepthScenes,duration_manipulation_targetAtFixation,jsons/v1_VE1000_randls_28_rotated.json,http://54.235.29.9/FacialAge/BNav_EC2/DepthDuration/v2_depth_duration_MTurk/v2_DepthDuration_HTML.html#111,111,1366,657,1366,768,8-29-2022,6-42-44,149,depth_duration_stimuli/002788_2014-06-22_19-36-03_094959634447_rgbf000088-resize_2/002788_2014-06-22_19-36-03_094959634447_rgbf000088-resize_2-target.png,1000,1.6465,8,5361,999,feet,jsons/v1_VE1000_randls_28_rotated.json,859594,1668913,26,Woman
149,975880,DepthScenes,duration_manipulation_targetAtFixation,jsons/v1_VE1000_randls_28_rotated.json,http://54.235.29.9/FacialAge/BNav_EC2/DepthDuration/v2_depth_duration_MTurk/v2_DepthDuration_HTML.html#111,111,1366,657,1366,768,8-29-2022,6-42-44,150,depth_duration_stimuli/001584_2014-06-20_11-07-43_260595134347_rgbf000002-resize_1/001584_2014-06-20_11-07-43_260595134347_rgbf000002-resize_1-target.png,1000,3.53,11,3934,999,feet,jsons/v1_VE1000_randls_28_rotated.json,859594,1668913,26,Woman
150,975880,DepthScenes,duration_manipulation_targetAtFixation,jsons/v1_VE1000_randls_28_rotated.json,http://54.235.29.9/FacialAge/BNav_EC2/DepthDuration/v2_depth_duration_MTurk/v2_DepthDuration_HTML.html#111,111,1366,657,1366,768,8-29-2022,6-42-44,151,depth_duration_stimuli/003621_2014-05-23_18-06-08_094959634447_rgbf000101-resize_1/003621_2014-05-23_18-06-08_094959634447_rgbf000101-resize_1-target.png,1000,3.9835,12,8538,1000,feet,jsons/v1_VE1000_randls_28_rotated.json,859594,1668913,26,Woman
151,975880,DepthScenes,duration_manipulation_targetAtFixation,jsons/v1_VE1000_randls_28_rotated.json,http://54.235.29.9/FacialAge/BNav_EC2/DepthDuration/v2_depth_duration_MTurk/v2_DepthDuration_HTML.html#111,111,1366,657,1366,768,8-29-2022,6-42-44,152,depth_duration_stimuli/000569_2014-06-09_22-51-47_260595134347_rgbf000141-resize_3/000569_2014-06-09_22-51-47_260595134347_rgbf000141-resize-original.jpg,1000,4.512,0,4284,1000,feet,jsons/v1_VE1000_randls_28_rotated.json,859594,1668913,26,Woman
152,975880,DepthScenes,duration_manipulation_targetAtFixation,jsons/v1_VE1000_randls_28_rotated.json,http://54.235.29.9/FacialAge/BNav_EC2/DepthDuration/v2_depth_duration_MTurk/v2_DepthDuration_HTML.html#111,111,1366,657,1366,768,8-29-2022,6-42-44,153,depth_duration_stimuli/001094_2014-06-15_17-36-00_260595134347_rgbf000205-resize_0/001094_2014-06-15_17-36-00_260595134347_rgbf000205-resize_0-target.png,1000,4.2175,11,4121,997,feet,jsons/v1_VE1000_randls_28_rotated.json,859594,1668913,26,Woman
153,975880,DepthScenes,duration_manipulation_targetAtFixation,jsons/v1_VE1000_randls_28_rotated.json,http://54.235.29.9/FacialAge/BNav_EC2/DepthDuration/v2_depth_duration_MTurk/v2_DepthDuration_HTML.html#111,111,1366,657,1366,768,8-29-2022,6-42-44,154,depth_duration_stimuli/000692_2014-06-08_13-09-42_260595134347_rgbf000199-resize_2/000692_2014-06-08_13-09-42_260595134347_rgbf000199-resize_2-target.png,1000,3.661,12,4066,1010,feet,jsons/v1_VE1000_randls_28_rotated.json,859594,1668913,26,Woman
154,975880,DepthScenes,duration_manipulation_targetAtFixation,jsons/v1_VE1000_randls_28_rotated.json,http://54.235.29.9/FacialAge/BNav_EC2/DepthDuration/v2_depth_duration_MTurk/v2_DepthDuration_HTML.html#111,111,1366,657,1366,768,8-29-2022,6-42-44,155,depth_duration_stimuli/002949_2014-06-26_15-57-42_094959634447_rgbf000079-resize_1/002949_2014-06-26_15-57-42_094959634447_rgbf000079-resize_1-target.png,1000,1.8915,6,18042,1009,feet,jsons/v1_VE1000_randls_28_rotated.json,859594,1668913,26,Woman
155,975880,DepthScenes,duration_manipulation_targetAtFixation,jsons/v1_VE1000_randls_28_rotated.json,http://54.235.29.9/FacialAge/BNav_EC2/DepthDuration/v2_depth_duration_MTurk/v2_DepthDuration_HTML.html#111,111,1366,657,1366,768,8-29-2022,6-42-44,156,depth_duration_stimuli/000522_2014-06-08_13-35-06_260595134347_rgbf000244-resize_1/000522_2014-06-08_13-35-06_260595134347_rgbf000244-resize_1-target.png,1000,2.3715,8,4178,987,feet,jsons/v1_VE1000_randls_28_rotated.json,859594,1668913,26,Woman
156,975880,DepthScenes,duration_manipulation_targetAtFixation,jsons/v1_VE1000_randls_28_rotated.json,http://54.235.29.9/FacialAge/BNav_EC2/DepthDuration/v2_depth_duration_MTurk/v2_DepthDuration_HTML.html#111,111,1366,657,1366,768,8-29-2022,6-42-44,157,depth_duration_stimuli/003338_2014-05-20_11-01-23_094959634447_rgbf000051-resize_6/003338_2014-05-20_11-01-23_094959634447_rgbf000051-resize_6-target.png,1000,1.693,7,3902,995,feet,jsons/v1_VE1000_randls_28_rotated.json,859594,1668913,26,Woman
157,975880,DepthScenes,duration_manipulation_targetAtFixation,jsons/v1_VE1000_randls_28_rotated.json,http://54.235.29.9/FacialAge/BNav_EC2/DepthDuration/v2_depth_duration_MTurk/v2_DepthDuration_HTML.html#111,111,1366,657,1366,768,8-29-2022,6-42-44,158,depth_duration_stimuli/002509_2014-06-24_13-19-22_094959634447_rgbf000077-resize_0/002509_2014-06-24_13-19-22_094959634447_rgbf000077-resize_0-target.png,1000,1.3065,6,3690,998,feet,jsons/v1_VE1000_randls_28_rotated.json,859594,1668913,26,Woman
158,975880,DepthScenes,duration_manipulation_targetAtFixation,jsons/v1_VE1000_randls_28_rotated.json,http://54.235.29.9/FacialAge/BNav_EC2/DepthDuration/v2_depth_duration_MTurk/v2_DepthDuration_HTML.html#111,111,1366,657,1366,768,8-29-2022,6-42-44,159,depth_duration_stimuli/002414_2014-06-28_20-24-58_260595134347_rgbf000067-resize_4/002414_2014-06-28_20-24-58_260595134347_rgbf000067-resize_4-target.png,1000,4.363,12,7243,999,feet,jsons/v1_VE1000_randls_28_rotated.json,859594,1668913,26,Woman
159,975880,DepthScenes,duration_manipulation_targetAtFixation,jsons/v1_VE1000_randls_28_rotated.json,http://54.235.29.9/FacialAge/BNav_EC2/DepthDuration/v2_depth_duration_MTurk/v2_DepthDuration_HTML.html#111,111,1366,657,1366,768,8-29-2022,6-42-44,160,depth_duration_stimuli/000773_2014-06-08_22-24-54_260595134347_rgbf000093-resize_1/000773_2014-06-08_22-24-54_260595134347_rgbf000093-resize_1-target.png,1000,4.973,9,4152,990,feet,jsons/v1_VE1000_randls_28_rotated.json,859594,1668913,26,Woman
160,975880,DepthScenes,duration_manipulation_targetAtFixation,jsons/v1_VE1000_randls_28_rotated.json,http://54.235.29.9/FacialAge/BNav_EC2/DepthDuration/v2_depth_duration_MTurk/v2_DepthDuration_HTML.html#111,111,1366,657,1366,768,8-29-2022,6-42-44,161,depth_duration_stimuli/002467_2014-06-28_20-38-07_260595134347_rgbf000026-resize_2/002467_2014-06-28_20-38-07_260595134347_rgbf000026-resize_2-target.png,1000,4.742,11,4364,999,feet,jsons/v1_VE1000_randls_28_rotated.json,859594,1668913,26,Woman
161,975880,DepthScenes,duration_manipulation_targetAtFixation,jsons/v1_VE1000_randls_28_rotated.json,http://54.235.29.9/FacialAge/BNav_EC2/DepthDuration/v2_depth_duration_MTurk/v2_DepthDuration_HTML.html#111,111,1366,657,1366,768,8-29-2022,6-42-44,162,depth_duration_stimuli/002570_2014-06-24_13-59-54_094959634447_rgbf000059-resize_0/002570_2014-06-24_13-59-54_094959634447_rgbf000059-resize_0-target.png,1000,4.037,7,4017,999,feet,jsons/v1_VE1000_randls_28_rotated.json,859594,1668913,26,Woman
162,975880,DepthScenes,duration_manipulation_targetAtFixation,jsons/v1_VE1000_randls_28_rotated.json,http://54.235.29.9/FacialAge/BNav_EC2/DepthDuration/v2_depth_duration_MTurk/v2_DepthDuration_HTML.html#111,111,1366,657,1366,768,8-29-2022,6-42-44,163,depth_duration_stimuli/001392_2014-06-19_16-07-59_260595134347_rgbf000046-resize_1/001392_2014-06-19_16-07-59_260595134347_rgbf000046-resize_1-target.png,1000,4.135,15,7430,1005,feet,jsons/v1_VE1000_randls_28_rotated.json,859594,1668913,26,Woman
163,975880,DepthScenes,duration_manipulation_targetAtFixation,jsons/v1_VE1000_randls_28_rotated.json,http://54.235.29.9/FacialAge/BNav_EC2/DepthDuration/v2_depth_duration_MTurk/v2_DepthDuration_HTML.html#111,111,1366,657,1366,768,8-29-2022,6-42-44,164,depth_duration_stimuli/001570_2014-06-20_17-21-09_260595134347_rgbf000135-resize_4/001570_2014-06-20_17-21-09_260595134347_rgbf000135-resize_4-target.png,1000,4.467,11,3702,1000,feet,jsons/v1_VE1000_randls_28_rotated.json,859594,1668913,26,Woman
