,subjID,experimentName,versionName,sequenceName,url,selected_row,windowWidth,windowHeight,screenWidth,screenHeight,startDate,startTime,trial,stimulus,duration,actual_depth,depth_estimate,trial_RT,log_sceneDuration,unitSelection,seq_filepath,experimentTime,totalTime,age,gender
0,976033,DepthScenes,duration_manipulation_targetAtFixation,jsons/VE125_randls_45_rotated.json,http://54.235.29.9/FacialAge/BNav_EC2/DepthDuration/v2_depth_duration_MTurk/v2_DepthDuration_HTML.html#103,103,1366,657,1366,768,8-21-2022,7-51-50,1,depth_duration_stimuli/000943_2014-06-09_19-31-07_260595134347_rgbf000128-resize_1/000943_2014-06-09_19-31-07_260595134347_rgbf000128-resize_1-target.png,125,1.9765,1,4287,127,meters,jsons/VE125_randls_45_rotated.json,641632,1360890,32,Man
1,976033,DepthScenes,duration_manipulation_targetAtFixation,jsons/VE125_randls_45_rotated.json,http://54.235.29.9/FacialAge/BNav_EC2/DepthDuration/v2_depth_duration_MTurk/v2_DepthDuration_HTML.html#103,103,1366,657,1366,768,8-21-2022,7-51-50,2,depth_duration_stimuli/003070_2014-06-15_14-58-27_094959634447_rgbf000150-resize_3/003070_2014-06-15_14-58-27_094959634447_rgbf000150-resize_3-target.png,125,2.9415,2,1830,117,meters,jsons/VE125_randls_45_rotated.json,641632,1360890,32,Man
2,976033,DepthScenes,duration_manipulation_targetAtFixation,jsons/VE125_randls_45_rotated.json,http://54.235.29.9/FacialAge/BNav_EC2/DepthDuration/v2_depth_duration_MTurk/v2_DepthDuration_HTML.html#103,103,1366,657,1366,768,8-21-2022,7-51-50,3,depth_duration_stimuli/001571_2014-06-20_17-21-32_260595134347_rgbf000089-resize_1/001571_2014-06-20_17-21-32_260595134347_rgbf000089-resize_1-target.png,125,1.86,1,1878,113,meters,jsons/VE125_randls_45_rotated.json,641632,1360890,32,Man
3,976033,DepthScenes,duration_manipulation_targetAtFixation,jsons/VE125_randls_45_rotated.json,http://54.235.29.9/FacialAge/BNav_EC2/DepthDuration/v2_depth_duration_MTurk/v2_DepthDuration_HTML.html#103,103,1366,657,1366,768,8-21-2022,7-51-50,4,depth_duration_stimuli/002272_2014-06-28_18-53-56_260595134347_rgbf000067-resize_2/002272_2014-06-28_18-53-56_260595134347_rgbf000067-resize_2-target.png,125,1.138,1,1867,139,meters,jsons/VE125_randls_45_rotated.json,641632,1360890,32,Man
4,976033,DepthScenes,duration_manipulation_targetAtFixation,jsons/VE125_randls_45_rotated.json,http://54.235.29.9/FacialAge/BNav_EC2/DepthDuration/v2_depth_duration_MTurk/v2_DepthDuration_HTML.html#103,103,1366,657,1366,768,8-21-2022,7-51-50,5,depth_duration_stimuli/002995_2014-06-15_12-31-26_094959634447_rgbf000150-resize_1/002995_2014-06-15_12-31-26_094959634447_rgbf000150-resize_1-target.png,125,3.8360000000000003,3,2013,116,meters,jsons/VE125_randls_45_rotated.json,641632,1360890,32,Man
5,976033,DepthScenes,duration_manipulation_targetAtFixation,jsons/VE125_randls_45_rotated.json,http://54.235.29.9/FacialAge/BNav_EC2/DepthDuration/v2_depth_duration_MTurk/v2_DepthDuration_HTML.html#103,103,1366,657,1366,768,8-21-2022,7-51-50,6,depth_duration_stimuli/002748_2014-06-22_19-07-22_094959634447_rgbf000078-resize_1/002748_2014-06-22_19-07-22_094959634447_rgbf000078-resize_1-target.png,125,4.6705,4,2781,119,meters,jsons/VE125_randls_45_rotated.json,641632,1360890,32,Man
6,976033,DepthScenes,duration_manipulation_targetAtFixation,jsons/VE125_randls_45_rotated.json,http://54.235.29.9/FacialAge/BNav_EC2/DepthDuration/v2_depth_duration_MTurk/v2_DepthDuration_HTML.html#103,103,1366,657,1366,768,8-21-2022,7-51-50,7,depth_duration_stimuli/000780_2014-06-08_22-28-29_260595134347_rgbf000126-resize_1/000780_2014-06-08_22-28-29_260595134347_rgbf000126-resize_1-target.png,125,3.3825,4,1906,126,meters,jsons/VE125_randls_45_rotated.json,641632,1360890,32,Man
7,976033,DepthScenes,duration_manipulation_targetAtFixation,jsons/VE125_randls_45_rotated.json,http://54.235.29.9/FacialAge/BNav_EC2/DepthDuration/v2_depth_duration_MTurk/v2_DepthDuration_HTML.html#103,103,1366,657,1366,768,8-21-2022,7-51-50,8,depth_duration_stimuli/002445_2014-06-28_20-32-16_260595134347_rgbf000029-resize_4/002445_2014-06-28_20-32-16_260595134347_rgbf000029-resize_4-target.png,125,2.5315,2,1935,124,meters,jsons/VE125_randls_45_rotated.json,641632,1360890,32,Man
8,976033,DepthScenes,duration_manipulation_targetAtFixation,jsons/VE125_randls_45_rotated.json,http://54.235.29.9/FacialAge/BNav_EC2/DepthDuration/v2_depth_duration_MTurk/v2_DepthDuration_HTML.html#103,103,1366,657,1366,768,8-21-2022,7-51-50,9,depth_duration_stimuli/001828_2014-06-26_21-40-03_260595134347_rgbf000024-resize_0/001828_2014-06-26_21-40-03_260595134347_rgbf000024-resize_0-target.png,125,4.8260000000000005,3,2030,118,meters,jsons/VE125_randls_45_rotated.json,641632,1360890,32,Man
9,976033,DepthScenes,duration_manipulation_targetAtFixation,jsons/VE125_randls_45_rotated.json,http://54.235.29.9/FacialAge/BNav_EC2/DepthDuration/v2_depth_duration_MTurk/v2_DepthDuration_HTML.html#103,103,1366,657,1366,768,8-21-2022,7-51-50,10,depth_duration_stimuli/000009_2014-05-26_14-32-05_260595134347_rgbf000034-resize_3/000009_2014-05-26_14-32-05_260595134347_rgbf000034-resize_3-target.png,125,3.8715,4,1797,116,meters,jsons/VE125_randls_45_rotated.json,641632,1360890,32,Man
10,976033,DepthScenes,duration_manipulation_targetAtFixation,jsons/VE125_randls_45_rotated.json,http://54.235.29.9/FacialAge/BNav_EC2/DepthDuration/v2_depth_duration_MTurk/v2_DepthDuration_HTML.html#103,103,1366,657,1366,768,8-21-2022,7-51-50,11,depth_duration_stimuli/001584_2014-06-20_11-07-43_260595134347_rgbf000002-resize_1/001584_2014-06-20_11-07-43_260595134347_rgbf000002-resize_1-target.png,125,3.53,3,2398,127,meters,jsons/VE125_randls_45_rotated.json,641632,1360890,32,Man
11,976033,DepthScenes,duration_manipulation_targetAtFixation,jsons/VE125_randls_45_rotated.json,http://54.235.29.9/FacialAge/BNav_EC2/DepthDuration/v2_depth_duration_MTurk/v2_DepthDuration_HTML.html#103,103,1366,657,1366,768,8-21-2022,7-51-50,12,depth_duration_stimuli/003621_2014-05-23_18-06-08_094959634447_rgbf000101-resize_1/003621_2014-05-23_18-06-08_094959634447_rgbf000101-resize_1-target.png,125,3.9835,3,1795,122,meters,jsons/VE125_randls_45_rotated.json,641632,1360890,32,Man
12,976033,DepthScenes,duration_manipulation_targetAtFixation,jsons/VE125_randls_45_rotated.json,http://54.235.29.9/FacialAge/BNav_EC2/DepthDuration/v2_depth_duration_MTurk/v2_DepthDuration_HTML.html#103,103,1366,657,1366,768,8-21-2022,7-51-50,13,depth_duration_stimuli/002678_2014-06-13_16-15-32_094959634447_rgbf000151-resize_6/002678_2014-06-13_16-15-32_094959634447_rgbf000151-resize_6-target.png,125,2.1830000000000003,4,1725,131,meters,jsons/VE125_randls_45_rotated.json,641632,1360890,32,Man
13,976033,DepthScenes,duration_manipulation_targetAtFixation,jsons/VE125_randls_45_rotated.json,http://54.235.29.9/FacialAge/BNav_EC2/DepthDuration/v2_depth_duration_MTurk/v2_DepthDuration_HTML.html#103,103,1366,657,1366,768,8-21-2022,7-51-50,14,depth_duration_stimuli/000368_2014-06-09_15-53-01_260595134347_rgbf000155-resize_2/000368_2014-06-09_15-53-01_260595134347_rgbf000155-resize_2-target.png,125,2.4859999999999998,0,3125,135,meters,jsons/VE125_randls_45_rotated.json,641632,1360890,32,Man
14,976033,DepthScenes,duration_manipulation_targetAtFixation,jsons/VE125_randls_45_rotated.json,http://54.235.29.9/FacialAge/BNav_EC2/DepthDuration/v2_depth_duration_MTurk/v2_DepthDuration_HTML.html#103,103,1366,657,1366,768,8-21-2022,7-51-50,15,depth_duration_stimuli/001136_2014-06-17_15-19-41_260595134347_rgbf000076-resize_3/001136_2014-06-17_15-19-41_260595134347_rgbf000076-resize_3-target.png,125,1.8655,0,3061,116,meters,jsons/VE125_randls_45_rotated.json,641632,1360890,32,Man
15,976033,DepthScenes,duration_manipulation_targetAtFixation,jsons/VE125_randls_45_rotated.json,http://54.235.29.9/FacialAge/BNav_EC2/DepthDuration/v2_depth_duration_MTurk/v2_DepthDuration_HTML.html#103,103,1366,657,1366,768,8-21-2022,7-51-50,16,depth_duration_stimuli/001164_2014-06-17_15-35-46_260595134347_rgbf000085-resize_3/001164_2014-06-17_15-35-46_260595134347_rgbf000085-resize_3-target.png,125,2.354,0,2454,135,meters,jsons/VE125_randls_45_rotated.json,641632,1360890,32,Man
16,976033,DepthScenes,duration_manipulation_targetAtFixation,jsons/VE125_randls_45_rotated.json,http://54.235.29.9/FacialAge/BNav_EC2/DepthDuration/v2_depth_duration_MTurk/v2_DepthDuration_HTML.html#103,103,1366,657,1366,768,8-21-2022,7-51-50,17,depth_duration_stimuli/003079_2014-06-15_15-18-20_094959634447_rgbf000152-resize_8/003079_2014-06-15_15-18-20_094959634447_rgbf000152-resize_8-target.png,125,2.8775,0,2493,127,meters,jsons/VE125_randls_45_rotated.json,641632,1360890,32,Man
17,976033,DepthScenes,duration_manipulation_targetAtFixation,jsons/VE125_randls_45_rotated.json,http://54.235.29.9/FacialAge/BNav_EC2/DepthDuration/v2_depth_duration_MTurk/v2_DepthDuration_HTML.html#103,103,1366,657,1366,768,8-21-2022,7-51-50,18,depth_duration_stimuli/000506_2014-06-08_23-21-00_260595134347_rgbf000070-resize_7/000506_2014-06-08_23-21-00_260595134347_rgbf000070-resize_7-target.png,125,4.0585,3,2312,130,meters,jsons/VE125_randls_45_rotated.json,641632,1360890,32,Man
18,976033,DepthScenes,duration_manipulation_targetAtFixation,jsons/VE125_randls_45_rotated.json,http://54.235.29.9/FacialAge/BNav_EC2/DepthDuration/v2_depth_duration_MTurk/v2_DepthDuration_HTML.html#103,103,1366,657,1366,768,8-21-2022,7-51-50,19,depth_duration_stimuli/001498_2014-06-19_17-45-14_260595134347_rgbf000129-resize_4/001498_2014-06-19_17-45-14_260595134347_rgbf000129-resize-original.jpg,125,1.4075,2,2548,128,meters,jsons/VE125_randls_45_rotated.json,641632,1360890,32,Man
19,976033,DepthScenes,duration_manipulation_targetAtFixation,jsons/VE125_randls_45_rotated.json,http://54.235.29.9/FacialAge/BNav_EC2/DepthDuration/v2_depth_duration_MTurk/v2_DepthDuration_HTML.html#103,103,1366,657,1366,768,8-21-2022,7-51-50,20,depth_duration_stimuli/000742_2014-06-08_18-48-09_260595134347_rgbf000164-resize_4/000742_2014-06-08_18-48-09_260595134347_rgbf000164-resize_4-target.png,125,4.632,3,1942,117,meters,jsons/VE125_randls_45_rotated.json,641632,1360890,32,Man
20,976033,DepthScenes,duration_manipulation_targetAtFixation,jsons/VE125_randls_45_rotated.json,http://54.235.29.9/FacialAge/BNav_EC2/DepthDuration/v2_depth_duration_MTurk/v2_DepthDuration_HTML.html#103,103,1366,657,1366,768,8-21-2022,7-51-50,21,depth_duration_stimuli/001066_2014-06-08_22-03-20_260595134347_rgbf000066-resize_4/001066_2014-06-08_22-03-20_260595134347_rgbf000066-resize_4-target.png,125,4.2330000000000005,3,2647,133,meters,jsons/VE125_randls_45_rotated.json,641632,1360890,32,Man
21,976033,DepthScenes,duration_manipulation_targetAtFixation,jsons/VE125_randls_45_rotated.json,http://54.235.29.9/FacialAge/BNav_EC2/DepthDuration/v2_depth_duration_MTurk/v2_DepthDuration_HTML.html#103,103,1366,657,1366,768,8-21-2022,7-51-50,22,depth_duration_stimuli/000665_2014-06-09_20-42-35_260595134347_rgbf000110-resize_1/000665_2014-06-09_20-42-35_260595134347_rgbf000110-resize_1-target.png,125,3.057,4,1793,123,meters,jsons/VE125_randls_45_rotated.json,641632,1360890,32,Man
22,976033,DepthScenes,duration_manipulation_targetAtFixation,jsons/VE125_randls_45_rotated.json,http://54.235.29.9/FacialAge/BNav_EC2/DepthDuration/v2_depth_duration_MTurk/v2_DepthDuration_HTML.html#103,103,1366,657,1366,768,8-21-2022,7-51-50,23,depth_duration_stimuli/001150_2014-06-17_15-27-34_260595134347_rgbf000108-resize_2/001150_2014-06-17_15-27-34_260595134347_rgbf000108-resize_2-target.png,125,4.0325,3,2963,131,meters,jsons/VE125_randls_45_rotated.json,641632,1360890,32,Man
23,976033,DepthScenes,duration_manipulation_targetAtFixation,jsons/VE125_randls_45_rotated.json,http://54.235.29.9/FacialAge/BNav_EC2/DepthDuration/v2_depth_duration_MTurk/v2_DepthDuration_HTML.html#103,103,1366,657,1366,768,8-21-2022,7-51-50,24,depth_duration_stimuli/000866_2014-06-09_20-45-42_260595134347_rgbf000139-resize_1/000866_2014-06-09_20-45-42_260595134347_rgbf000139-resize_1-target.png,125,3.2155,3,1598,117,meters,jsons/VE125_randls_45_rotated.json,641632,1360890,32,Man
24,976033,DepthScenes,duration_manipulation_targetAtFixation,jsons/VE125_randls_45_rotated.json,http://54.235.29.9/FacialAge/BNav_EC2/DepthDuration/v2_depth_duration_MTurk/v2_DepthDuration_HTML.html#103,103,1366,657,1366,768,8-21-2022,7-51-50,25,depth_duration_stimuli/002989_2014-06-15_12-25-03_094959634447_rgbf000150-resize_3/002989_2014-06-15_12-25-03_094959634447_rgbf000150-resize_3-target.png,125,4.1975,0,3531,119,meters,jsons/VE125_randls_45_rotated.json,641632,1360890,32,Man
25,976033,DepthScenes,duration_manipulation_targetAtFixation,jsons/VE125_randls_45_rotated.json,http://54.235.29.9/FacialAge/BNav_EC2/DepthDuration/v2_depth_duration_MTurk/v2_DepthDuration_HTML.html#103,103,1366,657,1366,768,8-21-2022,7-51-50,26,depth_duration_stimuli/000677_2014-06-08_23-10-32_260595134347_rgbf000158-resize_6/000677_2014-06-08_23-10-32_260595134347_rgbf000158-resize_6-target.png,125,3.556,0,3783,125,meters,jsons/VE125_randls_45_rotated.json,641632,1360890,32,Man
26,976033,DepthScenes,duration_manipulation_targetAtFixation,jsons/VE125_randls_45_rotated.json,http://54.235.29.9/FacialAge/BNav_EC2/DepthDuration/v2_depth_duration_MTurk/v2_DepthDuration_HTML.html#103,103,1366,657,1366,768,8-21-2022,7-51-50,27,depth_duration_stimuli/001029_2014-06-08_13-17-57_260595134347_rgbf000065-resize_1/001029_2014-06-08_13-17-57_260595134347_rgbf000065-resize_1-target.png,125,3.0835,0,4337,126,meters,jsons/VE125_randls_45_rotated.json,641632,1360890,32,Man
27,976033,DepthScenes,duration_manipulation_targetAtFixation,jsons/VE125_randls_45_rotated.json,http://54.235.29.9/FacialAge/BNav_EC2/DepthDuration/v2_depth_duration_MTurk/v2_DepthDuration_HTML.html#103,103,1366,657,1366,768,8-21-2022,7-51-50,28,depth_duration_stimuli/003423_2014-05-21_10-23-26_094959634447_rgbf002665-resize_2/003423_2014-05-21_10-23-26_094959634447_rgbf002665-resize_2-target.png,125,3.2575,0,3601,123,meters,jsons/VE125_randls_45_rotated.json,641632,1360890,32,Man
28,976033,DepthScenes,duration_manipulation_targetAtFixation,jsons/VE125_randls_45_rotated.json,http://54.235.29.9/FacialAge/BNav_EC2/DepthDuration/v2_depth_duration_MTurk/v2_DepthDuration_HTML.html#103,103,1366,657,1366,768,8-21-2022,7-51-50,29,depth_duration_stimuli/002905_2014-06-03_18-04-43_094959634447_rgbf000151-resize_2/002905_2014-06-03_18-04-43_094959634447_rgbf000151-resize_2-target.png,125,2.0295,0,6432,120,meters,jsons/VE125_randls_45_rotated.json,641632,1360890,32,Man
29,976033,DepthScenes,duration_manipulation_targetAtFixation,jsons/VE125_randls_45_rotated.json,http://54.235.29.9/FacialAge/BNav_EC2/DepthDuration/v2_depth_duration_MTurk/v2_DepthDuration_HTML.html#103,103,1366,657,1366,768,8-21-2022,7-51-50,30,depth_duration_stimuli/002072_2014-06-24_21-48-06_260595134347_rgbf000115-resize_0/002072_2014-06-24_21-48-06_260595134347_rgbf000115-resize-original.jpg,125,4.702,0,3695,132,meters,jsons/VE125_randls_45_rotated.json,641632,1360890,32,Man
30,976033,DepthScenes,duration_manipulation_targetAtFixation,jsons/VE125_randls_45_rotated.json,http://54.235.29.9/FacialAge/BNav_EC2/DepthDuration/v2_depth_duration_MTurk/v2_DepthDuration_HTML.html#103,103,1366,657,1366,768,8-21-2022,7-51-50,31,depth_duration_stimuli/002953_2014-06-08_17-32-18_094959634447_rgbf000059-resize_5/002953_2014-06-08_17-32-18_094959634447_rgbf000059-resize_5-target.png,125,1.551,2,1781,120,meters,jsons/VE125_randls_45_rotated.json,641632,1360890,32,Man
31,976033,DepthScenes,duration_manipulation_targetAtFixation,jsons/VE125_randls_45_rotated.json,http://54.235.29.9/FacialAge/BNav_EC2/DepthDuration/v2_depth_duration_MTurk/v2_DepthDuration_HTML.html#103,103,1366,657,1366,768,8-21-2022,7-51-50,32,depth_duration_stimuli/000878_2014-06-08_22-52-45_260595134347_rgbf000045-resize_2/000878_2014-06-08_22-52-45_260595134347_rgbf000045-resize_2-target.png,125,2.092,3,1542,119,meters,jsons/VE125_randls_45_rotated.json,641632,1360890,32,Man
32,976033,DepthScenes,duration_manipulation_targetAtFixation,jsons/VE125_randls_45_rotated.json,http://54.235.29.9/FacialAge/BNav_EC2/DepthDuration/v2_depth_duration_MTurk/v2_DepthDuration_HTML.html#103,103,1366,657,1366,768,8-21-2022,7-51-50,33,depth_duration_stimuli/001094_2014-06-15_17-36-00_260595134347_rgbf000205-resize_0/001094_2014-06-15_17-36-00_260595134347_rgbf000205-resize_0-target.png,125,4.2175,2,1505,128,meters,jsons/VE125_randls_45_rotated.json,641632,1360890,32,Man
33,976033,DepthScenes,duration_manipulation_targetAtFixation,jsons/VE125_randls_45_rotated.json,http://54.235.29.9/FacialAge/BNav_EC2/DepthDuration/v2_depth_duration_MTurk/v2_DepthDuration_HTML.html#103,103,1366,657,1366,768,8-21-2022,7-51-50,34,depth_duration_stimuli/000692_2014-06-08_13-09-42_260595134347_rgbf000199-resize_2/000692_2014-06-08_13-09-42_260595134347_rgbf000199-resize_2-target.png,125,3.661,1,1906,124,meters,jsons/VE125_randls_45_rotated.json,641632,1360890,32,Man
34,976033,DepthScenes,duration_manipulation_targetAtFixation,jsons/VE125_randls_45_rotated.json,http://54.235.29.9/FacialAge/BNav_EC2/DepthDuration/v2_depth_duration_MTurk/v2_DepthDuration_HTML.html#103,103,1366,657,1366,768,8-21-2022,7-51-50,35,depth_duration_stimuli/002545_2014-06-24_13-38-53_094959634447_rgbf000080-resize_4/002545_2014-06-24_13-38-53_094959634447_rgbf000080-resize_4-target.png,125,1.9205,3,1771,123,meters,jsons/VE125_randls_45_rotated.json,641632,1360890,32,Man
35,976033,DepthScenes,duration_manipulation_targetAtFixation,jsons/VE125_randls_45_rotated.json,http://54.235.29.9/FacialAge/BNav_EC2/DepthDuration/v2_depth_duration_MTurk/v2_DepthDuration_HTML.html#103,103,1366,657,1366,768,8-21-2022,7-51-50,36,depth_duration_stimuli/001092_2014-06-15_17-34-58_260595134347_rgbf000171-resize_3/001092_2014-06-15_17-34-58_260595134347_rgbf000171-resize_3-target.png,125,2.6935,2,2217,132,meters,jsons/VE125_randls_45_rotated.json,641632,1360890,32,Man
36,976033,DepthScenes,duration_manipulation_targetAtFixation,jsons/VE125_randls_45_rotated.json,http://54.235.29.9/FacialAge/BNav_EC2/DepthDuration/v2_depth_duration_MTurk/v2_DepthDuration_HTML.html#103,103,1366,657,1366,768,8-21-2022,7-51-50,37,depth_duration_stimuli/001447_2014-06-19_17-00-32_260595134347_rgbf000082-resize_5/001447_2014-06-19_17-00-32_260595134347_rgbf000082-resize_5-target.png,125,4.13775,3,1545,122,meters,jsons/VE125_randls_45_rotated.json,641632,1360890,32,Man
37,976033,DepthScenes,duration_manipulation_targetAtFixation,jsons/VE125_randls_45_rotated.json,http://54.235.29.9/FacialAge/BNav_EC2/DepthDuration/v2_depth_duration_MTurk/v2_DepthDuration_HTML.html#103,103,1366,657,1366,768,8-21-2022,7-51-50,38,depth_duration_stimuli/000447_2014-06-08_16-15-46_260595134347_rgbf000130-resize_1/000447_2014-06-08_16-15-46_260595134347_rgbf000130-resize_1-target.png,125,4.479,3,1570,129,meters,jsons/VE125_randls_45_rotated.json,641632,1360890,32,Man
38,976033,DepthScenes,duration_manipulation_targetAtFixation,jsons/VE125_randls_45_rotated.json,http://54.235.29.9/FacialAge/BNav_EC2/DepthDuration/v2_depth_duration_MTurk/v2_DepthDuration_HTML.html#103,103,1366,657,1366,768,8-21-2022,7-51-50,39,depth_duration_stimuli/002660_2014-06-13_15-44-18_094959634447_rgbf001878-resize_2/002660_2014-06-13_15-44-18_094959634447_rgbf001878-resize_2-target.png,125,3.576,2,1663,120,meters,jsons/VE125_randls_45_rotated.json,641632,1360890,32,Man
39,976033,DepthScenes,duration_manipulation_targetAtFixation,jsons/VE125_randls_45_rotated.json,http://54.235.29.9/FacialAge/BNav_EC2/DepthDuration/v2_depth_duration_MTurk/v2_DepthDuration_HTML.html#103,103,1366,657,1366,768,8-21-2022,7-51-50,40,depth_duration_stimuli/002153_2014-06-25_21-27-18_260595134347_rgbf000038-resize_5/002153_2014-06-25_21-27-18_260595134347_rgbf000038-resize_5-target.png,125,2.505,3,1803,128,meters,jsons/VE125_randls_45_rotated.json,641632,1360890,32,Man
40,976033,DepthScenes,duration_manipulation_targetAtFixation,jsons/VE125_randls_45_rotated.json,http://54.235.29.9/FacialAge/BNav_EC2/DepthDuration/v2_depth_duration_MTurk/v2_DepthDuration_HTML.html#103,103,1366,657,1366,768,8-21-2022,7-51-50,41,depth_duration_stimuli/000635_2014-06-08_16-38-42_260595134347_rgbf000106-resize_1/000635_2014-06-08_16-38-42_260595134347_rgbf000106-resize_1-target.png,125,2.074,3,1736,126,meters,jsons/VE125_randls_45_rotated.json,641632,1360890,32,Man
41,976033,DepthScenes,duration_manipulation_targetAtFixation,jsons/VE125_randls_45_rotated.json,http://54.235.29.9/FacialAge/BNav_EC2/DepthDuration/v2_depth_duration_MTurk/v2_DepthDuration_HTML.html#103,103,1366,657,1366,768,8-21-2022,7-51-50,42,depth_duration_stimuli/002279_2014-06-28_18-55-32_260595134347_rgbf000040-resize_5/002279_2014-06-28_18-55-32_260595134347_rgbf000040-resize_5-target.png,125,1.5043333333333,2,1649,111,meters,jsons/VE125_randls_45_rotated.json,641632,1360890,32,Man
42,976033,DepthScenes,duration_manipulation_targetAtFixation,jsons/VE125_randls_45_rotated.json,http://54.235.29.9/FacialAge/BNav_EC2/DepthDuration/v2_depth_duration_MTurk/v2_DepthDuration_HTML.html#103,103,1366,657,1366,768,8-21-2022,7-51-50,43,depth_duration_stimuli/003587_2014-05-23_16-48-02_094959634447_rgbf002384-resize_2/003587_2014-05-23_16-48-02_094959634447_rgbf002384-resize_2-target.png,125,1.357,3,1487,123,meters,jsons/VE125_randls_45_rotated.json,641632,1360890,32,Man
43,976033,DepthScenes,duration_manipulation_targetAtFixation,jsons/VE125_randls_45_rotated.json,http://54.235.29.9/FacialAge/BNav_EC2/DepthDuration/v2_depth_duration_MTurk/v2_DepthDuration_HTML.html#103,103,1366,657,1366,768,8-21-2022,7-51-50,44,depth_duration_stimuli/001167_2014-06-17_15-38-07_260595134347_rgbf000108-resize_0/001167_2014-06-17_15-38-07_260595134347_rgbf000108-resize_0-target.png,125,1.8505,3,1536,123,meters,jsons/VE125_randls_45_rotated.json,641632,1360890,32,Man
44,976033,DepthScenes,duration_manipulation_targetAtFixation,jsons/VE125_randls_45_rotated.json,http://54.235.29.9/FacialAge/BNav_EC2/DepthDuration/v2_depth_duration_MTurk/v2_DepthDuration_HTML.html#103,103,1366,657,1366,768,8-21-2022,7-51-50,45,depth_duration_stimuli/002199_2014-06-28_18-33-56_260595134347_rgbf000074-resize_0/002199_2014-06-28_18-33-56_260595134347_rgbf000074-resize_0-target.png,125,1.996,3,2468,130,meters,jsons/VE125_randls_45_rotated.json,641632,1360890,32,Man
45,976033,DepthScenes,duration_manipulation_targetAtFixation,jsons/VE125_randls_45_rotated.json,http://54.235.29.9/FacialAge/BNav_EC2/DepthDuration/v2_depth_duration_MTurk/v2_DepthDuration_HTML.html#103,103,1366,657,1366,768,8-21-2022,7-51-50,46,depth_duration_stimuli/001056_2014-06-08_18-46-44_260595134347_rgbf000068-resize_0/001056_2014-06-08_18-46-44_260595134347_rgbf000068-resize_0-target.png,125,2.6625,2,1733,121,meters,jsons/VE125_randls_45_rotated.json,641632,1360890,32,Man
46,976033,DepthScenes,duration_manipulation_targetAtFixation,jsons/VE125_randls_45_rotated.json,http://54.235.29.9/FacialAge/BNav_EC2/DepthDuration/v2_depth_duration_MTurk/v2_DepthDuration_HTML.html#103,103,1366,657,1366,768,8-21-2022,7-51-50,47,depth_duration_stimuli/002136_2014-06-25_21-18-03_260595134347_rgbf000109-resize_3/002136_2014-06-25_21-18-03_260595134347_rgbf000109-resize_3-target.png,125,1.9569999999999999,2,1561,121,meters,jsons/VE125_randls_45_rotated.json,641632,1360890,32,Man
47,976033,DepthScenes,duration_manipulation_targetAtFixation,jsons/VE125_randls_45_rotated.json,http://54.235.29.9/FacialAge/BNav_EC2/DepthDuration/v2_depth_duration_MTurk/v2_DepthDuration_HTML.html#103,103,1366,657,1366,768,8-21-2022,7-51-50,48,depth_duration_stimuli/002964_2014-06-08_17-46-11_094959634447_rgbf000091-resize_4/002964_2014-06-08_17-46-11_094959634447_rgbf000091-resize_4-target.png,125,1.6909999999999998,33,1543,120,meters,jsons/VE125_randls_45_rotated.json,641632,1360890,32,Man
48,976033,DepthScenes,duration_manipulation_targetAtFixation,jsons/VE125_randls_45_rotated.json,http://54.235.29.9/FacialAge/BNav_EC2/DepthDuration/v2_depth_duration_MTurk/v2_DepthDuration_HTML.html#103,103,1366,657,1366,768,8-21-2022,7-51-50,49,depth_duration_stimuli/001170_2014-06-17_15-43-44_260595134347_rgbf000096-resize_6/001170_2014-06-17_15-43-44_260595134347_rgbf000096-resize-original.jpg,125,1.1909999999999998,3,1524,129,meters,jsons/VE125_randls_45_rotated.json,641632,1360890,32,Man
49,976033,DepthScenes,duration_manipulation_targetAtFixation,jsons/VE125_randls_45_rotated.json,http://54.235.29.9/FacialAge/BNav_EC2/DepthDuration/v2_depth_duration_MTurk/v2_DepthDuration_HTML.html#103,103,1366,657,1366,768,8-21-2022,7-51-50,50,depth_duration_stimuli/000483_2014-06-09_20-41-45_260595134347_rgbf000116-resize_4/000483_2014-06-09_20-41-45_260595134347_rgbf000116-resize_4-target.png,125,1.337,2,29271,109,meters,jsons/VE125_randls_45_rotated.json,641632,1360890,32,Man
50,976033,DepthScenes,duration_manipulation_targetAtFixation,jsons/VE125_randls_45_rotated.json,http://54.235.29.9/FacialAge/BNav_EC2/DepthDuration/v2_depth_duration_MTurk/v2_DepthDuration_HTML.html#103,103,1366,657,1366,768,8-21-2022,7-51-50,51,depth_duration_stimuli/000469_2014-06-09_19-42-10_260595134347_rgbf000081-resize_1/000469_2014-06-09_19-42-10_260595134347_rgbf000081-resize_1-target.png,125,1.652,2,2087,123,meters,jsons/VE125_randls_45_rotated.json,641632,1360890,32,Man
51,976033,DepthScenes,duration_manipulation_targetAtFixation,jsons/VE125_randls_45_rotated.json,http://54.235.29.9/FacialAge/BNav_EC2/DepthDuration/v2_depth_duration_MTurk/v2_DepthDuration_HTML.html#103,103,1366,657,1366,768,8-21-2022,7-51-50,52,depth_duration_stimuli/000549_2014-06-08_22-10-24_260595134347_rgbf000247-resize_3/000549_2014-06-08_22-10-24_260595134347_rgbf000247-resize_3-target.png,125,1.841,1,2116,129,meters,jsons/VE125_randls_45_rotated.json,641632,1360890,32,Man
52,976033,DepthScenes,duration_manipulation_targetAtFixation,jsons/VE125_randls_45_rotated.json,http://54.235.29.9/FacialAge/BNav_EC2/DepthDuration/v2_depth_duration_MTurk/v2_DepthDuration_HTML.html#103,103,1366,657,1366,768,8-21-2022,7-51-50,53,depth_duration_stimuli/001055_2014-06-08_18-45-35_260595134347_rgbf000111-resize_4/001055_2014-06-08_18-45-35_260595134347_rgbf000111-resize_4-target.png,125,2.4290000000000003,3,2000,125,meters,jsons/VE125_randls_45_rotated.json,641632,1360890,32,Man
53,976033,DepthScenes,duration_manipulation_targetAtFixation,jsons/VE125_randls_45_rotated.json,http://54.235.29.9/FacialAge/BNav_EC2/DepthDuration/v2_depth_duration_MTurk/v2_DepthDuration_HTML.html#103,103,1366,657,1366,768,8-21-2022,7-51-50,54,depth_duration_stimuli/002323_2014-06-28_20-01-54_260595134347_rgbf000051-resize_4/002323_2014-06-28_20-01-54_260595134347_rgbf000051-resize_4-target.png,125,3.7310000000000003,2,1729,124,meters,jsons/VE125_randls_45_rotated.json,641632,1360890,32,Man
54,976033,DepthScenes,duration_manipulation_targetAtFixation,jsons/VE125_randls_45_rotated.json,http://54.235.29.9/FacialAge/BNav_EC2/DepthDuration/v2_depth_duration_MTurk/v2_DepthDuration_HTML.html#103,103,1366,657,1366,768,8-21-2022,7-51-50,55,depth_duration_stimuli/000917_2014-06-09_22-45-29_260595134347_rgbf000149-resize_3/000917_2014-06-09_22-45-29_260595134347_rgbf000149-resize_3-target.png,125,4.1865,2,2035,127,meters,jsons/VE125_randls_45_rotated.json,641632,1360890,32,Man
55,976033,DepthScenes,duration_manipulation_targetAtFixation,jsons/VE125_randls_45_rotated.json,http://54.235.29.9/FacialAge/BNav_EC2/DepthDuration/v2_depth_duration_MTurk/v2_DepthDuration_HTML.html#103,103,1366,657,1366,768,8-21-2022,7-51-50,56,depth_duration_stimuli/002758_2014-06-22_19-11-20_094959634447_rgbf000128-resize_1/002758_2014-06-22_19-11-20_094959634447_rgbf000128-resize_1-target.png,125,2.555,1,1729,125,meters,jsons/VE125_randls_45_rotated.json,641632,1360890,32,Man
56,976033,DepthScenes,duration_manipulation_targetAtFixation,jsons/VE125_randls_45_rotated.json,http://54.235.29.9/FacialAge/BNav_EC2/DepthDuration/v2_depth_duration_MTurk/v2_DepthDuration_HTML.html#103,103,1366,657,1366,768,8-21-2022,7-51-50,57,depth_duration_stimuli/002630_2014-06-24_14-47-50_094959634447_rgbf000055-resize_1/002630_2014-06-24_14-47-50_094959634447_rgbf000055-resize_1-target.png,125,3.0095,2,1977,124,meters,jsons/VE125_randls_45_rotated.json,641632,1360890,32,Man
57,976033,DepthScenes,duration_manipulation_targetAtFixation,jsons/VE125_randls_45_rotated.json,http://54.235.29.9/FacialAge/BNav_EC2/DepthDuration/v2_depth_duration_MTurk/v2_DepthDuration_HTML.html#103,103,1366,657,1366,768,8-21-2022,7-51-50,58,depth_duration_stimuli/002340_2014-06-28_20-05-46_260595134347_rgbf000113-resize_0/002340_2014-06-28_20-05-46_260595134347_rgbf000113-resize_0-target.png,125,2.4735,2,1536,126,meters,jsons/VE125_randls_45_rotated.json,641632,1360890,32,Man
58,976033,DepthScenes,duration_manipulation_targetAtFixation,jsons/VE125_randls_45_rotated.json,http://54.235.29.9/FacialAge/BNav_EC2/DepthDuration/v2_depth_duration_MTurk/v2_DepthDuration_HTML.html#103,103,1366,657,1366,768,8-21-2022,7-51-50,59,depth_duration_stimuli/001016_2014-06-09_16-16-10_260595134347_rgbf000112-resize_5/001016_2014-06-09_16-16-10_260595134347_rgbf000112-resize_5-target.png,125,1.6565,3,2090,130,meters,jsons/VE125_randls_45_rotated.json,641632,1360890,32,Man
59,976033,DepthScenes,duration_manipulation_targetAtFixation,jsons/VE125_randls_45_rotated.json,http://54.235.29.9/FacialAge/BNav_EC2/DepthDuration/v2_depth_duration_MTurk/v2_DepthDuration_HTML.html#103,103,1366,657,1366,768,8-21-2022,7-51-50,60,depth_duration_stimuli/000502_2014-06-08_23-02-32_260595134347_rgbf000063-resize_4/000502_2014-06-08_23-02-32_260595134347_rgbf000063-resize_4-target.png,125,2.431,2,1924,108,meters,jsons/VE125_randls_45_rotated.json,641632,1360890,32,Man
60,976033,DepthScenes,duration_manipulation_targetAtFixation,jsons/VE125_randls_45_rotated.json,http://54.235.29.9/FacialAge/BNav_EC2/DepthDuration/v2_depth_duration_MTurk/v2_DepthDuration_HTML.html#103,103,1366,657,1366,768,8-21-2022,7-51-50,61,depth_duration_stimuli/001199_2014-06-17_16-03-48_260595134347_rgbf000077-resize_0/001199_2014-06-17_16-03-48_260595134347_rgbf000077-resize_0-target.png,125,3.4375,1,1987,127,meters,jsons/VE125_randls_45_rotated.json,641632,1360890,32,Man
61,976033,DepthScenes,duration_manipulation_targetAtFixation,jsons/VE125_randls_45_rotated.json,http://54.235.29.9/FacialAge/BNav_EC2/DepthDuration/v2_depth_duration_MTurk/v2_DepthDuration_HTML.html#103,103,1366,657,1366,768,8-21-2022,7-51-50,62,depth_duration_stimuli/003490_2014-05-21_15-50-11_094959634447_rgbf000101-resize_3/003490_2014-05-21_15-50-11_094959634447_rgbf000101-resize_3-target.png,125,3.6445,2,1521,132,meters,jsons/VE125_randls_45_rotated.json,641632,1360890,32,Man
62,976033,DepthScenes,duration_manipulation_targetAtFixation,jsons/VE125_randls_45_rotated.json,http://54.235.29.9/FacialAge/BNav_EC2/DepthDuration/v2_depth_duration_MTurk/v2_DepthDuration_HTML.html#103,103,1366,657,1366,768,8-21-2022,7-51-50,63,depth_duration_stimuli/001175_2014-06-17_15-45-55_260595134347_rgbf000129-resize_4/001175_2014-06-17_15-45-55_260595134347_rgbf000129-resize_4-target.png,125,4.255,2,1696,120,meters,jsons/VE125_randls_45_rotated.json,641632,1360890,32,Man
63,976033,DepthScenes,duration_manipulation_targetAtFixation,jsons/VE125_randls_45_rotated.json,http://54.235.29.9/FacialAge/BNav_EC2/DepthDuration/v2_depth_duration_MTurk/v2_DepthDuration_HTML.html#103,103,1366,657,1366,768,8-21-2022,7-51-50,64,depth_duration_stimuli/000191_2014-05-12_17-07-38_260595134347_rgbf000199-resize_0/000191_2014-05-12_17-07-38_260595134347_rgbf000199-resize_0-target.png,125,3.7995,2,1597,123,meters,jsons/VE125_randls_45_rotated.json,641632,1360890,32,Man
64,976033,DepthScenes,duration_manipulation_targetAtFixation,jsons/VE125_randls_45_rotated.json,http://54.235.29.9/FacialAge/BNav_EC2/DepthDuration/v2_depth_duration_MTurk/v2_DepthDuration_HTML.html#103,103,1366,657,1366,768,8-21-2022,7-51-50,65,depth_duration_stimuli/000493_2014-06-09_21-01-18_260595134347_rgbf000196-resize_3/000493_2014-06-09_21-01-18_260595134347_rgbf000196-resize_3-target.png,125,3.44,3,2181,119,meters,jsons/VE125_randls_45_rotated.json,641632,1360890,32,Man
65,976033,DepthScenes,duration_manipulation_targetAtFixation,jsons/VE125_randls_45_rotated.json,http://54.235.29.9/FacialAge/BNav_EC2/DepthDuration/v2_depth_duration_MTurk/v2_DepthDuration_HTML.html#103,103,1366,657,1366,768,8-21-2022,7-51-50,66,depth_duration_stimuli/001540_2014-06-20_17-01-05_260595134347_rgbf000086-resize_2/001540_2014-06-20_17-01-05_260595134347_rgbf000086-resize-original.jpg,125,1.459,2,1976,116,meters,jsons/VE125_randls_45_rotated.json,641632,1360890,32,Man
66,976033,DepthScenes,duration_manipulation_targetAtFixation,jsons/VE125_randls_45_rotated.json,http://54.235.29.9/FacialAge/BNav_EC2/DepthDuration/v2_depth_duration_MTurk/v2_DepthDuration_HTML.html#103,103,1366,657,1366,768,8-21-2022,7-51-50,67,depth_duration_stimuli/001392_2014-06-19_16-07-59_260595134347_rgbf000046-resize_1/001392_2014-06-19_16-07-59_260595134347_rgbf000046-resize_1-target.png,125,4.135,2,1465,128,meters,jsons/VE125_randls_45_rotated.json,641632,1360890,32,Man
67,976033,DepthScenes,duration_manipulation_targetAtFixation,jsons/VE125_randls_45_rotated.json,http://54.235.29.9/FacialAge/BNav_EC2/DepthDuration/v2_depth_duration_MTurk/v2_DepthDuration_HTML.html#103,103,1366,657,1366,768,8-21-2022,7-51-50,68,depth_duration_stimuli/001570_2014-06-20_17-21-09_260595134347_rgbf000135-resize_4/001570_2014-06-20_17-21-09_260595134347_rgbf000135-resize_4-target.png,125,4.467,2,1813,119,meters,jsons/VE125_randls_45_rotated.json,641632,1360890,32,Man
68,976033,DepthScenes,duration_manipulation_targetAtFixation,jsons/VE125_randls_45_rotated.json,http://54.235.29.9/FacialAge/BNav_EC2/DepthDuration/v2_depth_duration_MTurk/v2_DepthDuration_HTML.html#103,103,1366,657,1366,768,8-21-2022,7-51-50,69,depth_duration_stimuli/000734_2014-06-08_17-39-11_260595134347_rgbf000128-resize_2/000734_2014-06-08_17-39-11_260595134347_rgbf000128-resize_2-target.png,125,4.098,3,2043,128,meters,jsons/VE125_randls_45_rotated.json,641632,1360890,32,Man
69,976033,DepthScenes,duration_manipulation_targetAtFixation,jsons/VE125_randls_45_rotated.json,http://54.235.29.9/FacialAge/BNav_EC2/DepthDuration/v2_depth_duration_MTurk/v2_DepthDuration_HTML.html#103,103,1366,657,1366,768,8-21-2022,7-51-50,70,depth_duration_stimuli/000739_2014-06-08_18-45-58_260595134347_rgbf000068-resize_1/000739_2014-06-08_18-45-58_260595134347_rgbf000068-resize_1-target.png,125,3.534,3,23225,124,meters,jsons/VE125_randls_45_rotated.json,641632,1360890,32,Man
70,976033,DepthScenes,duration_manipulation_targetAtFixation,jsons/VE125_randls_45_rotated.json,http://54.235.29.9/FacialAge/BNav_EC2/DepthDuration/v2_depth_duration_MTurk/v2_DepthDuration_HTML.html#103,103,1366,657,1366,768,8-21-2022,7-51-50,71,depth_duration_stimuli/003338_2014-05-20_11-01-23_094959634447_rgbf000051-resize_6/003338_2014-05-20_11-01-23_094959634447_rgbf000051-resize_6-target.png,125,1.693,2,1546,117,meters,jsons/VE125_randls_45_rotated.json,641632,1360890,32,Man
71,976033,DepthScenes,duration_manipulation_targetAtFixation,jsons/VE125_randls_45_rotated.json,http://54.235.29.9/FacialAge/BNav_EC2/DepthDuration/v2_depth_duration_MTurk/v2_DepthDuration_HTML.html#103,103,1366,657,1366,768,8-21-2022,7-51-50,72,depth_duration_stimuli/002509_2014-06-24_13-19-22_094959634447_rgbf000077-resize_0/002509_2014-06-24_13-19-22_094959634447_rgbf000077-resize_0-target.png,125,1.3065,2,1541,126,meters,jsons/VE125_randls_45_rotated.json,641632,1360890,32,Man
72,976033,DepthScenes,duration_manipulation_targetAtFixation,jsons/VE125_randls_45_rotated.json,http://54.235.29.9/FacialAge/BNav_EC2/DepthDuration/v2_depth_duration_MTurk/v2_DepthDuration_HTML.html#103,103,1366,657,1366,768,8-21-2022,7-51-50,73,depth_duration_stimuli/001100_2014-06-15_17-46-26_260595134347_rgbf000225-resize_2/001100_2014-06-15_17-46-26_260595134347_rgbf000225-resize_2-target.png,125,2.24,3,2019,124,meters,jsons/VE125_randls_45_rotated.json,641632,1360890,32,Man
73,976033,DepthScenes,duration_manipulation_targetAtFixation,jsons/VE125_randls_45_rotated.json,http://54.235.29.9/FacialAge/BNav_EC2/DepthDuration/v2_depth_duration_MTurk/v2_DepthDuration_HTML.html#103,103,1366,657,1366,768,8-21-2022,7-51-50,74,depth_duration_stimuli/002784_2014-06-22_19-26-30_094959634447_rgbf000083-resize_3/002784_2014-06-22_19-26-30_094959634447_rgbf000083-resize_3-target.png,125,1.8046666666667,0,2879,124,meters,jsons/VE125_randls_45_rotated.json,641632,1360890,32,Man
74,976033,DepthScenes,duration_manipulation_targetAtFixation,jsons/VE125_randls_45_rotated.json,http://54.235.29.9/FacialAge/BNav_EC2/DepthDuration/v2_depth_duration_MTurk/v2_DepthDuration_HTML.html#103,103,1366,657,1366,768,8-21-2022,7-51-50,75,depth_duration_stimuli/003010_2014-06-15_12-54-35_094959634447_rgbf000112-resize_0/003010_2014-06-15_12-54-35_094959634447_rgbf000112-resize_0-target.png,125,3.1185,0,3129,116,meters,jsons/VE125_randls_45_rotated.json,641632,1360890,32,Man
75,976033,DepthScenes,duration_manipulation_targetAtFixation,jsons/VE125_randls_45_rotated.json,http://54.235.29.9/FacialAge/BNav_EC2/DepthDuration/v2_depth_duration_MTurk/v2_DepthDuration_HTML.html#103,103,1366,657,1366,768,8-21-2022,7-51-50,76,depth_duration_stimuli/001810_2014-06-26_20-51-35_260595134347_rgbf000040-resize_3/001810_2014-06-26_20-51-35_260595134347_rgbf000040-resize_3-target.png,125,2.2525,2,2885,113,meters,jsons/VE125_randls_45_rotated.json,641632,1360890,32,Man
76,976033,DepthScenes,duration_manipulation_targetAtFixation,jsons/VE125_randls_45_rotated.json,http://54.235.29.9/FacialAge/BNav_EC2/DepthDuration/v2_depth_duration_MTurk/v2_DepthDuration_HTML.html#103,103,1366,657,1366,768,8-21-2022,7-51-50,77,depth_duration_stimuli/002657_2014-06-13_15-29-54_094959634447_rgbf000150-resize_1/002657_2014-06-13_15-29-54_094959634447_rgbf000150-resize_1-target.png,125,4.919,3,1995,128,meters,jsons/VE125_randls_45_rotated.json,641632,1360890,32,Man
77,976033,DepthScenes,duration_manipulation_targetAtFixation,jsons/VE125_randls_45_rotated.json,http://54.235.29.9/FacialAge/BNav_EC2/DepthDuration/v2_depth_duration_MTurk/v2_DepthDuration_HTML.html#103,103,1366,657,1366,768,8-21-2022,7-51-50,78,depth_duration_stimuli/002375_2014-06-28_20-13-44_260595134347_rgbf000032-resize_1/002375_2014-06-28_20-13-44_260595134347_rgbf000032-resize_1-target.png,125,4.0175,2,2882,130,meters,jsons/VE125_randls_45_rotated.json,641632,1360890,32,Man
78,976033,DepthScenes,duration_manipulation_targetAtFixation,jsons/VE125_randls_45_rotated.json,http://54.235.29.9/FacialAge/BNav_EC2/DepthDuration/v2_depth_duration_MTurk/v2_DepthDuration_HTML.html#103,103,1366,657,1366,768,8-21-2022,7-51-50,79,depth_duration_stimuli/003081_2014-06-15_15-19-16_094959634447_rgbf000150-resize_1/003081_2014-06-15_15-19-16_094959634447_rgbf000150-resize_1-target.png,125,3.9125,3,2024,121,meters,jsons/VE125_randls_45_rotated.json,641632,1360890,32,Man
79,976033,DepthScenes,duration_manipulation_targetAtFixation,jsons/VE125_randls_45_rotated.json,http://54.235.29.9/FacialAge/BNav_EC2/DepthDuration/v2_depth_duration_MTurk/v2_DepthDuration_HTML.html#103,103,1366,657,1366,768,8-21-2022,7-51-50,80,depth_duration_stimuli/001417_2014-06-19_16-25-36_260595134347_rgbf000115-resize_5/001417_2014-06-19_16-25-36_260595134347_rgbf000115-resize_5-target.png,125,4.6255,3,2740,115,meters,jsons/VE125_randls_45_rotated.json,641632,1360890,32,Man
80,976033,DepthScenes,duration_manipulation_targetAtFixation,jsons/VE125_randls_45_rotated.json,http://54.235.29.9/FacialAge/BNav_EC2/DepthDuration/v2_depth_duration_MTurk/v2_DepthDuration_HTML.html#103,103,1366,657,1366,768,8-21-2022,7-51-50,81,depth_duration_stimuli/000409_2014-06-04_19-23-33_260595134347_rgbf000067-resize_0/000409_2014-06-04_19-23-33_260595134347_rgbf000067-resize_0-target.png,125,3.7335,4,1897,122,meters,jsons/VE125_randls_45_rotated.json,641632,1360890,32,Man
81,976033,DepthScenes,duration_manipulation_targetAtFixation,jsons/VE125_randls_45_rotated.json,http://54.235.29.9/FacialAge/BNav_EC2/DepthDuration/v2_depth_duration_MTurk/v2_DepthDuration_HTML.html#103,103,1366,657,1366,768,8-21-2022,7-51-50,82,depth_duration_stimuli/002663_2014-06-13_15-50-26_094959634447_rgbf000075-resize_1/002663_2014-06-13_15-50-26_094959634447_rgbf000075-resize_1-target.png,125,4.7495,4,2036,124,meters,jsons/VE125_randls_45_rotated.json,641632,1360890,32,Man
82,976033,DepthScenes,duration_manipulation_targetAtFixation,jsons/VE125_randls_45_rotated.json,http://54.235.29.9/FacialAge/BNav_EC2/DepthDuration/v2_depth_duration_MTurk/v2_DepthDuration_HTML.html#103,103,1366,657,1366,768,8-21-2022,7-51-50,83,depth_duration_stimuli/000109_2014-05-14_23-41-52_260595134347_rgbf000035-resize_9/000109_2014-05-14_23-41-52_260595134347_rgbf000035-resize_9-target.png,125,1.3545,1,1995,114,meters,jsons/VE125_randls_45_rotated.json,641632,1360890,32,Man
83,976033,DepthScenes,duration_manipulation_targetAtFixation,jsons/VE125_randls_45_rotated.json,http://54.235.29.9/FacialAge/BNav_EC2/DepthDuration/v2_depth_duration_MTurk/v2_DepthDuration_HTML.html#103,103,1366,657,1366,768,8-21-2022,7-51-50,84,depth_duration_stimuli/000470_2014-06-09_19-42-40_260595134347_rgbf000094-resize_1/000470_2014-06-09_19-42-40_260595134347_rgbf000094-resize_1-target.png,125,1.831,2,1942,121,meters,jsons/VE125_randls_45_rotated.json,641632,1360890,32,Man
84,976033,DepthScenes,duration_manipulation_targetAtFixation,jsons/VE125_randls_45_rotated.json,http://54.235.29.9/FacialAge/BNav_EC2/DepthDuration/v2_depth_duration_MTurk/v2_DepthDuration_HTML.html#103,103,1366,657,1366,768,8-21-2022,7-51-50,85,depth_duration_stimuli/000854_2014-06-09_19-43-13_260595134347_rgbf000066-resize_0/000854_2014-06-09_19-43-13_260595134347_rgbf000066-resize_0-target.png,125,3.068,2,1867,141,meters,jsons/VE125_randls_45_rotated.json,641632,1360890,32,Man
85,976033,DepthScenes,duration_manipulation_targetAtFixation,jsons/VE125_randls_45_rotated.json,http://54.235.29.9/FacialAge/BNav_EC2/DepthDuration/v2_depth_duration_MTurk/v2_DepthDuration_HTML.html#103,103,1366,657,1366,768,8-21-2022,7-51-50,86,depth_duration_stimuli/000758_2014-06-08_22-05-08_260595134347_rgbf000085-resize_0/000758_2014-06-08_22-05-08_260595134347_rgbf000085-resize_0-target.png,125,3.3810000000000002,2,1738,124,meters,jsons/VE125_randls_45_rotated.json,641632,1360890,32,Man
86,976033,DepthScenes,duration_manipulation_targetAtFixation,jsons/VE125_randls_45_rotated.json,http://54.235.29.9/FacialAge/BNav_EC2/DepthDuration/v2_depth_duration_MTurk/v2_DepthDuration_HTML.html#103,103,1366,657,1366,768,8-21-2022,7-51-50,87,depth_duration_stimuli/002750_2014-06-22_19-08-03_094959634447_rgbf000094-resize_4/002750_2014-06-22_19-08-03_094959634447_rgbf000094-resize_4-target.png,125,2.354,0,3150,128,meters,jsons/VE125_randls_45_rotated.json,641632,1360890,32,Man
87,976033,DepthScenes,duration_manipulation_targetAtFixation,jsons/VE125_randls_45_rotated.json,http://54.235.29.9/FacialAge/BNav_EC2/DepthDuration/v2_depth_duration_MTurk/v2_DepthDuration_HTML.html#103,103,1366,657,1366,768,8-21-2022,7-51-50,88,depth_duration_stimuli/002549_2014-06-24_13-41-39_094959634447_rgbf000022-resize_3/002549_2014-06-24_13-41-39_094959634447_rgbf000022-resize_3-target.png,125,1.476,0,3100,128,meters,jsons/VE125_randls_45_rotated.json,641632,1360890,32,Man
88,976033,DepthScenes,duration_manipulation_targetAtFixation,jsons/VE125_randls_45_rotated.json,http://54.235.29.9/FacialAge/BNav_EC2/DepthDuration/v2_depth_duration_MTurk/v2_DepthDuration_HTML.html#103,103,1366,657,1366,768,8-21-2022,7-51-50,89,depth_duration_stimuli/002103_2014-06-25_20-00-40_260595134347_rgbf000049-resize_0/002103_2014-06-25_20-00-40_260595134347_rgbf000049-resize_0-target.png,125,4.105,2,6262,124,meters,jsons/VE125_randls_45_rotated.json,641632,1360890,32,Man
89,976033,DepthScenes,duration_manipulation_targetAtFixation,jsons/VE125_randls_45_rotated.json,http://54.235.29.9/FacialAge/BNav_EC2/DepthDuration/v2_depth_duration_MTurk/v2_DepthDuration_HTML.html#103,103,1366,657,1366,768,8-21-2022,7-51-50,90,depth_duration_stimuli/002039_2014-06-24_20-22-38_260595134347_rgbf000084-resize_1/002039_2014-06-24_20-22-38_260595134347_rgbf000084-resize_1-target.png,125,4.408,1,2305,134,meters,jsons/VE125_randls_45_rotated.json,641632,1360890,32,Man
90,976033,DepthScenes,duration_manipulation_targetAtFixation,jsons/VE125_randls_45_rotated.json,http://54.235.29.9/FacialAge/BNav_EC2/DepthDuration/v2_depth_duration_MTurk/v2_DepthDuration_HTML.html#103,103,1366,657,1366,768,8-21-2022,7-51-50,91,depth_duration_stimuli/002875_2014-06-01_15-19-00_094959634447_rgbf000151-resize_1/002875_2014-06-01_15-19-00_094959634447_rgbf000151-resize_1-target.png,125,1.9675,0,3057,127,meters,jsons/VE125_randls_45_rotated.json,641632,1360890,32,Man
91,976033,DepthScenes,duration_manipulation_targetAtFixation,jsons/VE125_randls_45_rotated.json,http://54.235.29.9/FacialAge/BNav_EC2/DepthDuration/v2_depth_duration_MTurk/v2_DepthDuration_HTML.html#103,103,1366,657,1366,768,8-21-2022,7-51-50,92,depth_duration_stimuli/001011_2014-06-08_23-18-54_260595134347_rgbf000044-resize_4/001011_2014-06-08_23-18-54_260595134347_rgbf000044-resize_4-target.png,125,2.4730000000000003,2,1695,126,meters,jsons/VE125_randls_45_rotated.json,641632,1360890,32,Man
92,976033,DepthScenes,duration_manipulation_targetAtFixation,jsons/VE125_randls_45_rotated.json,http://54.235.29.9/FacialAge/BNav_EC2/DepthDuration/v2_depth_duration_MTurk/v2_DepthDuration_HTML.html#103,103,1366,657,1366,768,8-21-2022,7-51-50,93,depth_duration_stimuli/001235_2014-06-17_16-37-36_260595134347_rgbf000084-resize_4/001235_2014-06-17_16-37-36_260595134347_rgbf000084-resize_4-target.png,125,3.6605,2,1910,135,meters,jsons/VE125_randls_45_rotated.json,641632,1360890,32,Man
93,976033,DepthScenes,duration_manipulation_targetAtFixation,jsons/VE125_randls_45_rotated.json,http://54.235.29.9/FacialAge/BNav_EC2/DepthDuration/v2_depth_duration_MTurk/v2_DepthDuration_HTML.html#103,103,1366,657,1366,768,8-21-2022,7-51-50,94,depth_duration_stimuli/000788_2014-06-08_22-34-36_260595134347_rgbf000131-resize_1/000788_2014-06-08_22-34-36_260595134347_rgbf000131-resize_1-target.png,125,3.359,2,2107,131,meters,jsons/VE125_randls_45_rotated.json,641632,1360890,32,Man
94,976033,DepthScenes,duration_manipulation_targetAtFixation,jsons/VE125_randls_45_rotated.json,http://54.235.29.9/FacialAge/BNav_EC2/DepthDuration/v2_depth_duration_MTurk/v2_DepthDuration_HTML.html#103,103,1366,657,1366,768,8-21-2022,7-51-50,95,depth_duration_stimuli/000457_2014-06-08_16-52-43_260595134347_rgbf000199-resize_1/000457_2014-06-08_16-52-43_260595134347_rgbf000199-resize_1-target.png,125,3.6489999999999996,1,1840,131,meters,jsons/VE125_randls_45_rotated.json,641632,1360890,32,Man
95,976033,DepthScenes,duration_manipulation_targetAtFixation,jsons/VE125_randls_45_rotated.json,http://54.235.29.9/FacialAge/BNav_EC2/DepthDuration/v2_depth_duration_MTurk/v2_DepthDuration_HTML.html#103,103,1366,657,1366,768,8-21-2022,7-51-50,96,depth_duration_stimuli/000929_2014-06-09_16-33-19_260595134347_rgbf000139-resize_0/000929_2014-06-09_16-33-19_260595134347_rgbf000139-resize_0-target.png,125,2.8680000000000003,2,1740,122,meters,jsons/VE125_randls_45_rotated.json,641632,1360890,32,Man
96,976033,DepthScenes,duration_manipulation_targetAtFixation,jsons/VE125_randls_45_rotated.json,http://54.235.29.9/FacialAge/BNav_EC2/DepthDuration/v2_depth_duration_MTurk/v2_DepthDuration_HTML.html#103,103,1366,657,1366,768,8-21-2022,7-51-50,97,depth_duration_stimuli/000691_2014-06-08_13-08-50_260595134347_rgbf000132-resize_3/000691_2014-06-08_13-08-50_260595134347_rgbf000132-resize_3-target.png,125,4.1530000000000005,2,1563,124,meters,jsons/VE125_randls_45_rotated.json,641632,1360890,32,Man
97,976033,DepthScenes,duration_manipulation_targetAtFixation,jsons/VE125_randls_45_rotated.json,http://54.235.29.9/FacialAge/BNav_EC2/DepthDuration/v2_depth_duration_MTurk/v2_DepthDuration_HTML.html#103,103,1366,657,1366,768,8-21-2022,7-51-50,98,depth_duration_stimuli/002213_2014-06-28_18-37-58_260595134347_rgbf000055-resize_1/002213_2014-06-28_18-37-58_260595134347_rgbf000055-resize_1-target.png,125,3.62,4,1896,129,meters,jsons/VE125_randls_45_rotated.json,641632,1360890,32,Man
98,976033,DepthScenes,duration_manipulation_targetAtFixation,jsons/VE125_randls_45_rotated.json,http://54.235.29.9/FacialAge/BNav_EC2/DepthDuration/v2_depth_duration_MTurk/v2_DepthDuration_HTML.html#103,103,1366,657,1366,768,8-21-2022,7-51-50,99,depth_duration_stimuli/001222_2014-06-17_16-24-06_260595134347_rgbf000073-resize_0/001222_2014-06-17_16-24-06_260595134347_rgbf000073-resize-original.jpg,125,1.4385,3,1587,129,meters,jsons/VE125_randls_45_rotated.json,641632,1360890,32,Man
99,976033,DepthScenes,duration_manipulation_targetAtFixation,jsons/VE125_randls_45_rotated.json,http://54.235.29.9/FacialAge/BNav_EC2/DepthDuration/v2_depth_duration_MTurk/v2_DepthDuration_HTML.html#103,103,1366,657,1366,768,8-21-2022,7-51-50,100,depth_duration_stimuli/003048_2014-06-15_13-49-43_094959634447_rgbf000150-resize_1/003048_2014-06-15_13-49-43_094959634447_rgbf000150-resize_1-target.png,125,4.0035,3,1819,127,meters,jsons/VE125_randls_45_rotated.json,641632,1360890,32,Man
100,976033,DepthScenes,duration_manipulation_targetAtFixation,jsons/VE125_randls_45_rotated.json,http://54.235.29.9/FacialAge/BNav_EC2/DepthDuration/v2_depth_duration_MTurk/v2_DepthDuration_HTML.html#103,103,1366,657,1366,768,8-21-2022,7-51-50,101,depth_duration_stimuli/002043_2014-06-24_20-29-38_260595134347_rgbf000039-resize_4/002043_2014-06-24_20-29-38_260595134347_rgbf000039-resize_4-target.png,125,2.8435,3,1845,120,meters,jsons/VE125_randls_45_rotated.json,641632,1360890,32,Man
101,976033,DepthScenes,duration_manipulation_targetAtFixation,jsons/VE125_randls_45_rotated.json,http://54.235.29.9/FacialAge/BNav_EC2/DepthDuration/v2_depth_duration_MTurk/v2_DepthDuration_HTML.html#103,103,1366,657,1366,768,8-21-2022,7-51-50,102,depth_duration_stimuli/001132_2014-06-17_14-48-54_260595134347_rgbf000100-resize_2/001132_2014-06-17_14-48-54_260595134347_rgbf000100-resize_2-target.png,125,3.753,4,1818,124,meters,jsons/VE125_randls_45_rotated.json,641632,1360890,32,Man
102,976033,DepthScenes,duration_manipulation_targetAtFixation,jsons/VE125_randls_45_rotated.json,http://54.235.29.9/FacialAge/BNav_EC2/DepthDuration/v2_depth_duration_MTurk/v2_DepthDuration_HTML.html#103,103,1366,657,1366,768,8-21-2022,7-51-50,103,depth_duration_stimuli/001133_2014-06-17_14-49-16_260595134347_rgbf000100-resize_0/001133_2014-06-17_14-49-16_260595134347_rgbf000100-resize_0-target.png,125,4.2115,2,1827,129,meters,jsons/VE125_randls_45_rotated.json,641632,1360890,32,Man
103,976033,DepthScenes,duration_manipulation_targetAtFixation,jsons/VE125_randls_45_rotated.json,http://54.235.29.9/FacialAge/BNav_EC2/DepthDuration/v2_depth_duration_MTurk/v2_DepthDuration_HTML.html#103,103,1366,657,1366,768,8-21-2022,7-51-50,104,depth_duration_stimuli/001650_2014-06-20_12-09-00_260595134347_rgbf000087-resize_3/001650_2014-06-20_12-09-00_260595134347_rgbf000087-resize_3-target.png,125,1.9505,2,1512,128,meters,jsons/VE125_randls_45_rotated.json,641632,1360890,32,Man
104,976033,DepthScenes,duration_manipulation_targetAtFixation,jsons/VE125_randls_45_rotated.json,http://54.235.29.9/FacialAge/BNav_EC2/DepthDuration/v2_depth_duration_MTurk/v2_DepthDuration_HTML.html#103,103,1366,657,1366,768,8-21-2022,7-51-50,105,depth_duration_stimuli/000682_2014-06-08_23-14-58_260595134347_rgbf000041-resize_5/000682_2014-06-08_23-14-58_260595134347_rgbf000041-resize_5-target.png,125,2.7239999999999998,2,1603,124,meters,jsons/VE125_randls_45_rotated.json,641632,1360890,32,Man
105,976033,DepthScenes,duration_manipulation_targetAtFixation,jsons/VE125_randls_45_rotated.json,http://54.235.29.9/FacialAge/BNav_EC2/DepthDuration/v2_depth_duration_MTurk/v2_DepthDuration_HTML.html#103,103,1366,657,1366,768,8-21-2022,7-51-50,106,depth_duration_stimuli/001214_2014-06-17_16-13-55_260595134347_rgbf000111-resize_0/001214_2014-06-17_16-13-55_260595134347_rgbf000111-resize_0-target.png,125,2.6505,2,2254,126,meters,jsons/VE125_randls_45_rotated.json,641632,1360890,32,Man
106,976033,DepthScenes,duration_manipulation_targetAtFixation,jsons/VE125_randls_45_rotated.json,http://54.235.29.9/FacialAge/BNav_EC2/DepthDuration/v2_depth_duration_MTurk/v2_DepthDuration_HTML.html#103,103,1366,657,1366,768,8-21-2022,7-51-50,107,depth_duration_stimuli/000810_2014-06-08_17-20-01_260595134347_rgbf000105-resize_0/000810_2014-06-08_17-20-01_260595134347_rgbf000105-resize_0-target.png,125,1.4865,3,1853,124,meters,jsons/VE125_randls_45_rotated.json,641632,1360890,32,Man
107,976033,DepthScenes,duration_manipulation_targetAtFixation,jsons/VE125_randls_45_rotated.json,http://54.235.29.9/FacialAge/BNav_EC2/DepthDuration/v2_depth_duration_MTurk/v2_DepthDuration_HTML.html#103,103,1366,657,1366,768,8-21-2022,7-51-50,108,depth_duration_stimuli/002444_2014-06-28_20-32-08_260595134347_rgbf000027-resize_0/002444_2014-06-28_20-32-08_260595134347_rgbf000027-resize_0-target.png,125,4.388999999999999,3,1617,122,meters,jsons/VE125_randls_45_rotated.json,641632,1360890,32,Man
108,976033,DepthScenes,duration_manipulation_targetAtFixation,jsons/VE125_randls_45_rotated.json,http://54.235.29.9/FacialAge/BNav_EC2/DepthDuration/v2_depth_duration_MTurk/v2_DepthDuration_HTML.html#103,103,1366,657,1366,768,8-21-2022,7-51-50,109,depth_duration_stimuli/000436_2014-06-09_22-25-11_260595134347_rgbf000137-resize_1/000436_2014-06-09_22-25-11_260595134347_rgbf000137-resize_1-target.png,125,4.0705,3,15252,112,meters,jsons/VE125_randls_45_rotated.json,641632,1360890,32,Man
109,976033,DepthScenes,duration_manipulation_targetAtFixation,jsons/VE125_randls_45_rotated.json,http://54.235.29.9/FacialAge/BNav_EC2/DepthDuration/v2_depth_duration_MTurk/v2_DepthDuration_HTML.html#103,103,1366,657,1366,768,8-21-2022,7-51-50,110,depth_duration_stimuli/002209_2014-06-28_18-36-10_260595134347_rgbf000051-resize_1/002209_2014-06-28_18-36-10_260595134347_rgbf000051-resize_1-target.png,125,2.057,2,3166,125,meters,jsons/VE125_randls_45_rotated.json,641632,1360890,32,Man
110,976033,DepthScenes,duration_manipulation_targetAtFixation,jsons/VE125_randls_45_rotated.json,http://54.235.29.9/FacialAge/BNav_EC2/DepthDuration/v2_depth_duration_MTurk/v2_DepthDuration_HTML.html#103,103,1366,657,1366,768,8-21-2022,7-51-50,111,depth_duration_stimuli/002763_2014-06-22_19-13-10_094959634447_rgbf000075-resize_4/002763_2014-06-22_19-13-10_094959634447_rgbf000075-resize_4-target.png,125,1.68375,2,1962,130,meters,jsons/VE125_randls_45_rotated.json,641632,1360890,32,Man
111,976033,DepthScenes,duration_manipulation_targetAtFixation,jsons/VE125_randls_45_rotated.json,http://54.235.29.9/FacialAge/BNav_EC2/DepthDuration/v2_depth_duration_MTurk/v2_DepthDuration_HTML.html#103,103,1366,657,1366,768,8-21-2022,7-51-50,112,depth_duration_stimuli/000749_2014-06-08_21-55-06_260595134347_rgbf000070-resize_2/000749_2014-06-08_21-55-06_260595134347_rgbf000070-resize_2-target.png,125,2.331,2,1521,129,meters,jsons/VE125_randls_45_rotated.json,641632,1360890,32,Man
112,976033,DepthScenes,duration_manipulation_targetAtFixation,jsons/VE125_randls_45_rotated.json,http://54.235.29.9/FacialAge/BNav_EC2/DepthDuration/v2_depth_duration_MTurk/v2_DepthDuration_HTML.html#103,103,1366,657,1366,768,8-21-2022,7-51-50,113,depth_duration_stimuli/002788_2014-06-22_19-36-03_094959634447_rgbf000088-resize_2/002788_2014-06-22_19-36-03_094959634447_rgbf000088-resize_2-target.png,125,1.6465,3,1738,120,meters,jsons/VE125_randls_45_rotated.json,641632,1360890,32,Man
113,976033,DepthScenes,duration_manipulation_targetAtFixation,jsons/VE125_randls_45_rotated.json,http://54.235.29.9/FacialAge/BNav_EC2/DepthDuration/v2_depth_duration_MTurk/v2_DepthDuration_HTML.html#103,103,1366,657,1366,768,8-21-2022,7-51-50,114,depth_duration_stimuli/003495_2014-05-21_16-01-51_094959634447_rgbf000100-resize_3/003495_2014-05-21_16-01-51_094959634447_rgbf000100-resize_3-target.png,125,1.6255,2,10028,124,meters,jsons/VE125_randls_45_rotated.json,641632,1360890,32,Man
114,976033,DepthScenes,duration_manipulation_targetAtFixation,jsons/VE125_randls_45_rotated.json,http://54.235.29.9/FacialAge/BNav_EC2/DepthDuration/v2_depth_duration_MTurk/v2_DepthDuration_HTML.html#103,103,1366,657,1366,768,8-21-2022,7-51-50,115,depth_duration_stimuli/001244_2014-06-17_16-47-45_260595134347_rgbf000030-resize_4/001244_2014-06-17_16-47-45_260595134347_rgbf000030-resize_4-target.png,125,2.0425,2,1874,128,meters,jsons/VE125_randls_45_rotated.json,641632,1360890,32,Man
115,976033,DepthScenes,duration_manipulation_targetAtFixation,jsons/VE125_randls_45_rotated.json,http://54.235.29.9/FacialAge/BNav_EC2/DepthDuration/v2_depth_duration_MTurk/v2_DepthDuration_HTML.html#103,103,1366,657,1366,768,8-21-2022,7-51-50,116,depth_duration_stimuli/003083_2014-06-15_15-21-03_094959634447_rgbf000063-resize_1/003083_2014-06-15_15-21-03_094959634447_rgbf000063-resize_1-target.png,125,4.1405,3,2002,125,meters,jsons/VE125_randls_45_rotated.json,641632,1360890,32,Man
116,976033,DepthScenes,duration_manipulation_targetAtFixation,jsons/VE125_randls_45_rotated.json,http://54.235.29.9/FacialAge/BNav_EC2/DepthDuration/v2_depth_duration_MTurk/v2_DepthDuration_HTML.html#103,103,1366,657,1366,768,8-21-2022,7-51-50,117,depth_duration_stimuli/000486_2014-06-09_20-47-20_260595134347_rgbf000143-resize_2/000486_2014-06-09_20-47-20_260595134347_rgbf000143-resize_2-target.png,125,4.8325,1,1594,128,meters,jsons/VE125_randls_45_rotated.json,641632,1360890,32,Man
117,976033,DepthScenes,duration_manipulation_targetAtFixation,jsons/VE125_randls_45_rotated.json,http://54.235.29.9/FacialAge/BNav_EC2/DepthDuration/v2_depth_duration_MTurk/v2_DepthDuration_HTML.html#103,103,1366,657,1366,768,8-21-2022,7-51-50,118,depth_duration_stimuli/002344_2014-06-28_20-06-29_260595134347_rgbf000030-resize_1/002344_2014-06-28_20-06-29_260595134347_rgbf000030-resize_1-target.png,125,1.5795,3,1985,127,meters,jsons/VE125_randls_45_rotated.json,641632,1360890,32,Man
118,976033,DepthScenes,duration_manipulation_targetAtFixation,jsons/VE125_randls_45_rotated.json,http://54.235.29.9/FacialAge/BNav_EC2/DepthDuration/v2_depth_duration_MTurk/v2_DepthDuration_HTML.html#103,103,1366,657,1366,768,8-21-2022,7-51-50,119,depth_duration_stimuli/002725_2014-06-22_11-47-51_094959634447_rgbf000070-resize_1/002725_2014-06-22_11-47-51_094959634447_rgbf000070-resize_1-target.png,125,2.195,2,22120,124,meters,jsons/VE125_randls_45_rotated.json,641632,1360890,32,Man
119,976033,DepthScenes,duration_manipulation_targetAtFixation,jsons/VE125_randls_45_rotated.json,http://54.235.29.9/FacialAge/BNav_EC2/DepthDuration/v2_depth_duration_MTurk/v2_DepthDuration_HTML.html#103,103,1366,657,1366,768,8-21-2022,7-51-50,120,depth_duration_stimuli/000787_2014-06-08_22-33-53_260595134347_rgbf000175-resize_1/000787_2014-06-08_22-33-53_260595134347_rgbf000175-resize-original.jpg,125,4.784,0,3993,126,meters,jsons/VE125_randls_45_rotated.json,641632,1360890,32,Man
120,976033,DepthScenes,duration_manipulation_targetAtFixation,jsons/VE125_randls_45_rotated.json,http://54.235.29.9/FacialAge/BNav_EC2/DepthDuration/v2_depth_duration_MTurk/v2_DepthDuration_HTML.html#103,103,1366,657,1366,768,8-21-2022,7-51-50,121,depth_duration_stimuli/001617_2014-06-20_11-35-32_260595134347_rgbf000066-resize_1/001617_2014-06-20_11-35-32_260595134347_rgbf000066-resize_1-target.png,125,3.7910000000000004,2,9437,122,meters,jsons/VE125_randls_45_rotated.json,641632,1360890,32,Man
121,976033,DepthScenes,duration_manipulation_targetAtFixation,jsons/VE125_randls_45_rotated.json,http://54.235.29.9/FacialAge/BNav_EC2/DepthDuration/v2_depth_duration_MTurk/v2_DepthDuration_HTML.html#103,103,1366,657,1366,768,8-21-2022,7-51-50,122,depth_duration_stimuli/001806_2014-06-26_20-50-20_260595134347_rgbf000091-resize_1/001806_2014-06-26_20-50-20_260595134347_rgbf000091-resize_1-target.png,125,2.7305,2,2145,128,meters,jsons/VE125_randls_45_rotated.json,641632,1360890,32,Man
122,976033,DepthScenes,duration_manipulation_targetAtFixation,jsons/VE125_randls_45_rotated.json,http://54.235.29.9/FacialAge/BNav_EC2/DepthDuration/v2_depth_duration_MTurk/v2_DepthDuration_HTML.html#103,103,1366,657,1366,768,8-21-2022,7-51-50,123,depth_duration_stimuli/001032_2014-06-08_13-23-17_260595134347_rgbf000021-resize_3/001032_2014-06-08_13-23-17_260595134347_rgbf000021-resize_3-target.png,125,3.2725,2,2093,118,meters,jsons/VE125_randls_45_rotated.json,641632,1360890,32,Man
123,976033,DepthScenes,duration_manipulation_targetAtFixation,jsons/VE125_randls_45_rotated.json,http://54.235.29.9/FacialAge/BNav_EC2/DepthDuration/v2_depth_duration_MTurk/v2_DepthDuration_HTML.html#103,103,1366,657,1366,768,8-21-2022,7-51-50,124,depth_duration_stimuli/001059_2014-06-08_21-53-27_260595134347_rgbf000061-resize_4/001059_2014-06-08_21-53-27_260595134347_rgbf000061-resize_4-target.png,125,2.4185,1,1617,129,meters,jsons/VE125_randls_45_rotated.json,641632,1360890,32,Man
124,976033,DepthScenes,duration_manipulation_targetAtFixation,jsons/VE125_randls_45_rotated.json,http://54.235.29.9/FacialAge/BNav_EC2/DepthDuration/v2_depth_duration_MTurk/v2_DepthDuration_HTML.html#103,103,1366,657,1366,768,8-21-2022,7-51-50,125,depth_duration_stimuli/002949_2014-06-26_15-57-42_094959634447_rgbf000079-resize_1/002949_2014-06-26_15-57-42_094959634447_rgbf000079-resize_1-target.png,125,1.8915,1,1676,131,meters,jsons/VE125_randls_45_rotated.json,641632,1360890,32,Man
125,976033,DepthScenes,duration_manipulation_targetAtFixation,jsons/VE125_randls_45_rotated.json,http://54.235.29.9/FacialAge/BNav_EC2/DepthDuration/v2_depth_duration_MTurk/v2_DepthDuration_HTML.html#103,103,1366,657,1366,768,8-21-2022,7-51-50,126,depth_duration_stimuli/000522_2014-06-08_13-35-06_260595134347_rgbf000244-resize_1/000522_2014-06-08_13-35-06_260595134347_rgbf000244-resize_1-target.png,125,2.3715,2,2026,133,meters,jsons/VE125_randls_45_rotated.json,641632,1360890,32,Man
126,976033,DepthScenes,duration_manipulation_targetAtFixation,jsons/VE125_randls_45_rotated.json,http://54.235.29.9/FacialAge/BNav_EC2/DepthDuration/v2_depth_duration_MTurk/v2_DepthDuration_HTML.html#103,103,1366,657,1366,768,8-21-2022,7-51-50,127,depth_duration_stimuli/000103_2014-05-14_22-01-17_260595134347_rgbf000152-resize_5/000103_2014-05-14_22-01-17_260595134347_rgbf000152-resize_5-target.png,125,1.993,3,2151,127,meters,jsons/VE125_randls_45_rotated.json,641632,1360890,32,Man
127,976033,DepthScenes,duration_manipulation_targetAtFixation,jsons/VE125_randls_45_rotated.json,http://54.235.29.9/FacialAge/BNav_EC2/DepthDuration/v2_depth_duration_MTurk/v2_DepthDuration_HTML.html#103,103,1366,657,1366,768,8-21-2022,7-51-50,128,depth_duration_stimuli/001555_2014-06-20_17-12-10_260595134347_rgbf000065-resize_4/001555_2014-06-20_17-12-10_260595134347_rgbf000065-resize_4-target.png,125,1.633,3,1656,124,meters,jsons/VE125_randls_45_rotated.json,641632,1360890,32,Man
128,976033,DepthScenes,duration_manipulation_targetAtFixation,jsons/VE125_randls_45_rotated.json,http://54.235.29.9/FacialAge/BNav_EC2/DepthDuration/v2_depth_duration_MTurk/v2_DepthDuration_HTML.html#103,103,1366,657,1366,768,8-21-2022,7-51-50,129,depth_duration_stimuli/000137_2014-05-20_17-04-49_260595134347_rgbf000120-resize_1/000137_2014-05-20_17-04-49_260595134347_rgbf000120-resize_1-target.png,125,3.786,1,1669,118,meters,jsons/VE125_randls_45_rotated.json,641632,1360890,32,Man
129,976033,DepthScenes,duration_manipulation_targetAtFixation,jsons/VE125_randls_45_rotated.json,http://54.235.29.9/FacialAge/BNav_EC2/DepthDuration/v2_depth_duration_MTurk/v2_DepthDuration_HTML.html#103,103,1366,657,1366,768,8-21-2022,7-51-50,130,depth_duration_stimuli/000736_2014-06-08_18-24-15_260595134347_rgbf000206-resize_3/000736_2014-06-08_18-24-15_260595134347_rgbf000206-resize_3-target.png,125,3.515,1,2245,130,meters,jsons/VE125_randls_45_rotated.json,641632,1360890,32,Man
130,976033,DepthScenes,duration_manipulation_targetAtFixation,jsons/VE125_randls_45_rotated.json,http://54.235.29.9/FacialAge/BNav_EC2/DepthDuration/v2_depth_duration_MTurk/v2_DepthDuration_HTML.html#103,103,1366,657,1366,768,8-21-2022,7-51-50,131,depth_duration_stimuli/003228_2014-05-14_13-42-35_094959634447_rgbf000101-resize_1/003228_2014-05-14_13-42-35_094959634447_rgbf000101-resize_1-target.png,125,1.9680000000000002,2,2431,127,meters,jsons/VE125_randls_45_rotated.json,641632,1360890,32,Man
131,976033,DepthScenes,duration_manipulation_targetAtFixation,jsons/VE125_randls_45_rotated.json,http://54.235.29.9/FacialAge/BNav_EC2/DepthDuration/v2_depth_duration_MTurk/v2_DepthDuration_HTML.html#103,103,1366,657,1366,768,8-21-2022,7-51-50,132,depth_duration_stimuli/002600_2014-06-24_14-27-04_094959634447_rgbf000074-resize_2/002600_2014-06-24_14-27-04_094959634447_rgbf000074-resize_2-target.png,125,2.7575,2,18635,140,meters,jsons/VE125_randls_45_rotated.json,641632,1360890,32,Man
132,976033,DepthScenes,duration_manipulation_targetAtFixation,jsons/VE125_randls_45_rotated.json,http://54.235.29.9/FacialAge/BNav_EC2/DepthDuration/v2_depth_duration_MTurk/v2_DepthDuration_HTML.html#103,103,1366,657,1366,768,8-21-2022,7-51-50,133,depth_duration_stimuli/002637_2014-06-24_14-51-13_094959634447_rgbf000066-resize_4/002637_2014-06-24_14-51-13_094959634447_rgbf000066-resize_4-target.png,125,1.9955,1,2111,119,meters,jsons/VE125_randls_45_rotated.json,641632,1360890,32,Man
133,976033,DepthScenes,duration_manipulation_targetAtFixation,jsons/VE125_randls_45_rotated.json,http://54.235.29.9/FacialAge/BNav_EC2/DepthDuration/v2_depth_duration_MTurk/v2_DepthDuration_HTML.html#103,103,1366,657,1366,768,8-21-2022,7-51-50,134,depth_duration_stimuli/003534_2014-05-22_15-06-10_094959634447_rgbf000102-resize_4/003534_2014-05-22_15-06-10_094959634447_rgbf000102-resize_4-target.png,125,1.426,2,1749,120,meters,jsons/VE125_randls_45_rotated.json,641632,1360890,32,Man
134,976033,DepthScenes,duration_manipulation_targetAtFixation,jsons/VE125_randls_45_rotated.json,http://54.235.29.9/FacialAge/BNav_EC2/DepthDuration/v2_depth_duration_MTurk/v2_DepthDuration_HTML.html#103,103,1366,657,1366,768,8-21-2022,7-51-50,135,depth_duration_stimuli/000375_2014-06-08_11-17-29_260595134347_rgbf000133-resize_2/000375_2014-06-08_11-17-29_260595134347_rgbf000133-resize-original.jpg,125,4.718,0,2984,121,meters,jsons/VE125_randls_45_rotated.json,641632,1360890,32,Man
135,976033,DepthScenes,duration_manipulation_targetAtFixation,jsons/VE125_randls_45_rotated.json,http://54.235.29.9/FacialAge/BNav_EC2/DepthDuration/v2_depth_duration_MTurk/v2_DepthDuration_HTML.html#103,103,1366,657,1366,768,8-21-2022,7-51-50,136,depth_duration_stimuli/001516_2014-06-20_16-25-09_260595134347_rgbf000076-resize_2/001516_2014-06-20_16-25-09_260595134347_rgbf000076-resize_2-target.png,125,1.7445,2,1878,129,meters,jsons/VE125_randls_45_rotated.json,641632,1360890,32,Man
136,976033,DepthScenes,duration_manipulation_targetAtFixation,jsons/VE125_randls_45_rotated.json,http://54.235.29.9/FacialAge/BNav_EC2/DepthDuration/v2_depth_duration_MTurk/v2_DepthDuration_HTML.html#103,103,1366,657,1366,768,8-21-2022,7-51-50,137,depth_duration_stimuli/002118_2014-06-25_20-32-08_260595134347_rgbf000078-resize_1/002118_2014-06-25_20-32-08_260595134347_rgbf000078-resize_1-target.png,125,2.6460000000000004,2,2277,112,meters,jsons/VE125_randls_45_rotated.json,641632,1360890,32,Man
137,976033,DepthScenes,duration_manipulation_targetAtFixation,jsons/VE125_randls_45_rotated.json,http://54.235.29.9/FacialAge/BNav_EC2/DepthDuration/v2_depth_duration_MTurk/v2_DepthDuration_HTML.html#103,103,1366,657,1366,768,8-21-2022,7-51-50,138,depth_duration_stimuli/002568_2014-06-24_13-59-21_094959634447_rgbf000062-resize_4/002568_2014-06-24_13-59-21_094959634447_rgbf000062-resize_4-target.png,125,3.015,2,1804,137,meters,jsons/VE125_randls_45_rotated.json,641632,1360890,32,Man
138,976033,DepthScenes,duration_manipulation_targetAtFixation,jsons/VE125_randls_45_rotated.json,http://54.235.29.9/FacialAge/BNav_EC2/DepthDuration/v2_depth_duration_MTurk/v2_DepthDuration_HTML.html#103,103,1366,657,1366,768,8-21-2022,7-51-50,139,depth_duration_stimuli/003492_2014-05-21_15-50-55_094959634447_rgbf000828-resize_1/003492_2014-05-21_15-50-55_094959634447_rgbf000828-resize_1-target.png,125,4.06875,3,1480,123,meters,jsons/VE125_randls_45_rotated.json,641632,1360890,32,Man
139,976033,DepthScenes,duration_manipulation_targetAtFixation,jsons/VE125_randls_45_rotated.json,http://54.235.29.9/FacialAge/BNav_EC2/DepthDuration/v2_depth_duration_MTurk/v2_DepthDuration_HTML.html#103,103,1366,657,1366,768,8-21-2022,7-51-50,140,depth_duration_stimuli/001052_2014-06-08_18-24-54_260595134347_rgbf000130-resize_1/001052_2014-06-08_18-24-54_260595134347_rgbf000130-resize_1-target.png,125,4.1045,3,1869,128,meters,jsons/VE125_randls_45_rotated.json,641632,1360890,32,Man
140,976033,DepthScenes,duration_manipulation_targetAtFixation,jsons/VE125_randls_45_rotated.json,http://54.235.29.9/FacialAge/BNav_EC2/DepthDuration/v2_depth_duration_MTurk/v2_DepthDuration_HTML.html#103,103,1366,657,1366,768,8-21-2022,7-51-50,141,depth_duration_stimuli/002988_2014-06-15_12-24-20_094959634447_rgbf000150-resize_1/002988_2014-06-15_12-24-20_094959634447_rgbf000150-resize_1-target.png,125,4.7669999999999995,3,1874,131,meters,jsons/VE125_randls_45_rotated.json,641632,1360890,32,Man
141,976033,DepthScenes,duration_manipulation_targetAtFixation,jsons/VE125_randls_45_rotated.json,http://54.235.29.9/FacialAge/BNav_EC2/DepthDuration/v2_depth_duration_MTurk/v2_DepthDuration_HTML.html#103,103,1366,657,1366,768,8-21-2022,7-51-50,142,depth_duration_stimuli/003129_2014-05-12_10-48-10_094959634447_rgbf000100-resize_0/003129_2014-05-12_10-48-10_094959634447_rgbf000100-resize_0-target.png,125,4.9305,3,1746,120,meters,jsons/VE125_randls_45_rotated.json,641632,1360890,32,Man
142,976033,DepthScenes,duration_manipulation_targetAtFixation,jsons/VE125_randls_45_rotated.json,http://54.235.29.9/FacialAge/BNav_EC2/DepthDuration/v2_depth_duration_MTurk/v2_DepthDuration_HTML.html#103,103,1366,657,1366,768,8-21-2022,7-51-50,143,depth_duration_stimuli/000414_2014-06-04_19-49-13_260595134347_rgbf000044-resize_0/000414_2014-06-04_19-49-13_260595134347_rgbf000044-resize_0-target.png,125,4.329,3,1910,133,meters,jsons/VE125_randls_45_rotated.json,641632,1360890,32,Man
143,976033,DepthScenes,duration_manipulation_targetAtFixation,jsons/VE125_randls_45_rotated.json,http://54.235.29.9/FacialAge/BNav_EC2/DepthDuration/v2_depth_duration_MTurk/v2_DepthDuration_HTML.html#103,103,1366,657,1366,768,8-21-2022,7-51-50,144,depth_duration_stimuli/002414_2014-06-28_20-24-58_260595134347_rgbf000067-resize_4/002414_2014-06-28_20-24-58_260595134347_rgbf000067-resize_4-target.png,125,4.363,2,9764,134,meters,jsons/VE125_randls_45_rotated.json,641632,1360890,32,Man
144,976033,DepthScenes,duration_manipulation_targetAtFixation,jsons/VE125_randls_45_rotated.json,http://54.235.29.9/FacialAge/BNav_EC2/DepthDuration/v2_depth_duration_MTurk/v2_DepthDuration_HTML.html#103,103,1366,657,1366,768,8-21-2022,7-51-50,145,depth_duration_stimuli/000773_2014-06-08_22-24-54_260595134347_rgbf000093-resize_1/000773_2014-06-08_22-24-54_260595134347_rgbf000093-resize_1-target.png,125,4.973,3,5325,123,meters,jsons/VE125_randls_45_rotated.json,641632,1360890,32,Man
145,976033,DepthScenes,duration_manipulation_targetAtFixation,jsons/VE125_randls_45_rotated.json,http://54.235.29.9/FacialAge/BNav_EC2/DepthDuration/v2_depth_duration_MTurk/v2_DepthDuration_HTML.html#103,103,1366,657,1366,768,8-21-2022,7-51-50,146,depth_duration_stimuli/000709_2014-06-08_13-51-55_260595134347_rgbf000068-resize_3/000709_2014-06-08_13-51-55_260595134347_rgbf000068-resize_3-target.png,125,1.8030000000000002,2,21751,131,meters,jsons/VE125_randls_45_rotated.json,641632,1360890,32,Man
146,976033,DepthScenes,duration_manipulation_targetAtFixation,jsons/VE125_randls_45_rotated.json,http://54.235.29.9/FacialAge/BNav_EC2/DepthDuration/v2_depth_duration_MTurk/v2_DepthDuration_HTML.html#103,103,1366,657,1366,768,8-21-2022,7-51-50,147,depth_duration_stimuli/002057_2014-06-24_21-00-13_260595134347_rgbf000120-resize_1/002057_2014-06-24_21-00-13_260595134347_rgbf000120-resize_1-target.png,125,2.967,3,1945,131,meters,jsons/VE125_randls_45_rotated.json,641632,1360890,32,Man
147,976033,DepthScenes,duration_manipulation_targetAtFixation,jsons/VE125_randls_45_rotated.json,http://54.235.29.9/FacialAge/BNav_EC2/DepthDuration/v2_depth_duration_MTurk/v2_DepthDuration_HTML.html#103,103,1366,657,1366,768,8-21-2022,7-51-50,148,depth_duration_stimuli/002467_2014-06-28_20-38-07_260595134347_rgbf000026-resize_2/002467_2014-06-28_20-38-07_260595134347_rgbf000026-resize_2-target.png,125,4.742,4,2515,133,meters,jsons/VE125_randls_45_rotated.json,641632,1360890,32,Man
148,976033,DepthScenes,duration_manipulation_targetAtFixation,jsons/VE125_randls_45_rotated.json,http://54.235.29.9/FacialAge/BNav_EC2/DepthDuration/v2_depth_duration_MTurk/v2_DepthDuration_HTML.html#103,103,1366,657,1366,768,8-21-2022,7-51-50,149,depth_duration_stimuli/002570_2014-06-24_13-59-54_094959634447_rgbf000059-resize_0/002570_2014-06-24_13-59-54_094959634447_rgbf000059-resize_0-target.png,125,4.037,1,1719,131,meters,jsons/VE125_randls_45_rotated.json,641632,1360890,32,Man
149,976033,DepthScenes,duration_manipulation_targetAtFixation,jsons/VE125_randls_45_rotated.json,http://54.235.29.9/FacialAge/BNav_EC2/DepthDuration/v2_depth_duration_MTurk/v2_DepthDuration_HTML.html#103,103,1366,657,1366,768,8-21-2022,7-51-50,150,depth_duration_stimuli/002639_2014-06-24_14-51-37_094959634447_rgbf000074-resize_4/002639_2014-06-24_14-51-37_094959634447_rgbf000074-resize_4-target.png,125,4.0375,1,2427,126,meters,jsons/VE125_randls_45_rotated.json,641632,1360890,32,Man
150,976033,DepthScenes,duration_manipulation_targetAtFixation,jsons/VE125_randls_45_rotated.json,http://54.235.29.9/FacialAge/BNav_EC2/DepthDuration/v2_depth_duration_MTurk/v2_DepthDuration_HTML.html#103,103,1366,657,1366,768,8-21-2022,7-51-50,151,depth_duration_stimuli/003292_2014-05-14_21-53-49_094959634447_rgbf000100-resize_2/003292_2014-05-14_21-53-49_094959634447_rgbf000100-resize_2-target.png,125,3.4815,2,1854,121,meters,jsons/VE125_randls_45_rotated.json,641632,1360890,32,Man
151,976033,DepthScenes,duration_manipulation_targetAtFixation,jsons/VE125_randls_45_rotated.json,http://54.235.29.9/FacialAge/BNav_EC2/DepthDuration/v2_depth_duration_MTurk/v2_DepthDuration_HTML.html#103,103,1366,657,1366,768,8-21-2022,7-51-50,152,depth_duration_stimuli/000569_2014-06-09_22-51-47_260595134347_rgbf000141-resize_3/000569_2014-06-09_22-51-47_260595134347_rgbf000141-resize-original.jpg,125,4.512,2,2068,120,meters,jsons/VE125_randls_45_rotated.json,641632,1360890,32,Man
152,976033,DepthScenes,duration_manipulation_targetAtFixation,jsons/VE125_randls_45_rotated.json,http://54.235.29.9/FacialAge/BNav_EC2/DepthDuration/v2_depth_duration_MTurk/v2_DepthDuration_HTML.html#103,103,1366,657,1366,768,8-21-2022,7-51-50,153,depth_duration_stimuli/002425_2014-06-28_20-27-29_260595134347_rgbf000031-resize_8/002425_2014-06-28_20-27-29_260595134347_rgbf000031-resize_8-target.png,125,3.8960000000000004,4,1726,119,meters,jsons/VE125_randls_45_rotated.json,641632,1360890,32,Man
153,976033,DepthScenes,duration_manipulation_targetAtFixation,jsons/VE125_randls_45_rotated.json,http://54.235.29.9/FacialAge/BNav_EC2/DepthDuration/v2_depth_duration_MTurk/v2_DepthDuration_HTML.html#103,103,1366,657,1366,768,8-21-2022,7-51-50,154,depth_duration_stimuli/000642_2014-06-08_16-59-25_260595134347_rgbf000098-resize_2/000642_2014-06-08_16-59-25_260595134347_rgbf000098-resize_2-target.png,125,2.8815,2,5966,115,meters,jsons/VE125_randls_45_rotated.json,641632,1360890,32,Man
154,976033,DepthScenes,duration_manipulation_targetAtFixation,jsons/VE125_randls_45_rotated.json,http://54.235.29.9/FacialAge/BNav_EC2/DepthDuration/v2_depth_duration_MTurk/v2_DepthDuration_HTML.html#103,103,1366,657,1366,768,8-21-2022,7-51-50,155,depth_duration_stimuli/001450_2014-06-19_17-02-03_260595134347_rgbf000203-resize_4/001450_2014-06-19_17-02-03_260595134347_rgbf000203-resize_4-target.png,125,4.0106666666667,4,1957,119,meters,jsons/VE125_randls_45_rotated.json,641632,1360890,32,Man
155,976033,DepthScenes,duration_manipulation_targetAtFixation,jsons/VE125_randls_45_rotated.json,http://54.235.29.9/FacialAge/BNav_EC2/DepthDuration/v2_depth_duration_MTurk/v2_DepthDuration_HTML.html#103,103,1366,657,1366,768,8-21-2022,7-51-50,156,depth_duration_stimuli/001449_2014-06-19_17-01-27_260595134347_rgbf000116-resize_2/001449_2014-06-19_17-01-27_260595134347_rgbf000116-resize_2-target.png,125,3.452,3,2067,126,meters,jsons/VE125_randls_45_rotated.json,641632,1360890,32,Man
156,976033,DepthScenes,duration_manipulation_targetAtFixation,jsons/VE125_randls_45_rotated.json,http://54.235.29.9/FacialAge/BNav_EC2/DepthDuration/v2_depth_duration_MTurk/v2_DepthDuration_HTML.html#103,103,1366,657,1366,768,8-21-2022,7-51-50,157,depth_duration_stimuli/001815_2014-06-26_20-52-55_260595134347_rgbf000020-resize_0/001815_2014-06-26_20-52-55_260595134347_rgbf000020-resize_0-target.png,125,3.3865,3,2000,127,meters,jsons/VE125_randls_45_rotated.json,641632,1360890,32,Man
157,976033,DepthScenes,duration_manipulation_targetAtFixation,jsons/VE125_randls_45_rotated.json,http://54.235.29.9/FacialAge/BNav_EC2/DepthDuration/v2_depth_duration_MTurk/v2_DepthDuration_HTML.html#103,103,1366,657,1366,768,8-21-2022,7-51-50,158,depth_duration_stimuli/001808_2014-06-26_20-50-58_260595134347_rgbf000029-resize_1/001808_2014-06-26_20-50-58_260595134347_rgbf000029-resize_1-target.png,125,4.249,2,2153,135,meters,jsons/VE125_randls_45_rotated.json,641632,1360890,32,Man
158,976033,DepthScenes,duration_manipulation_targetAtFixation,jsons/VE125_randls_45_rotated.json,http://54.235.29.9/FacialAge/BNav_EC2/DepthDuration/v2_depth_duration_MTurk/v2_DepthDuration_HTML.html#103,103,1366,657,1366,768,8-21-2022,7-51-50,159,depth_duration_stimuli/002805_2014-06-22_19-54-03_094959634447_rgbf000079-resize_1/002805_2014-06-22_19-54-03_094959634447_rgbf000079-resize_1-target.png,125,3.1439999999999997,2,1648,116,meters,jsons/VE125_randls_45_rotated.json,641632,1360890,32,Man
159,976033,DepthScenes,duration_manipulation_targetAtFixation,jsons/VE125_randls_45_rotated.json,http://54.235.29.9/FacialAge/BNav_EC2/DepthDuration/v2_depth_duration_MTurk/v2_DepthDuration_HTML.html#103,103,1366,657,1366,768,8-21-2022,7-51-50,160,depth_duration_stimuli/000906_2014-06-08_13-35-43_260595134347_rgbf000155-resize_1/000906_2014-06-08_13-35-43_260595134347_rgbf000155-resize_1-target.png,125,2.8489999999999998,3,1836,122,meters,jsons/VE125_randls_45_rotated.json,641632,1360890,32,Man
160,976033,DepthScenes,duration_manipulation_targetAtFixation,jsons/VE125_randls_45_rotated.json,http://54.235.29.9/FacialAge/BNav_EC2/DepthDuration/v2_depth_duration_MTurk/v2_DepthDuration_HTML.html#103,103,1366,657,1366,768,8-21-2022,7-51-50,161,depth_duration_stimuli/000927_2014-06-09_16-32-30_260595134347_rgbf000123-resize_3/000927_2014-06-09_16-32-30_260595134347_rgbf000123-resize_3-target.png,125,2.6785,2,2006,120,meters,jsons/VE125_randls_45_rotated.json,641632,1360890,32,Man
161,976033,DepthScenes,duration_manipulation_targetAtFixation,jsons/VE125_randls_45_rotated.json,http://54.235.29.9/FacialAge/BNav_EC2/DepthDuration/v2_depth_duration_MTurk/v2_DepthDuration_HTML.html#103,103,1366,657,1366,768,8-21-2022,7-51-50,162,depth_duration_stimuli/001110_2014-06-15_17-25-28_260595134347_rgbf000150-resize_1/001110_2014-06-15_17-25-28_260595134347_rgbf000150-resize_1-target.png,125,1.7115,2,62684,124,meters,jsons/VE125_randls_45_rotated.json,641632,1360890,32,Man
162,976033,DepthScenes,duration_manipulation_targetAtFixation,jsons/VE125_randls_45_rotated.json,http://54.235.29.9/FacialAge/BNav_EC2/DepthDuration/v2_depth_duration_MTurk/v2_DepthDuration_HTML.html#103,103,1366,657,1366,768,8-21-2022,7-51-50,163,depth_duration_stimuli/000556_2014-06-09_22-42-56_260595134347_rgbf000214-resize_1/000556_2014-06-09_22-42-56_260595134347_rgbf000214-resize_1-target.png,125,4.8415,3,2117,129,meters,jsons/VE125_randls_45_rotated.json,641632,1360890,32,Man
163,976033,DepthScenes,duration_manipulation_targetAtFixation,jsons/VE125_randls_45_rotated.json,http://54.235.29.9/FacialAge/BNav_EC2/DepthDuration/v2_depth_duration_MTurk/v2_DepthDuration_HTML.html#103,103,1366,657,1366,768,8-21-2022,7-51-50,164,depth_duration_stimuli/001158_2014-06-17_15-32-16_260595134347_rgbf000138-resize_2/001158_2014-06-17_15-32-16_260595134347_rgbf000138-resize_2-target.png,125,4.5315,2,1788,121,meters,jsons/VE125_randls_45_rotated.json,641632,1360890,32,Man
