,subjID,experimentName,versionName,sequenceName,url,selected_row,windowWidth,windowHeight,screenWidth,screenHeight,startDate,startTime,trial,stimulus,duration,actual_depth,depth_estimate,trial_RT,log_sceneDuration,unitSelection,seq_filepath,experimentTime,totalTime,age,gender
0,977488,DepthScenes,duration_manipulation_targetAtFixation,jsons/v1_VE1000_randls_69_rotated.json,http://54.235.29.9/FacialAge/BNav_EC2/DepthDuration/v2_depth_duration_MTurk/v2_DepthDuration_HTML.html#13,13,1707,781,1366,768,8-22-2022,5-6-26,1,depth_duration_stimuli/000780_2014-06-08_22-28-29_260595134347_rgbf000126-resize_1/000780_2014-06-08_22-28-29_260595134347_rgbf000126-resize_1-target.png,1000,3.3825,10,4693,1010,feet,jsons/v1_VE1000_randls_69_rotated.json,982962,2200937,21,Man
1,977488,DepthScenes,duration_manipulation_targetAtFixation,jsons/v1_VE1000_randls_69_rotated.json,http://54.235.29.9/FacialAge/BNav_EC2/DepthDuration/v2_depth_duration_MTurk/v2_DepthDuration_HTML.html#13,13,1707,781,1366,768,8-22-2022,5-6-26,2,depth_duration_stimuli/002445_2014-06-28_20-32-16_260595134347_rgbf000029-resize_4/002445_2014-06-28_20-32-16_260595134347_rgbf000029-resize_4-target.png,1000,2.5315,3,5387,999,feet,jsons/v1_VE1000_randls_69_rotated.json,982962,2200937,21,Man
2,977488,DepthScenes,duration_manipulation_targetAtFixation,jsons/v1_VE1000_randls_69_rotated.json,http://54.235.29.9/FacialAge/BNav_EC2/DepthDuration/v2_depth_duration_MTurk/v2_DepthDuration_HTML.html#13,13,1707,781,1366,768,8-22-2022,5-6-26,3,depth_duration_stimuli/000691_2014-06-08_13-08-50_260595134347_rgbf000132-resize_3/000691_2014-06-08_13-08-50_260595134347_rgbf000132-resize_3-target.png,1000,4.1530000000000005,6,6292,993,feet,jsons/v1_VE1000_randls_69_rotated.json,982962,2200937,21,Man
3,977488,DepthScenes,duration_manipulation_targetAtFixation,jsons/v1_VE1000_randls_69_rotated.json,http://54.235.29.9/FacialAge/BNav_EC2/DepthDuration/v2_depth_duration_MTurk/v2_DepthDuration_HTML.html#13,13,1707,781,1366,768,8-22-2022,5-6-26,4,depth_duration_stimuli/002213_2014-06-28_18-37-58_260595134347_rgbf000055-resize_1/002213_2014-06-28_18-37-58_260595134347_rgbf000055-resize_1-target.png,1000,3.62,8,17051,990,feet,jsons/v1_VE1000_randls_69_rotated.json,982962,2200937,21,Man
4,977488,DepthScenes,duration_manipulation_targetAtFixation,jsons/v1_VE1000_randls_69_rotated.json,http://54.235.29.9/FacialAge/BNav_EC2/DepthDuration/v2_depth_duration_MTurk/v2_DepthDuration_HTML.html#13,13,1707,781,1366,768,8-22-2022,5-6-26,5,depth_duration_stimuli/001447_2014-06-19_17-00-32_260595134347_rgbf000082-resize_5/001447_2014-06-19_17-00-32_260595134347_rgbf000082-resize_5-target.png,1000,4.13775,6,4266,995,feet,jsons/v1_VE1000_randls_69_rotated.json,982962,2200937,21,Man
5,977488,DepthScenes,duration_manipulation_targetAtFixation,jsons/v1_VE1000_randls_69_rotated.json,http://54.235.29.9/FacialAge/BNav_EC2/DepthDuration/v2_depth_duration_MTurk/v2_DepthDuration_HTML.html#13,13,1707,781,1366,768,8-22-2022,5-6-26,6,depth_duration_stimuli/000447_2014-06-08_16-15-46_260595134347_rgbf000130-resize_1/000447_2014-06-08_16-15-46_260595134347_rgbf000130-resize_1-target.png,1000,4.479,9,4454,991,feet,jsons/v1_VE1000_randls_69_rotated.json,982962,2200937,21,Man
6,977488,DepthScenes,duration_manipulation_targetAtFixation,jsons/v1_VE1000_randls_69_rotated.json,http://54.235.29.9/FacialAge/BNav_EC2/DepthDuration/v2_depth_duration_MTurk/v2_DepthDuration_HTML.html#13,13,1707,781,1366,768,8-22-2022,5-6-26,7,depth_duration_stimuli/000502_2014-06-08_23-02-32_260595134347_rgbf000063-resize_4/000502_2014-06-08_23-02-32_260595134347_rgbf000063-resize_4-target.png,1000,2.431,3,4383,1007,feet,jsons/v1_VE1000_randls_69_rotated.json,982962,2200937,21,Man
7,977488,DepthScenes,duration_manipulation_targetAtFixation,jsons/v1_VE1000_randls_69_rotated.json,http://54.235.29.9/FacialAge/BNav_EC2/DepthDuration/v2_depth_duration_MTurk/v2_DepthDuration_HTML.html#13,13,1707,781,1366,768,8-22-2022,5-6-26,8,depth_duration_stimuli/001199_2014-06-17_16-03-48_260595134347_rgbf000077-resize_0/001199_2014-06-17_16-03-48_260595134347_rgbf000077-resize_0-target.png,1000,3.4375,6,5516,999,feet,jsons/v1_VE1000_randls_69_rotated.json,982962,2200937,21,Man
8,977488,DepthScenes,duration_manipulation_targetAtFixation,jsons/v1_VE1000_randls_69_rotated.json,http://54.235.29.9/FacialAge/BNav_EC2/DepthDuration/v2_depth_duration_MTurk/v2_DepthDuration_HTML.html#13,13,1707,781,1366,768,8-22-2022,5-6-26,9,depth_duration_stimuli/003129_2014-05-12_10-48-10_094959634447_rgbf000100-resize_0/003129_2014-05-12_10-48-10_094959634447_rgbf000100-resize_0-target.png,1000,4.9305,9,4195,999,feet,jsons/v1_VE1000_randls_69_rotated.json,982962,2200937,21,Man
9,977488,DepthScenes,duration_manipulation_targetAtFixation,jsons/v1_VE1000_randls_69_rotated.json,http://54.235.29.9/FacialAge/BNav_EC2/DepthDuration/v2_depth_duration_MTurk/v2_DepthDuration_HTML.html#13,13,1707,781,1366,768,8-22-2022,5-6-26,10,depth_duration_stimuli/000414_2014-06-04_19-49-13_260595134347_rgbf000044-resize_0/000414_2014-06-04_19-49-13_260595134347_rgbf000044-resize_0-target.png,1000,4.329,10,8973,994,feet,jsons/v1_VE1000_randls_69_rotated.json,982962,2200937,21,Man
10,977488,DepthScenes,duration_manipulation_targetAtFixation,jsons/v1_VE1000_randls_69_rotated.json,http://54.235.29.9/FacialAge/BNav_EC2/DepthDuration/v2_depth_duration_MTurk/v2_DepthDuration_HTML.html#13,13,1707,781,1366,768,8-22-2022,5-6-26,11,depth_duration_stimuli/003587_2014-05-23_16-48-02_094959634447_rgbf002384-resize_2/003587_2014-05-23_16-48-02_094959634447_rgbf002384-resize_2-target.png,1000,1.357,2,4312,996,feet,jsons/v1_VE1000_randls_69_rotated.json,982962,2200937,21,Man
11,977488,DepthScenes,duration_manipulation_targetAtFixation,jsons/v1_VE1000_randls_69_rotated.json,http://54.235.29.9/FacialAge/BNav_EC2/DepthDuration/v2_depth_duration_MTurk/v2_DepthDuration_HTML.html#13,13,1707,781,1366,768,8-22-2022,5-6-26,12,depth_duration_stimuli/001167_2014-06-17_15-38-07_260595134347_rgbf000108-resize_0/001167_2014-06-17_15-38-07_260595134347_rgbf000108-resize_0-target.png,1000,1.8505,4,4088,997,feet,jsons/v1_VE1000_randls_69_rotated.json,982962,2200937,21,Man
12,977488,DepthScenes,duration_manipulation_targetAtFixation,jsons/v1_VE1000_randls_69_rotated.json,http://54.235.29.9/FacialAge/BNav_EC2/DepthDuration/v2_depth_duration_MTurk/v2_DepthDuration_HTML.html#13,13,1707,781,1366,768,8-22-2022,5-6-26,13,depth_duration_stimuli/002637_2014-06-24_14-51-13_094959634447_rgbf000066-resize_4/002637_2014-06-24_14-51-13_094959634447_rgbf000066-resize_4-target.png,1000,1.9955,5,28321,1012,feet,jsons/v1_VE1000_randls_69_rotated.json,982962,2200937,21,Man
13,977488,DepthScenes,duration_manipulation_targetAtFixation,jsons/v1_VE1000_randls_69_rotated.json,http://54.235.29.9/FacialAge/BNav_EC2/DepthDuration/v2_depth_duration_MTurk/v2_DepthDuration_HTML.html#13,13,1707,781,1366,768,8-22-2022,5-6-26,14,depth_duration_stimuli/003534_2014-05-22_15-06-10_094959634447_rgbf000102-resize_4/003534_2014-05-22_15-06-10_094959634447_rgbf000102-resize_4-target.png,1000,1.426,1,7880,997,feet,jsons/v1_VE1000_randls_69_rotated.json,982962,2200937,21,Man
14,977488,DepthScenes,duration_manipulation_targetAtFixation,jsons/v1_VE1000_randls_69_rotated.json,http://54.235.29.9/FacialAge/BNav_EC2/DepthDuration/v2_depth_duration_MTurk/v2_DepthDuration_HTML.html#13,13,1707,781,1366,768,8-22-2022,5-6-26,15,depth_duration_stimuli/000409_2014-06-04_19-23-33_260595134347_rgbf000067-resize_0/000409_2014-06-04_19-23-33_260595134347_rgbf000067-resize_0-target.png,1000,3.7335,5,4554,999,feet,jsons/v1_VE1000_randls_69_rotated.json,982962,2200937,21,Man
15,977488,DepthScenes,duration_manipulation_targetAtFixation,jsons/v1_VE1000_randls_69_rotated.json,http://54.235.29.9/FacialAge/BNav_EC2/DepthDuration/v2_depth_duration_MTurk/v2_DepthDuration_HTML.html#13,13,1707,781,1366,768,8-22-2022,5-6-26,16,depth_duration_stimuli/002663_2014-06-13_15-50-26_094959634447_rgbf000075-resize_1/002663_2014-06-13_15-50-26_094959634447_rgbf000075-resize_1-target.png,1000,4.7495,9,3818,999,feet,jsons/v1_VE1000_randls_69_rotated.json,982962,2200937,21,Man
16,977488,DepthScenes,duration_manipulation_targetAtFixation,jsons/v1_VE1000_randls_69_rotated.json,http://54.235.29.9/FacialAge/BNav_EC2/DepthDuration/v2_depth_duration_MTurk/v2_DepthDuration_HTML.html#13,13,1707,781,1366,768,8-22-2022,5-6-26,17,depth_duration_stimuli/000749_2014-06-08_21-55-06_260595134347_rgbf000070-resize_2/000749_2014-06-08_21-55-06_260595134347_rgbf000070-resize_2-target.png,1000,2.331,4,4219,1000,feet,jsons/v1_VE1000_randls_69_rotated.json,982962,2200937,21,Man
17,977488,DepthScenes,duration_manipulation_targetAtFixation,jsons/v1_VE1000_randls_69_rotated.json,http://54.235.29.9/FacialAge/BNav_EC2/DepthDuration/v2_depth_duration_MTurk/v2_DepthDuration_HTML.html#13,13,1707,781,1366,768,8-22-2022,5-6-26,18,depth_duration_stimuli/002788_2014-06-22_19-36-03_094959634447_rgbf000088-resize_2/002788_2014-06-22_19-36-03_094959634447_rgbf000088-resize_2-target.png,1000,1.6465,6,3785,999,feet,jsons/v1_VE1000_randls_69_rotated.json,982962,2200937,21,Man
18,977488,DepthScenes,duration_manipulation_targetAtFixation,jsons/v1_VE1000_randls_69_rotated.json,http://54.235.29.9/FacialAge/BNav_EC2/DepthDuration/v2_depth_duration_MTurk/v2_DepthDuration_HTML.html#13,13,1707,781,1366,768,8-22-2022,5-6-26,19,depth_duration_stimuli/001498_2014-06-19_17-45-14_260595134347_rgbf000129-resize_4/001498_2014-06-19_17-45-14_260595134347_rgbf000129-resize-original.jpg,1000,1.4075,5,5362,1000,feet,jsons/v1_VE1000_randls_69_rotated.json,982962,2200937,21,Man
19,977488,DepthScenes,duration_manipulation_targetAtFixation,jsons/v1_VE1000_randls_69_rotated.json,http://54.235.29.9/FacialAge/BNav_EC2/DepthDuration/v2_depth_duration_MTurk/v2_DepthDuration_HTML.html#13,13,1707,781,1366,768,8-22-2022,5-6-26,20,depth_duration_stimuli/003048_2014-06-15_13-49-43_094959634447_rgbf000150-resize_1/003048_2014-06-15_13-49-43_094959634447_rgbf000150-resize_1-target.png,1000,4.0035,9,4279,1011,feet,jsons/v1_VE1000_randls_69_rotated.json,982962,2200937,21,Man
20,977488,DepthScenes,duration_manipulation_targetAtFixation,jsons/v1_VE1000_randls_69_rotated.json,http://54.235.29.9/FacialAge/BNav_EC2/DepthDuration/v2_depth_duration_MTurk/v2_DepthDuration_HTML.html#13,13,1707,781,1366,768,8-22-2022,5-6-26,21,depth_duration_stimuli/002043_2014-06-24_20-29-38_260595134347_rgbf000039-resize_4/002043_2014-06-24_20-29-38_260595134347_rgbf000039-resize_4-target.png,1000,2.8435,8,3865,998,feet,jsons/v1_VE1000_randls_69_rotated.json,982962,2200937,21,Man
21,977488,DepthScenes,duration_manipulation_targetAtFixation,jsons/v1_VE1000_randls_69_rotated.json,http://54.235.29.9/FacialAge/BNav_EC2/DepthDuration/v2_depth_duration_MTurk/v2_DepthDuration_HTML.html#13,13,1707,781,1366,768,8-22-2022,5-6-26,22,depth_duration_stimuli/000137_2014-05-20_17-04-49_260595134347_rgbf000120-resize_1/000137_2014-05-20_17-04-49_260595134347_rgbf000120-resize_1-target.png,1000,3.786,8,3858,999,feet,jsons/v1_VE1000_randls_69_rotated.json,982962,2200937,21,Man
22,977488,DepthScenes,duration_manipulation_targetAtFixation,jsons/v1_VE1000_randls_69_rotated.json,http://54.235.29.9/FacialAge/BNav_EC2/DepthDuration/v2_depth_duration_MTurk/v2_DepthDuration_HTML.html#13,13,1707,781,1366,768,8-22-2022,5-6-26,23,depth_duration_stimuli/000736_2014-06-08_18-24-15_260595134347_rgbf000206-resize_3/000736_2014-06-08_18-24-15_260595134347_rgbf000206-resize_3-target.png,1000,3.515,4,3945,999,feet,jsons/v1_VE1000_randls_69_rotated.json,982962,2200937,21,Man
23,977488,DepthScenes,duration_manipulation_targetAtFixation,jsons/v1_VE1000_randls_69_rotated.json,http://54.235.29.9/FacialAge/BNav_EC2/DepthDuration/v2_depth_duration_MTurk/v2_DepthDuration_HTML.html#13,13,1707,781,1366,768,8-22-2022,5-6-26,24,depth_duration_stimuli/002639_2014-06-24_14-51-37_094959634447_rgbf000074-resize_4/002639_2014-06-24_14-51-37_094959634447_rgbf000074-resize_4-target.png,1000,4.0375,7,3860,999,feet,jsons/v1_VE1000_randls_69_rotated.json,982962,2200937,21,Man
24,977488,DepthScenes,duration_manipulation_targetAtFixation,jsons/v1_VE1000_randls_69_rotated.json,http://54.235.29.9/FacialAge/BNav_EC2/DepthDuration/v2_depth_duration_MTurk/v2_DepthDuration_HTML.html#13,13,1707,781,1366,768,8-22-2022,5-6-26,25,depth_duration_stimuli/003292_2014-05-14_21-53-49_094959634447_rgbf000100-resize_2/003292_2014-05-14_21-53-49_094959634447_rgbf000100-resize_2-target.png,1000,3.4815,5,3837,1000,feet,jsons/v1_VE1000_randls_69_rotated.json,982962,2200937,21,Man
25,977488,DepthScenes,duration_manipulation_targetAtFixation,jsons/v1_VE1000_randls_69_rotated.json,http://54.235.29.9/FacialAge/BNav_EC2/DepthDuration/v2_depth_duration_MTurk/v2_DepthDuration_HTML.html#13,13,1707,781,1366,768,8-22-2022,5-6-26,26,depth_duration_stimuli/001132_2014-06-17_14-48-54_260595134347_rgbf000100-resize_2/001132_2014-06-17_14-48-54_260595134347_rgbf000100-resize_2-target.png,1000,3.753,6,5400,999,feet,jsons/v1_VE1000_randls_69_rotated.json,982962,2200937,21,Man
26,977488,DepthScenes,duration_manipulation_targetAtFixation,jsons/v1_VE1000_randls_69_rotated.json,http://54.235.29.9/FacialAge/BNav_EC2/DepthDuration/v2_depth_duration_MTurk/v2_DepthDuration_HTML.html#13,13,1707,781,1366,768,8-22-2022,5-6-26,27,depth_duration_stimuli/001133_2014-06-17_14-49-16_260595134347_rgbf000100-resize_0/001133_2014-06-17_14-49-16_260595134347_rgbf000100-resize_0-target.png,1000,4.2115,8,3522,998,feet,jsons/v1_VE1000_randls_69_rotated.json,982962,2200937,21,Man
27,977488,DepthScenes,duration_manipulation_targetAtFixation,jsons/v1_VE1000_randls_69_rotated.json,http://54.235.29.9/FacialAge/BNav_EC2/DepthDuration/v2_depth_duration_MTurk/v2_DepthDuration_HTML.html#13,13,1707,781,1366,768,8-22-2022,5-6-26,28,depth_duration_stimuli/003081_2014-06-15_15-19-16_094959634447_rgbf000150-resize_1/003081_2014-06-15_15-19-16_094959634447_rgbf000150-resize_1-target.png,1000,3.9125,7,4366,998,feet,jsons/v1_VE1000_randls_69_rotated.json,982962,2200937,21,Man
28,977488,DepthScenes,duration_manipulation_targetAtFixation,jsons/v1_VE1000_randls_69_rotated.json,http://54.235.29.9/FacialAge/BNav_EC2/DepthDuration/v2_depth_duration_MTurk/v2_DepthDuration_HTML.html#13,13,1707,781,1366,768,8-22-2022,5-6-26,29,depth_duration_stimuli/001417_2014-06-19_16-25-36_260595134347_rgbf000115-resize_5/001417_2014-06-19_16-25-36_260595134347_rgbf000115-resize_5-target.png,1000,4.6255,7,4098,1000,feet,jsons/v1_VE1000_randls_69_rotated.json,982962,2200937,21,Man
29,977488,DepthScenes,duration_manipulation_targetAtFixation,jsons/v1_VE1000_randls_69_rotated.json,http://54.235.29.9/FacialAge/BNav_EC2/DepthDuration/v2_depth_duration_MTurk/v2_DepthDuration_HTML.html#13,13,1707,781,1366,768,8-22-2022,5-6-26,30,depth_duration_stimuli/002072_2014-06-24_21-48-06_260595134347_rgbf000115-resize_0/002072_2014-06-24_21-48-06_260595134347_rgbf000115-resize-original.jpg,1000,4.702,5,5084,999,feet,jsons/v1_VE1000_randls_69_rotated.json,982962,2200937,21,Man
30,977488,DepthScenes,duration_manipulation_targetAtFixation,jsons/v1_VE1000_randls_69_rotated.json,http://54.235.29.9/FacialAge/BNav_EC2/DepthDuration/v2_depth_duration_MTurk/v2_DepthDuration_HTML.html#13,13,1707,781,1366,768,8-22-2022,5-6-26,31,depth_duration_stimuli/003423_2014-05-21_10-23-26_094959634447_rgbf002665-resize_2/003423_2014-05-21_10-23-26_094959634447_rgbf002665-resize_2-target.png,1000,3.2575,6,3987,1000,feet,jsons/v1_VE1000_randls_69_rotated.json,982962,2200937,21,Man
31,977488,DepthScenes,duration_manipulation_targetAtFixation,jsons/v1_VE1000_randls_69_rotated.json,http://54.235.29.9/FacialAge/BNav_EC2/DepthDuration/v2_depth_duration_MTurk/v2_DepthDuration_HTML.html#13,13,1707,781,1366,768,8-22-2022,5-6-26,32,depth_duration_stimuli/002905_2014-06-03_18-04-43_094959634447_rgbf000151-resize_2/002905_2014-06-03_18-04-43_094959634447_rgbf000151-resize_2-target.png,1000,2.0295,4,4498,1000,feet,jsons/v1_VE1000_randls_69_rotated.json,982962,2200937,21,Man
32,977488,DepthScenes,duration_manipulation_targetAtFixation,jsons/v1_VE1000_randls_69_rotated.json,http://54.235.29.9/FacialAge/BNav_EC2/DepthDuration/v2_depth_duration_MTurk/v2_DepthDuration_HTML.html#13,13,1707,781,1366,768,8-22-2022,5-6-26,33,depth_duration_stimuli/002340_2014-06-28_20-05-46_260595134347_rgbf000113-resize_0/002340_2014-06-28_20-05-46_260595134347_rgbf000113-resize_0-target.png,1000,2.4735,9,3994,1001,feet,jsons/v1_VE1000_randls_69_rotated.json,982962,2200937,21,Man
33,977488,DepthScenes,duration_manipulation_targetAtFixation,jsons/v1_VE1000_randls_69_rotated.json,http://54.235.29.9/FacialAge/BNav_EC2/DepthDuration/v2_depth_duration_MTurk/v2_DepthDuration_HTML.html#13,13,1707,781,1366,768,8-22-2022,5-6-26,34,depth_duration_stimuli/001016_2014-06-09_16-16-10_260595134347_rgbf000112-resize_5/001016_2014-06-09_16-16-10_260595134347_rgbf000112-resize_5-target.png,1000,1.6565,5,3795,999,feet,jsons/v1_VE1000_randls_69_rotated.json,982962,2200937,21,Man
34,977488,DepthScenes,duration_manipulation_targetAtFixation,jsons/v1_VE1000_randls_69_rotated.json,http://54.235.29.9/FacialAge/BNav_EC2/DepthDuration/v2_depth_duration_MTurk/v2_DepthDuration_HTML.html#13,13,1707,781,1366,768,8-22-2022,5-6-26,35,depth_duration_stimuli/002414_2014-06-28_20-24-58_260595134347_rgbf000067-resize_4/002414_2014-06-28_20-24-58_260595134347_rgbf000067-resize_4-target.png,1000,4.363,8,3730,1000,feet,jsons/v1_VE1000_randls_69_rotated.json,982962,2200937,21,Man
35,977488,DepthScenes,duration_manipulation_targetAtFixation,jsons/v1_VE1000_randls_69_rotated.json,http://54.235.29.9/FacialAge/BNav_EC2/DepthDuration/v2_depth_duration_MTurk/v2_DepthDuration_HTML.html#13,13,1707,781,1366,768,8-22-2022,5-6-26,36,depth_duration_stimuli/000773_2014-06-08_22-24-54_260595134347_rgbf000093-resize_1/000773_2014-06-08_22-24-54_260595134347_rgbf000093-resize_1-target.png,1000,4.973,6,3186,999,feet,jsons/v1_VE1000_randls_69_rotated.json,982962,2200937,21,Man
36,977488,DepthScenes,duration_manipulation_targetAtFixation,jsons/v1_VE1000_randls_69_rotated.json,http://54.235.29.9/FacialAge/BNav_EC2/DepthDuration/v2_depth_duration_MTurk/v2_DepthDuration_HTML.html#13,13,1707,781,1366,768,8-22-2022,5-6-26,37,depth_duration_stimuli/000483_2014-06-09_20-41-45_260595134347_rgbf000116-resize_4/000483_2014-06-09_20-41-45_260595134347_rgbf000116-resize_4-target.png,1000,1.337,2,4441,1000,feet,jsons/v1_VE1000_randls_69_rotated.json,982962,2200937,21,Man
37,977488,DepthScenes,duration_manipulation_targetAtFixation,jsons/v1_VE1000_randls_69_rotated.json,http://54.235.29.9/FacialAge/BNav_EC2/DepthDuration/v2_depth_duration_MTurk/v2_DepthDuration_HTML.html#13,13,1707,781,1366,768,8-22-2022,5-6-26,38,depth_duration_stimuli/000469_2014-06-09_19-42-10_260595134347_rgbf000081-resize_1/000469_2014-06-09_19-42-10_260595134347_rgbf000081-resize_1-target.png,1000,1.652,3,3508,998,feet,jsons/v1_VE1000_randls_69_rotated.json,982962,2200937,21,Man
38,977488,DepthScenes,duration_manipulation_targetAtFixation,jsons/v1_VE1000_randls_69_rotated.json,http://54.235.29.9/FacialAge/BNav_EC2/DepthDuration/v2_depth_duration_MTurk/v2_DepthDuration_HTML.html#13,13,1707,781,1366,768,8-22-2022,5-6-26,39,depth_duration_stimuli/003079_2014-06-15_15-18-20_094959634447_rgbf000152-resize_8/003079_2014-06-15_15-18-20_094959634447_rgbf000152-resize_8-target.png,1000,2.8775,9,3736,999,feet,jsons/v1_VE1000_randls_69_rotated.json,982962,2200937,21,Man
39,977488,DepthScenes,duration_manipulation_targetAtFixation,jsons/v1_VE1000_randls_69_rotated.json,http://54.235.29.9/FacialAge/BNav_EC2/DepthDuration/v2_depth_duration_MTurk/v2_DepthDuration_HTML.html#13,13,1707,781,1366,768,8-22-2022,5-6-26,40,depth_duration_stimuli/000506_2014-06-08_23-21-00_260595134347_rgbf000070-resize_7/000506_2014-06-08_23-21-00_260595134347_rgbf000070-resize_7-target.png,1000,4.0585,7,4991,1006,feet,jsons/v1_VE1000_randls_69_rotated.json,982962,2200937,21,Man
40,977488,DepthScenes,duration_manipulation_targetAtFixation,jsons/v1_VE1000_randls_69_rotated.json,http://54.235.29.9/FacialAge/BNav_EC2/DepthDuration/v2_depth_duration_MTurk/v2_DepthDuration_HTML.html#13,13,1707,781,1366,768,8-22-2022,5-6-26,41,depth_duration_stimuli/000457_2014-06-08_16-52-43_260595134347_rgbf000199-resize_1/000457_2014-06-08_16-52-43_260595134347_rgbf000199-resize_1-target.png,1000,3.6489999999999996,8,3921,999,feet,jsons/v1_VE1000_randls_69_rotated.json,982962,2200937,21,Man
41,977488,DepthScenes,duration_manipulation_targetAtFixation,jsons/v1_VE1000_randls_69_rotated.json,http://54.235.29.9/FacialAge/BNav_EC2/DepthDuration/v2_depth_duration_MTurk/v2_DepthDuration_HTML.html#13,13,1707,781,1366,768,8-22-2022,5-6-26,42,depth_duration_stimuli/000929_2014-06-09_16-33-19_260595134347_rgbf000139-resize_0/000929_2014-06-09_16-33-19_260595134347_rgbf000139-resize_0-target.png,1000,2.8680000000000003,5,6681,999,feet,jsons/v1_VE1000_randls_69_rotated.json,982962,2200937,21,Man
42,977488,DepthScenes,duration_manipulation_targetAtFixation,jsons/v1_VE1000_randls_69_rotated.json,http://54.235.29.9/FacialAge/BNav_EC2/DepthDuration/v2_depth_duration_MTurk/v2_DepthDuration_HTML.html#13,13,1707,781,1366,768,8-22-2022,5-6-26,43,depth_duration_stimuli/002103_2014-06-25_20-00-40_260595134347_rgbf000049-resize_0/002103_2014-06-25_20-00-40_260595134347_rgbf000049-resize_0-target.png,1000,4.105,8,9674,1005,feet,jsons/v1_VE1000_randls_69_rotated.json,982962,2200937,21,Man
43,977488,DepthScenes,duration_manipulation_targetAtFixation,jsons/v1_VE1000_randls_69_rotated.json,http://54.235.29.9/FacialAge/BNav_EC2/DepthDuration/v2_depth_duration_MTurk/v2_DepthDuration_HTML.html#13,13,1707,781,1366,768,8-22-2022,5-6-26,44,depth_duration_stimuli/002039_2014-06-24_20-22-38_260595134347_rgbf000084-resize_1/002039_2014-06-24_20-22-38_260595134347_rgbf000084-resize_1-target.png,1000,4.408,9,3313,999,feet,jsons/v1_VE1000_randls_69_rotated.json,982962,2200937,21,Man
44,977488,DepthScenes,duration_manipulation_targetAtFixation,jsons/v1_VE1000_randls_69_rotated.json,http://54.235.29.9/FacialAge/BNav_EC2/DepthDuration/v2_depth_duration_MTurk/v2_DepthDuration_HTML.html#13,13,1707,781,1366,768,8-22-2022,5-6-26,45,depth_duration_stimuli/003338_2014-05-20_11-01-23_094959634447_rgbf000051-resize_6/003338_2014-05-20_11-01-23_094959634447_rgbf000051-resize_6-target.png,1000,1.693,3,4804,998,feet,jsons/v1_VE1000_randls_69_rotated.json,982962,2200937,21,Man
45,977488,DepthScenes,duration_manipulation_targetAtFixation,jsons/v1_VE1000_randls_69_rotated.json,http://54.235.29.9/FacialAge/BNav_EC2/DepthDuration/v2_depth_duration_MTurk/v2_DepthDuration_HTML.html#13,13,1707,781,1366,768,8-22-2022,5-6-26,46,depth_duration_stimuli/002509_2014-06-24_13-19-22_094959634447_rgbf000077-resize_0/002509_2014-06-24_13-19-22_094959634447_rgbf000077-resize_0-target.png,1000,1.3065,3,4605,996,feet,jsons/v1_VE1000_randls_69_rotated.json,982962,2200937,21,Man
46,977488,DepthScenes,duration_manipulation_targetAtFixation,jsons/v1_VE1000_randls_69_rotated.json,http://54.235.29.9/FacialAge/BNav_EC2/DepthDuration/v2_depth_duration_MTurk/v2_DepthDuration_HTML.html#13,13,1707,781,1366,768,8-22-2022,5-6-26,47,depth_duration_stimuli/002344_2014-06-28_20-06-29_260595134347_rgbf000030-resize_1/002344_2014-06-28_20-06-29_260595134347_rgbf000030-resize_1-target.png,1000,1.5795,2,4276,999,feet,jsons/v1_VE1000_randls_69_rotated.json,982962,2200937,21,Man
47,977488,DepthScenes,duration_manipulation_targetAtFixation,jsons/v1_VE1000_randls_69_rotated.json,http://54.235.29.9/FacialAge/BNav_EC2/DepthDuration/v2_depth_duration_MTurk/v2_DepthDuration_HTML.html#13,13,1707,781,1366,768,8-22-2022,5-6-26,48,depth_duration_stimuli/002725_2014-06-22_11-47-51_094959634447_rgbf000070-resize_1/002725_2014-06-22_11-47-51_094959634447_rgbf000070-resize_1-target.png,1000,2.195,7,3442,997,feet,jsons/v1_VE1000_randls_69_rotated.json,982962,2200937,21,Man
48,977488,DepthScenes,duration_manipulation_targetAtFixation,jsons/v1_VE1000_randls_69_rotated.json,http://54.235.29.9/FacialAge/BNav_EC2/DepthDuration/v2_depth_duration_MTurk/v2_DepthDuration_HTML.html#13,13,1707,781,1366,768,8-22-2022,5-6-26,49,depth_duration_stimuli/001170_2014-06-17_15-43-44_260595134347_rgbf000096-resize_6/001170_2014-06-17_15-43-44_260595134347_rgbf000096-resize-original.jpg,1000,1.1909999999999998,4,6299,999,feet,jsons/v1_VE1000_randls_69_rotated.json,982962,2200937,21,Man
49,977488,DepthScenes,duration_manipulation_targetAtFixation,jsons/v1_VE1000_randls_69_rotated.json,http://54.235.29.9/FacialAge/BNav_EC2/DepthDuration/v2_depth_duration_MTurk/v2_DepthDuration_HTML.html#13,13,1707,781,1366,768,8-22-2022,5-6-26,50,depth_duration_stimuli/000665_2014-06-09_20-42-35_260595134347_rgbf000110-resize_1/000665_2014-06-09_20-42-35_260595134347_rgbf000110-resize_1-target.png,1000,3.057,6,8799,998,feet,jsons/v1_VE1000_randls_69_rotated.json,982962,2200937,21,Man
50,977488,DepthScenes,duration_manipulation_targetAtFixation,jsons/v1_VE1000_randls_69_rotated.json,http://54.235.29.9/FacialAge/BNav_EC2/DepthDuration/v2_depth_duration_MTurk/v2_DepthDuration_HTML.html#13,13,1707,781,1366,768,8-22-2022,5-6-26,51,depth_duration_stimuli/001150_2014-06-17_15-27-34_260595134347_rgbf000108-resize_2/001150_2014-06-17_15-27-34_260595134347_rgbf000108-resize_2-target.png,1000,4.0325,7,6265,1000,feet,jsons/v1_VE1000_randls_69_rotated.json,982962,2200937,21,Man
51,977488,DepthScenes,duration_manipulation_targetAtFixation,jsons/v1_VE1000_randls_69_rotated.json,http://54.235.29.9/FacialAge/BNav_EC2/DepthDuration/v2_depth_duration_MTurk/v2_DepthDuration_HTML.html#13,13,1707,781,1366,768,8-22-2022,5-6-26,52,depth_duration_stimuli/002678_2014-06-13_16-15-32_094959634447_rgbf000151-resize_6/002678_2014-06-13_16-15-32_094959634447_rgbf000151-resize_6-target.png,1000,2.1830000000000003,6,53536,1296,feet,jsons/v1_VE1000_randls_69_rotated.json,982962,2200937,21,Man
52,977488,DepthScenes,duration_manipulation_targetAtFixation,jsons/v1_VE1000_randls_69_rotated.json,http://54.235.29.9/FacialAge/BNav_EC2/DepthDuration/v2_depth_duration_MTurk/v2_DepthDuration_HTML.html#13,13,1707,781,1366,768,8-22-2022,5-6-26,53,depth_duration_stimuli/000368_2014-06-09_15-53-01_260595134347_rgbf000155-resize_2/000368_2014-06-09_15-53-01_260595134347_rgbf000155-resize_2-target.png,1000,2.4859999999999998,3,4831,999,feet,jsons/v1_VE1000_randls_69_rotated.json,982962,2200937,21,Man
53,977488,DepthScenes,duration_manipulation_targetAtFixation,jsons/v1_VE1000_randls_69_rotated.json,http://54.235.29.9/FacialAge/BNav_EC2/DepthDuration/v2_depth_duration_MTurk/v2_DepthDuration_HTML.html#13,13,1707,781,1366,768,8-22-2022,5-6-26,54,depth_duration_stimuli/001392_2014-06-19_16-07-59_260595134347_rgbf000046-resize_1/001392_2014-06-19_16-07-59_260595134347_rgbf000046-resize_1-target.png,1000,4.135,9,4890,998,feet,jsons/v1_VE1000_randls_69_rotated.json,982962,2200937,21,Man
54,977488,DepthScenes,duration_manipulation_targetAtFixation,jsons/v1_VE1000_randls_69_rotated.json,http://54.235.29.9/FacialAge/BNav_EC2/DepthDuration/v2_depth_duration_MTurk/v2_DepthDuration_HTML.html#13,13,1707,781,1366,768,8-22-2022,5-6-26,55,depth_duration_stimuli/001570_2014-06-20_17-21-09_260595134347_rgbf000135-resize_4/001570_2014-06-20_17-21-09_260595134347_rgbf000135-resize_4-target.png,1000,4.467,9,3812,986,feet,jsons/v1_VE1000_randls_69_rotated.json,982962,2200937,21,Man
55,977488,DepthScenes,duration_manipulation_targetAtFixation,jsons/v1_VE1000_randls_69_rotated.json,http://54.235.29.9/FacialAge/BNav_EC2/DepthDuration/v2_depth_duration_MTurk/v2_DepthDuration_HTML.html#13,13,1707,781,1366,768,8-22-2022,5-6-26,56,depth_duration_stimuli/003228_2014-05-14_13-42-35_094959634447_rgbf000101-resize_1/003228_2014-05-14_13-42-35_094959634447_rgbf000101-resize_1-target.png,1000,1.9680000000000002,3,4325,985,feet,jsons/v1_VE1000_randls_69_rotated.json,982962,2200937,21,Man
56,977488,DepthScenes,duration_manipulation_targetAtFixation,jsons/v1_VE1000_randls_69_rotated.json,http://54.235.29.9/FacialAge/BNav_EC2/DepthDuration/v2_depth_duration_MTurk/v2_DepthDuration_HTML.html#13,13,1707,781,1366,768,8-22-2022,5-6-26,57,depth_duration_stimuli/002600_2014-06-24_14-27-04_094959634447_rgbf000074-resize_2/002600_2014-06-24_14-27-04_094959634447_rgbf000074-resize_2-target.png,1000,2.7575,5,3846,987,feet,jsons/v1_VE1000_randls_69_rotated.json,982962,2200937,21,Man
57,977488,DepthScenes,duration_manipulation_targetAtFixation,jsons/v1_VE1000_randls_69_rotated.json,http://54.235.29.9/FacialAge/BNav_EC2/DepthDuration/v2_depth_duration_MTurk/v2_DepthDuration_HTML.html#13,13,1707,781,1366,768,8-22-2022,5-6-26,58,depth_duration_stimuli/001214_2014-06-17_16-13-55_260595134347_rgbf000111-resize_0/001214_2014-06-17_16-13-55_260595134347_rgbf000111-resize_0-target.png,1000,2.6505,4,3945,1001,feet,jsons/v1_VE1000_randls_69_rotated.json,982962,2200937,21,Man
58,977488,DepthScenes,duration_manipulation_targetAtFixation,jsons/v1_VE1000_randls_69_rotated.json,http://54.235.29.9/FacialAge/BNav_EC2/DepthDuration/v2_depth_duration_MTurk/v2_DepthDuration_HTML.html#13,13,1707,781,1366,768,8-22-2022,5-6-26,59,depth_duration_stimuli/000810_2014-06-08_17-20-01_260595134347_rgbf000105-resize_0/000810_2014-06-08_17-20-01_260595134347_rgbf000105-resize_0-target.png,1000,1.4865,4,4656,998,feet,jsons/v1_VE1000_randls_69_rotated.json,982962,2200937,21,Man
59,977488,DepthScenes,duration_manipulation_targetAtFixation,jsons/v1_VE1000_randls_69_rotated.json,http://54.235.29.9/FacialAge/BNav_EC2/DepthDuration/v2_depth_duration_MTurk/v2_DepthDuration_HTML.html#13,13,1707,781,1366,768,8-22-2022,5-6-26,60,depth_duration_stimuli/000556_2014-06-09_22-42-56_260595134347_rgbf000214-resize_1/000556_2014-06-09_22-42-56_260595134347_rgbf000214-resize_1-target.png,1000,4.8415,6,7669,999,feet,jsons/v1_VE1000_randls_69_rotated.json,982962,2200937,21,Man
60,977488,DepthScenes,duration_manipulation_targetAtFixation,jsons/v1_VE1000_randls_69_rotated.json,http://54.235.29.9/FacialAge/BNav_EC2/DepthDuration/v2_depth_duration_MTurk/v2_DepthDuration_HTML.html#13,13,1707,781,1366,768,8-22-2022,5-6-26,61,depth_duration_stimuli/001158_2014-06-17_15-32-16_260595134347_rgbf000138-resize_2/001158_2014-06-17_15-32-16_260595134347_rgbf000138-resize_2-target.png,1000,4.5315,8,3887,1005,feet,jsons/v1_VE1000_randls_69_rotated.json,982962,2200937,21,Man
61,977488,DepthScenes,duration_manipulation_targetAtFixation,jsons/v1_VE1000_randls_69_rotated.json,http://54.235.29.9/FacialAge/BNav_EC2/DepthDuration/v2_depth_duration_MTurk/v2_DepthDuration_HTML.html#13,13,1707,781,1366,768,8-22-2022,5-6-26,62,depth_duration_stimuli/003010_2014-06-15_12-54-35_094959634447_rgbf000112-resize_0/003010_2014-06-15_12-54-35_094959634447_rgbf000112-resize_0-target.png,1000,3.1185,7,5986,1000,feet,jsons/v1_VE1000_randls_69_rotated.json,982962,2200937,21,Man
62,977488,DepthScenes,duration_manipulation_targetAtFixation,jsons/v1_VE1000_randls_69_rotated.json,http://54.235.29.9/FacialAge/BNav_EC2/DepthDuration/v2_depth_duration_MTurk/v2_DepthDuration_HTML.html#13,13,1707,781,1366,768,8-22-2022,5-6-26,63,depth_duration_stimuli/001810_2014-06-26_20-51-35_260595134347_rgbf000040-resize_3/001810_2014-06-26_20-51-35_260595134347_rgbf000040-resize_3-target.png,1000,2.2525,2,5778,997,feet,jsons/v1_VE1000_randls_69_rotated.json,982962,2200937,21,Man
63,977488,DepthScenes,duration_manipulation_targetAtFixation,jsons/v1_VE1000_randls_69_rotated.json,http://54.235.29.9/FacialAge/BNav_EC2/DepthDuration/v2_depth_duration_MTurk/v2_DepthDuration_HTML.html#13,13,1707,781,1366,768,8-22-2022,5-6-26,64,depth_duration_stimuli/002568_2014-06-24_13-59-21_094959634447_rgbf000062-resize_4/002568_2014-06-24_13-59-21_094959634447_rgbf000062-resize_4-target.png,1000,3.015,4,4539,991,feet,jsons/v1_VE1000_randls_69_rotated.json,982962,2200937,21,Man
64,977488,DepthScenes,duration_manipulation_targetAtFixation,jsons/v1_VE1000_randls_69_rotated.json,http://54.235.29.9/FacialAge/BNav_EC2/DepthDuration/v2_depth_duration_MTurk/v2_DepthDuration_HTML.html#13,13,1707,781,1366,768,8-22-2022,5-6-26,65,depth_duration_stimuli/003492_2014-05-21_15-50-55_094959634447_rgbf000828-resize_1/003492_2014-05-21_15-50-55_094959634447_rgbf000828-resize_1-target.png,1000,4.06875,7,3910,995,feet,jsons/v1_VE1000_randls_69_rotated.json,982962,2200937,21,Man
65,977488,DepthScenes,duration_manipulation_targetAtFixation,jsons/v1_VE1000_randls_69_rotated.json,http://54.235.29.9/FacialAge/BNav_EC2/DepthDuration/v2_depth_duration_MTurk/v2_DepthDuration_HTML.html#13,13,1707,781,1366,768,8-22-2022,5-6-26,66,depth_duration_stimuli/001540_2014-06-20_17-01-05_260595134347_rgbf000086-resize_2/001540_2014-06-20_17-01-05_260595134347_rgbf000086-resize-original.jpg,1000,1.459,3,5899,999,feet,jsons/v1_VE1000_randls_69_rotated.json,982962,2200937,21,Man
66,977488,DepthScenes,duration_manipulation_targetAtFixation,jsons/v1_VE1000_randls_69_rotated.json,http://54.235.29.9/FacialAge/BNav_EC2/DepthDuration/v2_depth_duration_MTurk/v2_DepthDuration_HTML.html#13,13,1707,781,1366,768,8-22-2022,5-6-26,67,depth_duration_stimuli/000854_2014-06-09_19-43-13_260595134347_rgbf000066-resize_0/000854_2014-06-09_19-43-13_260595134347_rgbf000066-resize_0-target.png,1000,3.068,4,4769,998,feet,jsons/v1_VE1000_randls_69_rotated.json,982962,2200937,21,Man
67,977488,DepthScenes,duration_manipulation_targetAtFixation,jsons/v1_VE1000_randls_69_rotated.json,http://54.235.29.9/FacialAge/BNav_EC2/DepthDuration/v2_depth_duration_MTurk/v2_DepthDuration_HTML.html#13,13,1707,781,1366,768,8-22-2022,5-6-26,68,depth_duration_stimuli/000758_2014-06-08_22-05-08_260595134347_rgbf000085-resize_0/000758_2014-06-08_22-05-08_260595134347_rgbf000085-resize_0-target.png,1000,3.3810000000000002,6,5899,998,feet,jsons/v1_VE1000_randls_69_rotated.json,982962,2200937,21,Man
68,977488,DepthScenes,duration_manipulation_targetAtFixation,jsons/v1_VE1000_randls_69_rotated.json,http://54.235.29.9/FacialAge/BNav_EC2/DepthDuration/v2_depth_duration_MTurk/v2_DepthDuration_HTML.html#13,13,1707,781,1366,768,8-22-2022,5-6-26,69,depth_duration_stimuli/000109_2014-05-14_23-41-52_260595134347_rgbf000035-resize_9/000109_2014-05-14_23-41-52_260595134347_rgbf000035-resize_9-target.png,1000,1.3545,3,4035,1000,feet,jsons/v1_VE1000_randls_69_rotated.json,982962,2200937,21,Man
69,977488,DepthScenes,duration_manipulation_targetAtFixation,jsons/v1_VE1000_randls_69_rotated.json,http://54.235.29.9/FacialAge/BNav_EC2/DepthDuration/v2_depth_duration_MTurk/v2_DepthDuration_HTML.html#13,13,1707,781,1366,768,8-22-2022,5-6-26,70,depth_duration_stimuli/000470_2014-06-09_19-42-40_260595134347_rgbf000094-resize_1/000470_2014-06-09_19-42-40_260595134347_rgbf000094-resize_1-target.png,1000,1.831,3,3968,999,feet,jsons/v1_VE1000_randls_69_rotated.json,982962,2200937,21,Man
70,977488,DepthScenes,duration_manipulation_targetAtFixation,jsons/v1_VE1000_randls_69_rotated.json,http://54.235.29.9/FacialAge/BNav_EC2/DepthDuration/v2_depth_duration_MTurk/v2_DepthDuration_HTML.html#13,13,1707,781,1366,768,8-22-2022,5-6-26,71,depth_duration_stimuli/002444_2014-06-28_20-32-08_260595134347_rgbf000027-resize_0/002444_2014-06-28_20-32-08_260595134347_rgbf000027-resize_0-target.png,1000,4.388999999999999,8,5715,1000,feet,jsons/v1_VE1000_randls_69_rotated.json,982962,2200937,21,Man
71,977488,DepthScenes,duration_manipulation_targetAtFixation,jsons/v1_VE1000_randls_69_rotated.json,http://54.235.29.9/FacialAge/BNav_EC2/DepthDuration/v2_depth_duration_MTurk/v2_DepthDuration_HTML.html#13,13,1707,781,1366,768,8-22-2022,5-6-26,72,depth_duration_stimuli/000436_2014-06-09_22-25-11_260595134347_rgbf000137-resize_1/000436_2014-06-09_22-25-11_260595134347_rgbf000137-resize_1-target.png,1000,4.0705,9,4635,995,feet,jsons/v1_VE1000_randls_69_rotated.json,982962,2200937,21,Man
72,977488,DepthScenes,duration_manipulation_targetAtFixation,jsons/v1_VE1000_randls_69_rotated.json,http://54.235.29.9/FacialAge/BNav_EC2/DepthDuration/v2_depth_duration_MTurk/v2_DepthDuration_HTML.html#13,13,1707,781,1366,768,8-22-2022,5-6-26,73,depth_duration_stimuli/001136_2014-06-17_15-19-41_260595134347_rgbf000076-resize_3/001136_2014-06-17_15-19-41_260595134347_rgbf000076-resize_3-target.png,1000,1.8655,3,5534,988,feet,jsons/v1_VE1000_randls_69_rotated.json,982962,2200937,21,Man
73,977488,DepthScenes,duration_manipulation_targetAtFixation,jsons/v1_VE1000_randls_69_rotated.json,http://54.235.29.9/FacialAge/BNav_EC2/DepthDuration/v2_depth_duration_MTurk/v2_DepthDuration_HTML.html#13,13,1707,781,1366,768,8-22-2022,5-6-26,74,depth_duration_stimuli/001164_2014-06-17_15-35-46_260595134347_rgbf000085-resize_3/001164_2014-06-17_15-35-46_260595134347_rgbf000085-resize_3-target.png,1000,2.354,4,6443,1009,feet,jsons/v1_VE1000_randls_69_rotated.json,982962,2200937,21,Man
74,977488,DepthScenes,duration_manipulation_targetAtFixation,jsons/v1_VE1000_randls_69_rotated.json,http://54.235.29.9/FacialAge/BNav_EC2/DepthDuration/v2_depth_duration_MTurk/v2_DepthDuration_HTML.html#13,13,1707,781,1366,768,8-22-2022,5-6-26,75,depth_duration_stimuli/001650_2014-06-20_12-09-00_260595134347_rgbf000087-resize_3/001650_2014-06-20_12-09-00_260595134347_rgbf000087-resize_3-target.png,1000,1.9505,2,3978,1003,feet,jsons/v1_VE1000_randls_69_rotated.json,982962,2200937,21,Man
75,977488,DepthScenes,duration_manipulation_targetAtFixation,jsons/v1_VE1000_randls_69_rotated.json,http://54.235.29.9/FacialAge/BNav_EC2/DepthDuration/v2_depth_duration_MTurk/v2_DepthDuration_HTML.html#13,13,1707,781,1366,768,8-22-2022,5-6-26,76,depth_duration_stimuli/000682_2014-06-08_23-14-58_260595134347_rgbf000041-resize_5/000682_2014-06-08_23-14-58_260595134347_rgbf000041-resize_5-target.png,1000,2.7239999999999998,4,3935,1001,feet,jsons/v1_VE1000_randls_69_rotated.json,982962,2200937,21,Man
76,977488,DepthScenes,duration_manipulation_targetAtFixation,jsons/v1_VE1000_randls_69_rotated.json,http://54.235.29.9/FacialAge/BNav_EC2/DepthDuration/v2_depth_duration_MTurk/v2_DepthDuration_HTML.html#13,13,1707,781,1366,768,8-22-2022,5-6-26,77,depth_duration_stimuli/000549_2014-06-08_22-10-24_260595134347_rgbf000247-resize_3/000549_2014-06-08_22-10-24_260595134347_rgbf000247-resize_3-target.png,1000,1.841,2,4657,998,feet,jsons/v1_VE1000_randls_69_rotated.json,982962,2200937,21,Man
77,977488,DepthScenes,duration_manipulation_targetAtFixation,jsons/v1_VE1000_randls_69_rotated.json,http://54.235.29.9/FacialAge/BNav_EC2/DepthDuration/v2_depth_duration_MTurk/v2_DepthDuration_HTML.html#13,13,1707,781,1366,768,8-22-2022,5-6-26,78,depth_duration_stimuli/001055_2014-06-08_18-45-35_260595134347_rgbf000111-resize_4/001055_2014-06-08_18-45-35_260595134347_rgbf000111-resize_4-target.png,1000,2.4290000000000003,7,4698,1002,feet,jsons/v1_VE1000_randls_69_rotated.json,982962,2200937,21,Man
78,977488,DepthScenes,duration_manipulation_targetAtFixation,jsons/v1_VE1000_randls_69_rotated.json,http://54.235.29.9/FacialAge/BNav_EC2/DepthDuration/v2_depth_duration_MTurk/v2_DepthDuration_HTML.html#13,13,1707,781,1366,768,8-22-2022,5-6-26,79,depth_duration_stimuli/002209_2014-06-28_18-36-10_260595134347_rgbf000051-resize_1/002209_2014-06-28_18-36-10_260595134347_rgbf000051-resize_1-target.png,1000,2.057,3,4523,1003,feet,jsons/v1_VE1000_randls_69_rotated.json,982962,2200937,21,Man
79,977488,DepthScenes,duration_manipulation_targetAtFixation,jsons/v1_VE1000_randls_69_rotated.json,http://54.235.29.9/FacialAge/BNav_EC2/DepthDuration/v2_depth_duration_MTurk/v2_DepthDuration_HTML.html#13,13,1707,781,1366,768,8-22-2022,5-6-26,80,depth_duration_stimuli/002763_2014-06-22_19-13-10_094959634447_rgbf000075-resize_4/002763_2014-06-22_19-13-10_094959634447_rgbf000075-resize_4-target.png,1000,1.68375,6,13343,987,feet,jsons/v1_VE1000_randls_69_rotated.json,982962,2200937,21,Man
80,977488,DepthScenes,duration_manipulation_targetAtFixation,jsons/v1_VE1000_randls_69_rotated.json,http://54.235.29.9/FacialAge/BNav_EC2/DepthDuration/v2_depth_duration_MTurk/v2_DepthDuration_HTML.html#13,13,1707,781,1366,768,8-22-2022,5-6-26,81,depth_duration_stimuli/001032_2014-06-08_13-23-17_260595134347_rgbf000021-resize_3/001032_2014-06-08_13-23-17_260595134347_rgbf000021-resize_3-target.png,1000,3.2725,5,4503,997,feet,jsons/v1_VE1000_randls_69_rotated.json,982962,2200937,21,Man
81,977488,DepthScenes,duration_manipulation_targetAtFixation,jsons/v1_VE1000_randls_69_rotated.json,http://54.235.29.9/FacialAge/BNav_EC2/DepthDuration/v2_depth_duration_MTurk/v2_DepthDuration_HTML.html#13,13,1707,781,1366,768,8-22-2022,5-6-26,82,depth_duration_stimuli/001059_2014-06-08_21-53-27_260595134347_rgbf000061-resize_4/001059_2014-06-08_21-53-27_260595134347_rgbf000061-resize_4-target.png,1000,2.4185,4,4186,999,feet,jsons/v1_VE1000_randls_69_rotated.json,982962,2200937,21,Man
82,977488,DepthScenes,duration_manipulation_targetAtFixation,jsons/v1_VE1000_randls_69_rotated.json,http://54.235.29.9/FacialAge/BNav_EC2/DepthDuration/v2_depth_duration_MTurk/v2_DepthDuration_HTML.html#13,13,1707,781,1366,768,8-22-2022,5-6-26,83,depth_duration_stimuli/000734_2014-06-08_17-39-11_260595134347_rgbf000128-resize_2/000734_2014-06-08_17-39-11_260595134347_rgbf000128-resize_2-target.png,1000,4.098,6,4946,1000,feet,jsons/v1_VE1000_randls_69_rotated.json,982962,2200937,21,Man
83,977488,DepthScenes,duration_manipulation_targetAtFixation,jsons/v1_VE1000_randls_69_rotated.json,http://54.235.29.9/FacialAge/BNav_EC2/DepthDuration/v2_depth_duration_MTurk/v2_DepthDuration_HTML.html#13,13,1707,781,1366,768,8-22-2022,5-6-26,84,depth_duration_stimuli/000739_2014-06-08_18-45-58_260595134347_rgbf000068-resize_1/000739_2014-06-08_18-45-58_260595134347_rgbf000068-resize_1-target.png,1000,3.534,7,4263,1000,feet,jsons/v1_VE1000_randls_69_rotated.json,982962,2200937,21,Man
84,977488,DepthScenes,duration_manipulation_targetAtFixation,jsons/v1_VE1000_randls_69_rotated.json,http://54.235.29.9/FacialAge/BNav_EC2/DepthDuration/v2_depth_duration_MTurk/v2_DepthDuration_HTML.html#13,13,1707,781,1366,768,8-22-2022,5-6-26,85,depth_duration_stimuli/002199_2014-06-28_18-33-56_260595134347_rgbf000074-resize_0/002199_2014-06-28_18-33-56_260595134347_rgbf000074-resize_0-target.png,1000,1.996,1,5558,998,feet,jsons/v1_VE1000_randls_69_rotated.json,982962,2200937,21,Man
85,977488,DepthScenes,duration_manipulation_targetAtFixation,jsons/v1_VE1000_randls_69_rotated.json,http://54.235.29.9/FacialAge/BNav_EC2/DepthDuration/v2_depth_duration_MTurk/v2_DepthDuration_HTML.html#13,13,1707,781,1366,768,8-22-2022,5-6-26,86,depth_duration_stimuli/001056_2014-06-08_18-46-44_260595134347_rgbf000068-resize_0/001056_2014-06-08_18-46-44_260595134347_rgbf000068-resize_0-target.png,1000,2.6625,4,4557,999,feet,jsons/v1_VE1000_randls_69_rotated.json,982962,2200937,21,Man
86,977488,DepthScenes,duration_manipulation_targetAtFixation,jsons/v1_VE1000_randls_69_rotated.json,http://54.235.29.9/FacialAge/BNav_EC2/DepthDuration/v2_depth_duration_MTurk/v2_DepthDuration_HTML.html#13,13,1707,781,1366,768,8-22-2022,5-6-26,87,depth_duration_stimuli/003490_2014-05-21_15-50-11_094959634447_rgbf000101-resize_3/003490_2014-05-21_15-50-11_094959634447_rgbf000101-resize_3-target.png,1000,3.6445,8,4304,992,feet,jsons/v1_VE1000_randls_69_rotated.json,982962,2200937,21,Man
87,977488,DepthScenes,duration_manipulation_targetAtFixation,jsons/v1_VE1000_randls_69_rotated.json,http://54.235.29.9/FacialAge/BNav_EC2/DepthDuration/v2_depth_duration_MTurk/v2_DepthDuration_HTML.html#13,13,1707,781,1366,768,8-22-2022,5-6-26,88,depth_duration_stimuli/001175_2014-06-17_15-45-55_260595134347_rgbf000129-resize_4/001175_2014-06-17_15-45-55_260595134347_rgbf000129-resize_4-target.png,1000,4.255,9,4929,1002,feet,jsons/v1_VE1000_randls_69_rotated.json,982962,2200937,21,Man
88,977488,DepthScenes,duration_manipulation_targetAtFixation,jsons/v1_VE1000_randls_69_rotated.json,http://54.235.29.9/FacialAge/BNav_EC2/DepthDuration/v2_depth_duration_MTurk/v2_DepthDuration_HTML.html#13,13,1707,781,1366,768,8-22-2022,5-6-26,89,depth_duration_stimuli/002657_2014-06-13_15-29-54_094959634447_rgbf000150-resize_1/002657_2014-06-13_15-29-54_094959634447_rgbf000150-resize_1-target.png,1000,4.919,5,5506,998,feet,jsons/v1_VE1000_randls_69_rotated.json,982962,2200937,21,Man
89,977488,DepthScenes,duration_manipulation_targetAtFixation,jsons/v1_VE1000_randls_69_rotated.json,http://54.235.29.9/FacialAge/BNav_EC2/DepthDuration/v2_depth_duration_MTurk/v2_DepthDuration_HTML.html#13,13,1707,781,1366,768,8-22-2022,5-6-26,90,depth_duration_stimuli/002375_2014-06-28_20-13-44_260595134347_rgbf000032-resize_1/002375_2014-06-28_20-13-44_260595134347_rgbf000032-resize_1-target.png,1000,4.0175,4,3970,999,feet,jsons/v1_VE1000_randls_69_rotated.json,982962,2200937,21,Man
90,977488,DepthScenes,duration_manipulation_targetAtFixation,jsons/v1_VE1000_randls_69_rotated.json,http://54.235.29.9/FacialAge/BNav_EC2/DepthDuration/v2_depth_duration_MTurk/v2_DepthDuration_HTML.html#13,13,1707,781,1366,768,8-22-2022,5-6-26,91,depth_duration_stimuli/002425_2014-06-28_20-27-29_260595134347_rgbf000031-resize_8/002425_2014-06-28_20-27-29_260595134347_rgbf000031-resize_8-target.png,1000,3.8960000000000004,7,7010,998,feet,jsons/v1_VE1000_randls_69_rotated.json,982962,2200937,21,Man
91,977488,DepthScenes,duration_manipulation_targetAtFixation,jsons/v1_VE1000_randls_69_rotated.json,http://54.235.29.9/FacialAge/BNav_EC2/DepthDuration/v2_depth_duration_MTurk/v2_DepthDuration_HTML.html#13,13,1707,781,1366,768,8-22-2022,5-6-26,92,depth_duration_stimuli/000642_2014-06-08_16-59-25_260595134347_rgbf000098-resize_2/000642_2014-06-08_16-59-25_260595134347_rgbf000098-resize_2-target.png,1000,2.8815,4,6611,999,feet,jsons/v1_VE1000_randls_69_rotated.json,982962,2200937,21,Man
92,977488,DepthScenes,duration_manipulation_targetAtFixation,jsons/v1_VE1000_randls_69_rotated.json,http://54.235.29.9/FacialAge/BNav_EC2/DepthDuration/v2_depth_duration_MTurk/v2_DepthDuration_HTML.html#13,13,1707,781,1366,768,8-22-2022,5-6-26,93,depth_duration_stimuli/001450_2014-06-19_17-02-03_260595134347_rgbf000203-resize_4/001450_2014-06-19_17-02-03_260595134347_rgbf000203-resize_4-target.png,1000,4.0106666666667,7,4394,999,feet,jsons/v1_VE1000_randls_69_rotated.json,982962,2200937,21,Man
93,977488,DepthScenes,duration_manipulation_targetAtFixation,jsons/v1_VE1000_randls_69_rotated.json,http://54.235.29.9/FacialAge/BNav_EC2/DepthDuration/v2_depth_duration_MTurk/v2_DepthDuration_HTML.html#13,13,1707,781,1366,768,8-22-2022,5-6-26,94,depth_duration_stimuli/001449_2014-06-19_17-01-27_260595134347_rgbf000116-resize_2/001449_2014-06-19_17-01-27_260595134347_rgbf000116-resize_2-target.png,1000,3.452,5,5381,994,feet,jsons/v1_VE1000_randls_69_rotated.json,982962,2200937,21,Man
94,977488,DepthScenes,duration_manipulation_targetAtFixation,jsons/v1_VE1000_randls_69_rotated.json,http://54.235.29.9/FacialAge/BNav_EC2/DepthDuration/v2_depth_duration_MTurk/v2_DepthDuration_HTML.html#13,13,1707,781,1366,768,8-22-2022,5-6-26,95,depth_duration_stimuli/000709_2014-06-08_13-51-55_260595134347_rgbf000068-resize_3/000709_2014-06-08_13-51-55_260595134347_rgbf000068-resize_3-target.png,1000,1.8030000000000002,4,4646,998,feet,jsons/v1_VE1000_randls_69_rotated.json,982962,2200937,21,Man
95,977488,DepthScenes,duration_manipulation_targetAtFixation,jsons/v1_VE1000_randls_69_rotated.json,http://54.235.29.9/FacialAge/BNav_EC2/DepthDuration/v2_depth_duration_MTurk/v2_DepthDuration_HTML.html#13,13,1707,781,1366,768,8-22-2022,5-6-26,96,depth_duration_stimuli/002057_2014-06-24_21-00-13_260595134347_rgbf000120-resize_1/002057_2014-06-24_21-00-13_260595134347_rgbf000120-resize_1-target.png,1000,2.967,7,4427,1003,feet,jsons/v1_VE1000_randls_69_rotated.json,982962,2200937,21,Man
96,977488,DepthScenes,duration_manipulation_targetAtFixation,jsons/v1_VE1000_randls_69_rotated.json,http://54.235.29.9/FacialAge/BNav_EC2/DepthDuration/v2_depth_duration_MTurk/v2_DepthDuration_HTML.html#13,13,1707,781,1366,768,8-22-2022,5-6-26,97,depth_duration_stimuli/002949_2014-06-26_15-57-42_094959634447_rgbf000079-resize_1/002949_2014-06-26_15-57-42_094959634447_rgbf000079-resize_1-target.png,1000,1.8915,4,4131,998,feet,jsons/v1_VE1000_randls_69_rotated.json,982962,2200937,21,Man
97,977488,DepthScenes,duration_manipulation_targetAtFixation,jsons/v1_VE1000_randls_69_rotated.json,http://54.235.29.9/FacialAge/BNav_EC2/DepthDuration/v2_depth_duration_MTurk/v2_DepthDuration_HTML.html#13,13,1707,781,1366,768,8-22-2022,5-6-26,98,depth_duration_stimuli/000522_2014-06-08_13-35-06_260595134347_rgbf000244-resize_1/000522_2014-06-08_13-35-06_260595134347_rgbf000244-resize_1-target.png,1000,2.3715,1,4921,1002,feet,jsons/v1_VE1000_randls_69_rotated.json,982962,2200937,21,Man
98,977488,DepthScenes,duration_manipulation_targetAtFixation,jsons/v1_VE1000_randls_69_rotated.json,http://54.235.29.9/FacialAge/BNav_EC2/DepthDuration/v2_depth_duration_MTurk/v2_DepthDuration_HTML.html#13,13,1707,781,1366,768,8-22-2022,5-6-26,99,depth_duration_stimuli/001222_2014-06-17_16-24-06_260595134347_rgbf000073-resize_0/001222_2014-06-17_16-24-06_260595134347_rgbf000073-resize-original.jpg,1000,1.4385,3,5803,993,feet,jsons/v1_VE1000_randls_69_rotated.json,982962,2200937,21,Man
99,977488,DepthScenes,duration_manipulation_targetAtFixation,jsons/v1_VE1000_randls_69_rotated.json,http://54.235.29.9/FacialAge/BNav_EC2/DepthDuration/v2_depth_duration_MTurk/v2_DepthDuration_HTML.html#13,13,1707,781,1366,768,8-22-2022,5-6-26,100,depth_duration_stimuli/001235_2014-06-17_16-37-36_260595134347_rgbf000084-resize_4/001235_2014-06-17_16-37-36_260595134347_rgbf000084-resize_4-target.png,1000,3.6605,3,19881,1000,feet,jsons/v1_VE1000_randls_69_rotated.json,982962,2200937,21,Man
100,977488,DepthScenes,duration_manipulation_targetAtFixation,jsons/v1_VE1000_randls_69_rotated.json,http://54.235.29.9/FacialAge/BNav_EC2/DepthDuration/v2_depth_duration_MTurk/v2_DepthDuration_HTML.html#13,13,1707,781,1366,768,8-22-2022,5-6-26,101,depth_duration_stimuli/000788_2014-06-08_22-34-36_260595134347_rgbf000131-resize_1/000788_2014-06-08_22-34-36_260595134347_rgbf000131-resize_1-target.png,1000,3.359,5,4127,988,feet,jsons/v1_VE1000_randls_69_rotated.json,982962,2200937,21,Man
101,977488,DepthScenes,duration_manipulation_targetAtFixation,jsons/v1_VE1000_randls_69_rotated.json,http://54.235.29.9/FacialAge/BNav_EC2/DepthDuration/v2_depth_duration_MTurk/v2_DepthDuration_HTML.html#13,13,1707,781,1366,768,8-22-2022,5-6-26,102,depth_duration_stimuli/000191_2014-05-12_17-07-38_260595134347_rgbf000199-resize_0/000191_2014-05-12_17-07-38_260595134347_rgbf000199-resize_0-target.png,1000,3.7995,8,4244,1005,feet,jsons/v1_VE1000_randls_69_rotated.json,982962,2200937,21,Man
102,977488,DepthScenes,duration_manipulation_targetAtFixation,jsons/v1_VE1000_randls_69_rotated.json,http://54.235.29.9/FacialAge/BNav_EC2/DepthDuration/v2_depth_duration_MTurk/v2_DepthDuration_HTML.html#13,13,1707,781,1366,768,8-22-2022,5-6-26,103,depth_duration_stimuli/000493_2014-06-09_21-01-18_260595134347_rgbf000196-resize_3/000493_2014-06-09_21-01-18_260595134347_rgbf000196-resize_3-target.png,1000,3.44,5,4043,985,feet,jsons/v1_VE1000_randls_69_rotated.json,982962,2200937,21,Man
103,977488,DepthScenes,duration_manipulation_targetAtFixation,jsons/v1_VE1000_randls_69_rotated.json,http://54.235.29.9/FacialAge/BNav_EC2/DepthDuration/v2_depth_duration_MTurk/v2_DepthDuration_HTML.html#13,13,1707,781,1366,768,8-22-2022,5-6-26,104,depth_duration_stimuli/000742_2014-06-08_18-48-09_260595134347_rgbf000164-resize_4/000742_2014-06-08_18-48-09_260595134347_rgbf000164-resize_4-target.png,1000,4.632,6,3814,1008,feet,jsons/v1_VE1000_randls_69_rotated.json,982962,2200937,21,Man
104,977488,DepthScenes,duration_manipulation_targetAtFixation,jsons/v1_VE1000_randls_69_rotated.json,http://54.235.29.9/FacialAge/BNav_EC2/DepthDuration/v2_depth_duration_MTurk/v2_DepthDuration_HTML.html#13,13,1707,781,1366,768,8-22-2022,5-6-26,105,depth_duration_stimuli/001066_2014-06-08_22-03-20_260595134347_rgbf000066-resize_4/001066_2014-06-08_22-03-20_260595134347_rgbf000066-resize_4-target.png,1000,4.2330000000000005,9,5172,1001,feet,jsons/v1_VE1000_randls_69_rotated.json,982962,2200937,21,Man
105,977488,DepthScenes,duration_manipulation_targetAtFixation,jsons/v1_VE1000_randls_69_rotated.json,http://54.235.29.9/FacialAge/BNav_EC2/DepthDuration/v2_depth_duration_MTurk/v2_DepthDuration_HTML.html#13,13,1707,781,1366,768,8-22-2022,5-6-26,106,depth_duration_stimuli/000677_2014-06-08_23-10-32_260595134347_rgbf000158-resize_6/000677_2014-06-08_23-10-32_260595134347_rgbf000158-resize_6-target.png,1000,3.556,5,4574,1005,feet,jsons/v1_VE1000_randls_69_rotated.json,982962,2200937,21,Man
106,977488,DepthScenes,duration_manipulation_targetAtFixation,jsons/v1_VE1000_randls_69_rotated.json,http://54.235.29.9/FacialAge/BNav_EC2/DepthDuration/v2_depth_duration_MTurk/v2_DepthDuration_HTML.html#13,13,1707,781,1366,768,8-22-2022,5-6-26,107,depth_duration_stimuli/001029_2014-06-08_13-17-57_260595134347_rgbf000065-resize_1/001029_2014-06-08_13-17-57_260595134347_rgbf000065-resize_1-target.png,1000,3.0835,4,3854,997,feet,jsons/v1_VE1000_randls_69_rotated.json,982962,2200937,21,Man
107,977488,DepthScenes,duration_manipulation_targetAtFixation,jsons/v1_VE1000_randls_69_rotated.json,http://54.235.29.9/FacialAge/BNav_EC2/DepthDuration/v2_depth_duration_MTurk/v2_DepthDuration_HTML.html#13,13,1707,781,1366,768,8-22-2022,5-6-26,108,depth_duration_stimuli/001584_2014-06-20_11-07-43_260595134347_rgbf000002-resize_1/001584_2014-06-20_11-07-43_260595134347_rgbf000002-resize_1-target.png,1000,3.53,4,5168,995,feet,jsons/v1_VE1000_randls_69_rotated.json,982962,2200937,21,Man
108,977488,DepthScenes,duration_manipulation_targetAtFixation,jsons/v1_VE1000_randls_69_rotated.json,http://54.235.29.9/FacialAge/BNav_EC2/DepthDuration/v2_depth_duration_MTurk/v2_DepthDuration_HTML.html#13,13,1707,781,1366,768,8-22-2022,5-6-26,109,depth_duration_stimuli/003621_2014-05-23_18-06-08_094959634447_rgbf000101-resize_1/003621_2014-05-23_18-06-08_094959634447_rgbf000101-resize_1-target.png,1000,3.9835,5,4406,998,feet,jsons/v1_VE1000_randls_69_rotated.json,982962,2200937,21,Man
109,977488,DepthScenes,duration_manipulation_targetAtFixation,jsons/v1_VE1000_randls_69_rotated.json,http://54.235.29.9/FacialAge/BNav_EC2/DepthDuration/v2_depth_duration_MTurk/v2_DepthDuration_HTML.html#13,13,1707,781,1366,768,8-22-2022,5-6-26,110,depth_duration_stimuli/000943_2014-06-09_19-31-07_260595134347_rgbf000128-resize_1/000943_2014-06-09_19-31-07_260595134347_rgbf000128-resize_1-target.png,1000,1.9765,3,4977,997,feet,jsons/v1_VE1000_randls_69_rotated.json,982962,2200937,21,Man
110,977488,DepthScenes,duration_manipulation_targetAtFixation,jsons/v1_VE1000_randls_69_rotated.json,http://54.235.29.9/FacialAge/BNav_EC2/DepthDuration/v2_depth_duration_MTurk/v2_DepthDuration_HTML.html#13,13,1707,781,1366,768,8-22-2022,5-6-26,111,depth_duration_stimuli/003070_2014-06-15_14-58-27_094959634447_rgbf000150-resize_3/003070_2014-06-15_14-58-27_094959634447_rgbf000150-resize_3-target.png,1000,2.9415,5,5945,999,feet,jsons/v1_VE1000_randls_69_rotated.json,982962,2200937,21,Man
111,977488,DepthScenes,duration_manipulation_targetAtFixation,jsons/v1_VE1000_randls_69_rotated.json,http://54.235.29.9/FacialAge/BNav_EC2/DepthDuration/v2_depth_duration_MTurk/v2_DepthDuration_HTML.html#13,13,1707,781,1366,768,8-22-2022,5-6-26,112,depth_duration_stimuli/002467_2014-06-28_20-38-07_260595134347_rgbf000026-resize_2/002467_2014-06-28_20-38-07_260595134347_rgbf000026-resize_2-target.png,1000,4.742,6,4644,999,feet,jsons/v1_VE1000_randls_69_rotated.json,982962,2200937,21,Man
112,977488,DepthScenes,duration_manipulation_targetAtFixation,jsons/v1_VE1000_randls_69_rotated.json,http://54.235.29.9/FacialAge/BNav_EC2/DepthDuration/v2_depth_duration_MTurk/v2_DepthDuration_HTML.html#13,13,1707,781,1366,768,8-22-2022,5-6-26,113,depth_duration_stimuli/002570_2014-06-24_13-59-54_094959634447_rgbf000059-resize_0/002570_2014-06-24_13-59-54_094959634447_rgbf000059-resize_0-target.png,1000,4.037,4,6174,996,feet,jsons/v1_VE1000_randls_69_rotated.json,982962,2200937,21,Man
113,977488,DepthScenes,duration_manipulation_targetAtFixation,jsons/v1_VE1000_randls_69_rotated.json,http://54.235.29.9/FacialAge/BNav_EC2/DepthDuration/v2_depth_duration_MTurk/v2_DepthDuration_HTML.html#13,13,1707,781,1366,768,8-22-2022,5-6-26,114,depth_duration_stimuli/001100_2014-06-15_17-46-26_260595134347_rgbf000225-resize_2/001100_2014-06-15_17-46-26_260595134347_rgbf000225-resize_2-target.png,1000,2.24,2,5595,1001,feet,jsons/v1_VE1000_randls_69_rotated.json,982962,2200937,21,Man
114,977488,DepthScenes,duration_manipulation_targetAtFixation,jsons/v1_VE1000_randls_69_rotated.json,http://54.235.29.9/FacialAge/BNav_EC2/DepthDuration/v2_depth_duration_MTurk/v2_DepthDuration_HTML.html#13,13,1707,781,1366,768,8-22-2022,5-6-26,115,depth_duration_stimuli/002784_2014-06-22_19-26-30_094959634447_rgbf000083-resize_3/002784_2014-06-22_19-26-30_094959634447_rgbf000083-resize_3-target.png,1000,1.8046666666667,2,4186,997,feet,jsons/v1_VE1000_randls_69_rotated.json,982962,2200937,21,Man
115,977488,DepthScenes,duration_manipulation_targetAtFixation,jsons/v1_VE1000_randls_69_rotated.json,http://54.235.29.9/FacialAge/BNav_EC2/DepthDuration/v2_depth_duration_MTurk/v2_DepthDuration_HTML.html#13,13,1707,781,1366,768,8-22-2022,5-6-26,116,depth_duration_stimuli/001094_2014-06-15_17-36-00_260595134347_rgbf000205-resize_0/001094_2014-06-15_17-36-00_260595134347_rgbf000205-resize_0-target.png,1000,4.2175,5,4456,997,feet,jsons/v1_VE1000_randls_69_rotated.json,982962,2200937,21,Man
116,977488,DepthScenes,duration_manipulation_targetAtFixation,jsons/v1_VE1000_randls_69_rotated.json,http://54.235.29.9/FacialAge/BNav_EC2/DepthDuration/v2_depth_duration_MTurk/v2_DepthDuration_HTML.html#13,13,1707,781,1366,768,8-22-2022,5-6-26,117,depth_duration_stimuli/000692_2014-06-08_13-09-42_260595134347_rgbf000199-resize_2/000692_2014-06-08_13-09-42_260595134347_rgbf000199-resize_2-target.png,1000,3.661,9,4155,1000,feet,jsons/v1_VE1000_randls_69_rotated.json,982962,2200937,21,Man
117,977488,DepthScenes,duration_manipulation_targetAtFixation,jsons/v1_VE1000_randls_69_rotated.json,http://54.235.29.9/FacialAge/BNav_EC2/DepthDuration/v2_depth_duration_MTurk/v2_DepthDuration_HTML.html#13,13,1707,781,1366,768,8-22-2022,5-6-26,118,depth_duration_stimuli/002758_2014-06-22_19-11-20_094959634447_rgbf000128-resize_1/002758_2014-06-22_19-11-20_094959634447_rgbf000128-resize_1-target.png,1000,2.555,3,4547,1000,feet,jsons/v1_VE1000_randls_69_rotated.json,982962,2200937,21,Man
118,977488,DepthScenes,duration_manipulation_targetAtFixation,jsons/v1_VE1000_randls_69_rotated.json,http://54.235.29.9/FacialAge/BNav_EC2/DepthDuration/v2_depth_duration_MTurk/v2_DepthDuration_HTML.html#13,13,1707,781,1366,768,8-22-2022,5-6-26,119,depth_duration_stimuli/002630_2014-06-24_14-47-50_094959634447_rgbf000055-resize_1/002630_2014-06-24_14-47-50_094959634447_rgbf000055-resize_1-target.png,1000,3.0095,8,4115,1000,feet,jsons/v1_VE1000_randls_69_rotated.json,982962,2200937,21,Man
119,977488,DepthScenes,duration_manipulation_targetAtFixation,jsons/v1_VE1000_randls_69_rotated.json,http://54.235.29.9/FacialAge/BNav_EC2/DepthDuration/v2_depth_duration_MTurk/v2_DepthDuration_HTML.html#13,13,1707,781,1366,768,8-22-2022,5-6-26,120,depth_duration_stimuli/000787_2014-06-08_22-33-53_260595134347_rgbf000175-resize_1/000787_2014-06-08_22-33-53_260595134347_rgbf000175-resize-original.jpg,1000,4.784,0,4081,1000,feet,jsons/v1_VE1000_randls_69_rotated.json,982962,2200937,21,Man
120,977488,DepthScenes,duration_manipulation_targetAtFixation,jsons/v1_VE1000_randls_69_rotated.json,http://54.235.29.9/FacialAge/BNav_EC2/DepthDuration/v2_depth_duration_MTurk/v2_DepthDuration_HTML.html#13,13,1707,781,1366,768,8-22-2022,5-6-26,121,depth_duration_stimuli/003083_2014-06-15_15-21-03_094959634447_rgbf000063-resize_1/003083_2014-06-15_15-21-03_094959634447_rgbf000063-resize_1-target.png,1000,4.1405,5,4241,998,feet,jsons/v1_VE1000_randls_69_rotated.json,982962,2200937,21,Man
121,977488,DepthScenes,duration_manipulation_targetAtFixation,jsons/v1_VE1000_randls_69_rotated.json,http://54.235.29.9/FacialAge/BNav_EC2/DepthDuration/v2_depth_duration_MTurk/v2_DepthDuration_HTML.html#13,13,1707,781,1366,768,8-22-2022,5-6-26,122,depth_duration_stimuli/000486_2014-06-09_20-47-20_260595134347_rgbf000143-resize_2/000486_2014-06-09_20-47-20_260595134347_rgbf000143-resize_2-target.png,1000,4.8325,6,3931,998,feet,jsons/v1_VE1000_randls_69_rotated.json,982962,2200937,21,Man
122,977488,DepthScenes,duration_manipulation_targetAtFixation,jsons/v1_VE1000_randls_69_rotated.json,http://54.235.29.9/FacialAge/BNav_EC2/DepthDuration/v2_depth_duration_MTurk/v2_DepthDuration_HTML.html#13,13,1707,781,1366,768,8-22-2022,5-6-26,123,depth_duration_stimuli/002805_2014-06-22_19-54-03_094959634447_rgbf000079-resize_1/002805_2014-06-22_19-54-03_094959634447_rgbf000079-resize_1-target.png,1000,3.1439999999999997,4,4029,1000,feet,jsons/v1_VE1000_randls_69_rotated.json,982962,2200937,21,Man
123,977488,DepthScenes,duration_manipulation_targetAtFixation,jsons/v1_VE1000_randls_69_rotated.json,http://54.235.29.9/FacialAge/BNav_EC2/DepthDuration/v2_depth_duration_MTurk/v2_DepthDuration_HTML.html#13,13,1707,781,1366,768,8-22-2022,5-6-26,124,depth_duration_stimuli/000906_2014-06-08_13-35-43_260595134347_rgbf000155-resize_1/000906_2014-06-08_13-35-43_260595134347_rgbf000155-resize_1-target.png,1000,2.8489999999999998,6,4068,995,feet,jsons/v1_VE1000_randls_69_rotated.json,982962,2200937,21,Man
124,977488,DepthScenes,duration_manipulation_targetAtFixation,jsons/v1_VE1000_randls_69_rotated.json,http://54.235.29.9/FacialAge/BNav_EC2/DepthDuration/v2_depth_duration_MTurk/v2_DepthDuration_HTML.html#13,13,1707,781,1366,768,8-22-2022,5-6-26,125,depth_duration_stimuli/001571_2014-06-20_17-21-32_260595134347_rgbf000089-resize_1/001571_2014-06-20_17-21-32_260595134347_rgbf000089-resize_1-target.png,1000,1.86,2,5383,990,feet,jsons/v1_VE1000_randls_69_rotated.json,982962,2200937,21,Man
125,977488,DepthScenes,duration_manipulation_targetAtFixation,jsons/v1_VE1000_randls_69_rotated.json,http://54.235.29.9/FacialAge/BNav_EC2/DepthDuration/v2_depth_duration_MTurk/v2_DepthDuration_HTML.html#13,13,1707,781,1366,768,8-22-2022,5-6-26,126,depth_duration_stimuli/002272_2014-06-28_18-53-56_260595134347_rgbf000067-resize_2/002272_2014-06-28_18-53-56_260595134347_rgbf000067-resize_2-target.png,1000,1.138,1,4657,998,feet,jsons/v1_VE1000_randls_69_rotated.json,982962,2200937,21,Man
126,977488,DepthScenes,duration_manipulation_targetAtFixation,jsons/v1_VE1000_randls_69_rotated.json,http://54.235.29.9/FacialAge/BNav_EC2/DepthDuration/v2_depth_duration_MTurk/v2_DepthDuration_HTML.html#13,13,1707,781,1366,768,8-22-2022,5-6-26,127,depth_duration_stimuli/000866_2014-06-09_20-45-42_260595134347_rgbf000139-resize_1/000866_2014-06-09_20-45-42_260595134347_rgbf000139-resize_1-target.png,1000,3.2155,3,4547,991,feet,jsons/v1_VE1000_randls_69_rotated.json,982962,2200937,21,Man
127,977488,DepthScenes,duration_manipulation_targetAtFixation,jsons/v1_VE1000_randls_69_rotated.json,http://54.235.29.9/FacialAge/BNav_EC2/DepthDuration/v2_depth_duration_MTurk/v2_DepthDuration_HTML.html#13,13,1707,781,1366,768,8-22-2022,5-6-26,128,depth_duration_stimuli/002989_2014-06-15_12-25-03_094959634447_rgbf000150-resize_3/002989_2014-06-15_12-25-03_094959634447_rgbf000150-resize_3-target.png,1000,4.1975,5,4830,986,feet,jsons/v1_VE1000_randls_69_rotated.json,982962,2200937,21,Man
128,977488,DepthScenes,duration_manipulation_targetAtFixation,jsons/v1_VE1000_randls_69_rotated.json,http://54.235.29.9/FacialAge/BNav_EC2/DepthDuration/v2_depth_duration_MTurk/v2_DepthDuration_HTML.html#13,13,1707,781,1366,768,8-22-2022,5-6-26,129,depth_duration_stimuli/001052_2014-06-08_18-24-54_260595134347_rgbf000130-resize_1/001052_2014-06-08_18-24-54_260595134347_rgbf000130-resize_1-target.png,1000,4.1045,5,5121,995,feet,jsons/v1_VE1000_randls_69_rotated.json,982962,2200937,21,Man
129,977488,DepthScenes,duration_manipulation_targetAtFixation,jsons/v1_VE1000_randls_69_rotated.json,http://54.235.29.9/FacialAge/BNav_EC2/DepthDuration/v2_depth_duration_MTurk/v2_DepthDuration_HTML.html#13,13,1707,781,1366,768,8-22-2022,5-6-26,130,depth_duration_stimuli/002988_2014-06-15_12-24-20_094959634447_rgbf000150-resize_1/002988_2014-06-15_12-24-20_094959634447_rgbf000150-resize_1-target.png,1000,4.7669999999999995,6,4464,1002,feet,jsons/v1_VE1000_randls_69_rotated.json,982962,2200937,21,Man
130,977488,DepthScenes,duration_manipulation_targetAtFixation,jsons/v1_VE1000_randls_69_rotated.json,http://54.235.29.9/FacialAge/BNav_EC2/DepthDuration/v2_depth_duration_MTurk/v2_DepthDuration_HTML.html#13,13,1707,781,1366,768,8-22-2022,5-6-26,131,depth_duration_stimuli/003495_2014-05-21_16-01-51_094959634447_rgbf000100-resize_3/003495_2014-05-21_16-01-51_094959634447_rgbf000100-resize_3-target.png,1000,1.6255,2,4308,1007,feet,jsons/v1_VE1000_randls_69_rotated.json,982962,2200937,21,Man
131,977488,DepthScenes,duration_manipulation_targetAtFixation,jsons/v1_VE1000_randls_69_rotated.json,http://54.235.29.9/FacialAge/BNav_EC2/DepthDuration/v2_depth_duration_MTurk/v2_DepthDuration_HTML.html#13,13,1707,781,1366,768,8-22-2022,5-6-26,132,depth_duration_stimuli/001244_2014-06-17_16-47-45_260595134347_rgbf000030-resize_4/001244_2014-06-17_16-47-45_260595134347_rgbf000030-resize_4-target.png,1000,2.0425,3,3978,985,feet,jsons/v1_VE1000_randls_69_rotated.json,982962,2200937,21,Man
132,977488,DepthScenes,duration_manipulation_targetAtFixation,jsons/v1_VE1000_randls_69_rotated.json,http://54.235.29.9/FacialAge/BNav_EC2/DepthDuration/v2_depth_duration_MTurk/v2_DepthDuration_HTML.html#13,13,1707,781,1366,768,8-22-2022,5-6-26,133,depth_duration_stimuli/002136_2014-06-25_21-18-03_260595134347_rgbf000109-resize_3/002136_2014-06-25_21-18-03_260595134347_rgbf000109-resize_3-target.png,1000,1.9569999999999999,2,4088,998,feet,jsons/v1_VE1000_randls_69_rotated.json,982962,2200937,21,Man
133,977488,DepthScenes,duration_manipulation_targetAtFixation,jsons/v1_VE1000_randls_69_rotated.json,http://54.235.29.9/FacialAge/BNav_EC2/DepthDuration/v2_depth_duration_MTurk/v2_DepthDuration_HTML.html#13,13,1707,781,1366,768,8-22-2022,5-6-26,134,depth_duration_stimuli/002964_2014-06-08_17-46-11_094959634447_rgbf000091-resize_4/002964_2014-06-08_17-46-11_094959634447_rgbf000091-resize_4-target.png,1000,1.6909999999999998,1,4532,1001,feet,jsons/v1_VE1000_randls_69_rotated.json,982962,2200937,21,Man
134,977488,DepthScenes,duration_manipulation_targetAtFixation,jsons/v1_VE1000_randls_69_rotated.json,http://54.235.29.9/FacialAge/BNav_EC2/DepthDuration/v2_depth_duration_MTurk/v2_DepthDuration_HTML.html#13,13,1707,781,1366,768,8-22-2022,5-6-26,135,depth_duration_stimuli/000375_2014-06-08_11-17-29_260595134347_rgbf000133-resize_2/000375_2014-06-08_11-17-29_260595134347_rgbf000133-resize-original.jpg,1000,4.718,0,4264,999,feet,jsons/v1_VE1000_randls_69_rotated.json,982962,2200937,21,Man
135,977488,DepthScenes,duration_manipulation_targetAtFixation,jsons/v1_VE1000_randls_69_rotated.json,http://54.235.29.9/FacialAge/BNav_EC2/DepthDuration/v2_depth_duration_MTurk/v2_DepthDuration_HTML.html#13,13,1707,781,1366,768,8-22-2022,5-6-26,136,depth_duration_stimuli/002660_2014-06-13_15-44-18_094959634447_rgbf001878-resize_2/002660_2014-06-13_15-44-18_094959634447_rgbf001878-resize_2-target.png,1000,3.576,4,4069,999,feet,jsons/v1_VE1000_randls_69_rotated.json,982962,2200937,21,Man
136,977488,DepthScenes,duration_manipulation_targetAtFixation,jsons/v1_VE1000_randls_69_rotated.json,http://54.235.29.9/FacialAge/BNav_EC2/DepthDuration/v2_depth_duration_MTurk/v2_DepthDuration_HTML.html#13,13,1707,781,1366,768,8-22-2022,5-6-26,137,depth_duration_stimuli/002153_2014-06-25_21-27-18_260595134347_rgbf000038-resize_5/002153_2014-06-25_21-27-18_260595134347_rgbf000038-resize_5-target.png,1000,2.505,3,3891,999,feet,jsons/v1_VE1000_randls_69_rotated.json,982962,2200937,21,Man
137,977488,DepthScenes,duration_manipulation_targetAtFixation,jsons/v1_VE1000_randls_69_rotated.json,http://54.235.29.9/FacialAge/BNav_EC2/DepthDuration/v2_depth_duration_MTurk/v2_DepthDuration_HTML.html#13,13,1707,781,1366,768,8-22-2022,5-6-26,138,depth_duration_stimuli/000927_2014-06-09_16-32-30_260595134347_rgbf000123-resize_3/000927_2014-06-09_16-32-30_260595134347_rgbf000123-resize_3-target.png,1000,2.6785,4,3935,999,feet,jsons/v1_VE1000_randls_69_rotated.json,982962,2200937,21,Man
138,977488,DepthScenes,duration_manipulation_targetAtFixation,jsons/v1_VE1000_randls_69_rotated.json,http://54.235.29.9/FacialAge/BNav_EC2/DepthDuration/v2_depth_duration_MTurk/v2_DepthDuration_HTML.html#13,13,1707,781,1366,768,8-22-2022,5-6-26,139,depth_duration_stimuli/001110_2014-06-15_17-25-28_260595134347_rgbf000150-resize_1/001110_2014-06-15_17-25-28_260595134347_rgbf000150-resize_1-target.png,1000,1.7115,3,3787,999,feet,jsons/v1_VE1000_randls_69_rotated.json,982962,2200937,21,Man
139,977488,DepthScenes,duration_manipulation_targetAtFixation,jsons/v1_VE1000_randls_69_rotated.json,http://54.235.29.9/FacialAge/BNav_EC2/DepthDuration/v2_depth_duration_MTurk/v2_DepthDuration_HTML.html#13,13,1707,781,1366,768,8-22-2022,5-6-26,140,depth_duration_stimuli/001516_2014-06-20_16-25-09_260595134347_rgbf000076-resize_2/001516_2014-06-20_16-25-09_260595134347_rgbf000076-resize_2-target.png,1000,1.7445,4,4505,1000,feet,jsons/v1_VE1000_randls_69_rotated.json,982962,2200937,21,Man
140,977488,DepthScenes,duration_manipulation_targetAtFixation,jsons/v1_VE1000_randls_69_rotated.json,http://54.235.29.9/FacialAge/BNav_EC2/DepthDuration/v2_depth_duration_MTurk/v2_DepthDuration_HTML.html#13,13,1707,781,1366,768,8-22-2022,5-6-26,141,depth_duration_stimuli/002118_2014-06-25_20-32-08_260595134347_rgbf000078-resize_1/002118_2014-06-25_20-32-08_260595134347_rgbf000078-resize_1-target.png,1000,2.6460000000000004,3,4725,997,feet,jsons/v1_VE1000_randls_69_rotated.json,982962,2200937,21,Man
141,977488,DepthScenes,duration_manipulation_targetAtFixation,jsons/v1_VE1000_randls_69_rotated.json,http://54.235.29.9/FacialAge/BNav_EC2/DepthDuration/v2_depth_duration_MTurk/v2_DepthDuration_HTML.html#13,13,1707,781,1366,768,8-22-2022,5-6-26,142,depth_duration_stimuli/002995_2014-06-15_12-31-26_094959634447_rgbf000150-resize_1/002995_2014-06-15_12-31-26_094959634447_rgbf000150-resize_1-target.png,1000,3.8360000000000003,6,3894,999,feet,jsons/v1_VE1000_randls_69_rotated.json,982962,2200937,21,Man
142,977488,DepthScenes,duration_manipulation_targetAtFixation,jsons/v1_VE1000_randls_69_rotated.json,http://54.235.29.9/FacialAge/BNav_EC2/DepthDuration/v2_depth_duration_MTurk/v2_DepthDuration_HTML.html#13,13,1707,781,1366,768,8-22-2022,5-6-26,143,depth_duration_stimuli/002748_2014-06-22_19-07-22_094959634447_rgbf000078-resize_1/002748_2014-06-22_19-07-22_094959634447_rgbf000078-resize_1-target.png,1000,4.6705,7,5061,987,feet,jsons/v1_VE1000_randls_69_rotated.json,982962,2200937,21,Man
143,977488,DepthScenes,duration_manipulation_targetAtFixation,jsons/v1_VE1000_randls_69_rotated.json,http://54.235.29.9/FacialAge/BNav_EC2/DepthDuration/v2_depth_duration_MTurk/v2_DepthDuration_HTML.html#13,13,1707,781,1366,768,8-22-2022,5-6-26,144,depth_duration_stimuli/000103_2014-05-14_22-01-17_260595134347_rgbf000152-resize_5/000103_2014-05-14_22-01-17_260595134347_rgbf000152-resize_5-target.png,1000,1.993,3,4834,998,feet,jsons/v1_VE1000_randls_69_rotated.json,982962,2200937,21,Man
144,977488,DepthScenes,duration_manipulation_targetAtFixation,jsons/v1_VE1000_randls_69_rotated.json,http://54.235.29.9/FacialAge/BNav_EC2/DepthDuration/v2_depth_duration_MTurk/v2_DepthDuration_HTML.html#13,13,1707,781,1366,768,8-22-2022,5-6-26,145,depth_duration_stimuli/001555_2014-06-20_17-12-10_260595134347_rgbf000065-resize_4/001555_2014-06-20_17-12-10_260595134347_rgbf000065-resize_4-target.png,1000,1.633,1,4369,1001,feet,jsons/v1_VE1000_randls_69_rotated.json,982962,2200937,21,Man
145,977488,DepthScenes,duration_manipulation_targetAtFixation,jsons/v1_VE1000_randls_69_rotated.json,http://54.235.29.9/FacialAge/BNav_EC2/DepthDuration/v2_depth_duration_MTurk/v2_DepthDuration_HTML.html#13,13,1707,781,1366,768,8-22-2022,5-6-26,146,depth_duration_stimuli/000635_2014-06-08_16-38-42_260595134347_rgbf000106-resize_1/000635_2014-06-08_16-38-42_260595134347_rgbf000106-resize_1-target.png,1000,2.074,3,8136,998,feet,jsons/v1_VE1000_randls_69_rotated.json,982962,2200937,21,Man
146,977488,DepthScenes,duration_manipulation_targetAtFixation,jsons/v1_VE1000_randls_69_rotated.json,http://54.235.29.9/FacialAge/BNav_EC2/DepthDuration/v2_depth_duration_MTurk/v2_DepthDuration_HTML.html#13,13,1707,781,1366,768,8-22-2022,5-6-26,147,depth_duration_stimuli/002279_2014-06-28_18-55-32_260595134347_rgbf000040-resize_5/002279_2014-06-28_18-55-32_260595134347_rgbf000040-resize_5-target.png,1000,1.5043333333333,1,4481,991,feet,jsons/v1_VE1000_randls_69_rotated.json,982962,2200937,21,Man
147,977488,DepthScenes,duration_manipulation_targetAtFixation,jsons/v1_VE1000_randls_69_rotated.json,http://54.235.29.9/FacialAge/BNav_EC2/DepthDuration/v2_depth_duration_MTurk/v2_DepthDuration_HTML.html#13,13,1707,781,1366,768,8-22-2022,5-6-26,148,depth_duration_stimuli/001617_2014-06-20_11-35-32_260595134347_rgbf000066-resize_1/001617_2014-06-20_11-35-32_260595134347_rgbf000066-resize_1-target.png,1000,3.7910000000000004,6,4195,1000,feet,jsons/v1_VE1000_randls_69_rotated.json,982962,2200937,21,Man
148,977488,DepthScenes,duration_manipulation_targetAtFixation,jsons/v1_VE1000_randls_69_rotated.json,http://54.235.29.9/FacialAge/BNav_EC2/DepthDuration/v2_depth_duration_MTurk/v2_DepthDuration_HTML.html#13,13,1707,781,1366,768,8-22-2022,5-6-26,149,depth_duration_stimuli/001806_2014-06-26_20-50-20_260595134347_rgbf000091-resize_1/001806_2014-06-26_20-50-20_260595134347_rgbf000091-resize_1-target.png,1000,2.7305,2,4410,1000,feet,jsons/v1_VE1000_randls_69_rotated.json,982962,2200937,21,Man
149,977488,DepthScenes,duration_manipulation_targetAtFixation,jsons/v1_VE1000_randls_69_rotated.json,http://54.235.29.9/FacialAge/BNav_EC2/DepthDuration/v2_depth_duration_MTurk/v2_DepthDuration_HTML.html#13,13,1707,781,1366,768,8-22-2022,5-6-26,150,depth_duration_stimuli/002323_2014-06-28_20-01-54_260595134347_rgbf000051-resize_4/002323_2014-06-28_20-01-54_260595134347_rgbf000051-resize_4-target.png,1000,3.7310000000000003,5,4262,1000,feet,jsons/v1_VE1000_randls_69_rotated.json,982962,2200937,21,Man
150,977488,DepthScenes,duration_manipulation_targetAtFixation,jsons/v1_VE1000_randls_69_rotated.json,http://54.235.29.9/FacialAge/BNav_EC2/DepthDuration/v2_depth_duration_MTurk/v2_DepthDuration_HTML.html#13,13,1707,781,1366,768,8-22-2022,5-6-26,151,depth_duration_stimuli/000917_2014-06-09_22-45-29_260595134347_rgbf000149-resize_3/000917_2014-06-09_22-45-29_260595134347_rgbf000149-resize_3-target.png,1000,4.1865,5,4138,1004,feet,jsons/v1_VE1000_randls_69_rotated.json,982962,2200937,21,Man
151,977488,DepthScenes,duration_manipulation_targetAtFixation,jsons/v1_VE1000_randls_69_rotated.json,http://54.235.29.9/FacialAge/BNav_EC2/DepthDuration/v2_depth_duration_MTurk/v2_DepthDuration_HTML.html#13,13,1707,781,1366,768,8-22-2022,5-6-26,152,depth_duration_stimuli/000569_2014-06-09_22-51-47_260595134347_rgbf000141-resize_3/000569_2014-06-09_22-51-47_260595134347_rgbf000141-resize-original.jpg,1000,4.512,0,3939,1001,feet,jsons/v1_VE1000_randls_69_rotated.json,982962,2200937,21,Man
152,977488,DepthScenes,duration_manipulation_targetAtFixation,jsons/v1_VE1000_randls_69_rotated.json,http://54.235.29.9/FacialAge/BNav_EC2/DepthDuration/v2_depth_duration_MTurk/v2_DepthDuration_HTML.html#13,13,1707,781,1366,768,8-22-2022,5-6-26,153,depth_duration_stimuli/001828_2014-06-26_21-40-03_260595134347_rgbf000024-resize_0/001828_2014-06-26_21-40-03_260595134347_rgbf000024-resize_0-target.png,1000,4.8260000000000005,5,5679,1002,feet,jsons/v1_VE1000_randls_69_rotated.json,982962,2200937,21,Man
153,977488,DepthScenes,duration_manipulation_targetAtFixation,jsons/v1_VE1000_randls_69_rotated.json,http://54.235.29.9/FacialAge/BNav_EC2/DepthDuration/v2_depth_duration_MTurk/v2_DepthDuration_HTML.html#13,13,1707,781,1366,768,8-22-2022,5-6-26,154,depth_duration_stimuli/000009_2014-05-26_14-32-05_260595134347_rgbf000034-resize_3/000009_2014-05-26_14-32-05_260595134347_rgbf000034-resize_3-target.png,1000,3.8715,7,4016,999,feet,jsons/v1_VE1000_randls_69_rotated.json,982962,2200937,21,Man
154,977488,DepthScenes,duration_manipulation_targetAtFixation,jsons/v1_VE1000_randls_69_rotated.json,http://54.235.29.9/FacialAge/BNav_EC2/DepthDuration/v2_depth_duration_MTurk/v2_DepthDuration_HTML.html#13,13,1707,781,1366,768,8-22-2022,5-6-26,155,depth_duration_stimuli/001815_2014-06-26_20-52-55_260595134347_rgbf000020-resize_0/001815_2014-06-26_20-52-55_260595134347_rgbf000020-resize_0-target.png,1000,3.3865,8,6450,1002,feet,jsons/v1_VE1000_randls_69_rotated.json,982962,2200937,21,Man
155,977488,DepthScenes,duration_manipulation_targetAtFixation,jsons/v1_VE1000_randls_69_rotated.json,http://54.235.29.9/FacialAge/BNav_EC2/DepthDuration/v2_depth_duration_MTurk/v2_DepthDuration_HTML.html#13,13,1707,781,1366,768,8-22-2022,5-6-26,156,depth_duration_stimuli/001808_2014-06-26_20-50-58_260595134347_rgbf000029-resize_1/001808_2014-06-26_20-50-58_260595134347_rgbf000029-resize_1-target.png,1000,4.249,8,9922,994,feet,jsons/v1_VE1000_randls_69_rotated.json,982962,2200937,21,Man
156,977488,DepthScenes,duration_manipulation_targetAtFixation,jsons/v1_VE1000_randls_69_rotated.json,http://54.235.29.9/FacialAge/BNav_EC2/DepthDuration/v2_depth_duration_MTurk/v2_DepthDuration_HTML.html#13,13,1707,781,1366,768,8-22-2022,5-6-26,157,depth_duration_stimuli/002545_2014-06-24_13-38-53_094959634447_rgbf000080-resize_4/002545_2014-06-24_13-38-53_094959634447_rgbf000080-resize_4-target.png,1000,1.9205,3,6403,993,feet,jsons/v1_VE1000_randls_69_rotated.json,982962,2200937,21,Man
157,977488,DepthScenes,duration_manipulation_targetAtFixation,jsons/v1_VE1000_randls_69_rotated.json,http://54.235.29.9/FacialAge/BNav_EC2/DepthDuration/v2_depth_duration_MTurk/v2_DepthDuration_HTML.html#13,13,1707,781,1366,768,8-22-2022,5-6-26,158,depth_duration_stimuli/001092_2014-06-15_17-34-58_260595134347_rgbf000171-resize_3/001092_2014-06-15_17-34-58_260595134347_rgbf000171-resize_3-target.png,1000,2.6935,3,4130,999,feet,jsons/v1_VE1000_randls_69_rotated.json,982962,2200937,21,Man
158,977488,DepthScenes,duration_manipulation_targetAtFixation,jsons/v1_VE1000_randls_69_rotated.json,http://54.235.29.9/FacialAge/BNav_EC2/DepthDuration/v2_depth_duration_MTurk/v2_DepthDuration_HTML.html#13,13,1707,781,1366,768,8-22-2022,5-6-26,159,depth_duration_stimuli/002875_2014-06-01_15-19-00_094959634447_rgbf000151-resize_1/002875_2014-06-01_15-19-00_094959634447_rgbf000151-resize_1-target.png,1000,1.9675,3,11044,999,feet,jsons/v1_VE1000_randls_69_rotated.json,982962,2200937,21,Man
159,977488,DepthScenes,duration_manipulation_targetAtFixation,jsons/v1_VE1000_randls_69_rotated.json,http://54.235.29.9/FacialAge/BNav_EC2/DepthDuration/v2_depth_duration_MTurk/v2_DepthDuration_HTML.html#13,13,1707,781,1366,768,8-22-2022,5-6-26,160,depth_duration_stimuli/001011_2014-06-08_23-18-54_260595134347_rgbf000044-resize_4/001011_2014-06-08_23-18-54_260595134347_rgbf000044-resize_4-target.png,1000,2.4730000000000003,4,6825,997,feet,jsons/v1_VE1000_randls_69_rotated.json,982962,2200937,21,Man
160,977488,DepthScenes,duration_manipulation_targetAtFixation,jsons/v1_VE1000_randls_69_rotated.json,http://54.235.29.9/FacialAge/BNav_EC2/DepthDuration/v2_depth_duration_MTurk/v2_DepthDuration_HTML.html#13,13,1707,781,1366,768,8-22-2022,5-6-26,161,depth_duration_stimuli/002750_2014-06-22_19-08-03_094959634447_rgbf000094-resize_4/002750_2014-06-22_19-08-03_094959634447_rgbf000094-resize_4-target.png,1000,2.354,4,4122,1000,feet,jsons/v1_VE1000_randls_69_rotated.json,982962,2200937,21,Man
161,977488,DepthScenes,duration_manipulation_targetAtFixation,jsons/v1_VE1000_randls_69_rotated.json,http://54.235.29.9/FacialAge/BNav_EC2/DepthDuration/v2_depth_duration_MTurk/v2_DepthDuration_HTML.html#13,13,1707,781,1366,768,8-22-2022,5-6-26,162,depth_duration_stimuli/002549_2014-06-24_13-41-39_094959634447_rgbf000022-resize_3/002549_2014-06-24_13-41-39_094959634447_rgbf000022-resize_3-target.png,1000,1.476,2,4306,999,feet,jsons/v1_VE1000_randls_69_rotated.json,982962,2200937,21,Man
162,977488,DepthScenes,duration_manipulation_targetAtFixation,jsons/v1_VE1000_randls_69_rotated.json,http://54.235.29.9/FacialAge/BNav_EC2/DepthDuration/v2_depth_duration_MTurk/v2_DepthDuration_HTML.html#13,13,1707,781,1366,768,8-22-2022,5-6-26,163,depth_duration_stimuli/002953_2014-06-08_17-32-18_094959634447_rgbf000059-resize_5/002953_2014-06-08_17-32-18_094959634447_rgbf000059-resize_5-target.png,1000,1.551,2,5039,997,feet,jsons/v1_VE1000_randls_69_rotated.json,982962,2200937,21,Man
163,977488,DepthScenes,duration_manipulation_targetAtFixation,jsons/v1_VE1000_randls_69_rotated.json,http://54.235.29.9/FacialAge/BNav_EC2/DepthDuration/v2_depth_duration_MTurk/v2_DepthDuration_HTML.html#13,13,1707,781,1366,768,8-22-2022,5-6-26,164,depth_duration_stimuli/000878_2014-06-08_22-52-45_260595134347_rgbf000045-resize_2/000878_2014-06-08_22-52-45_260595134347_rgbf000045-resize_2-target.png,1000,2.092,3,5699,998,feet,jsons/v1_VE1000_randls_69_rotated.json,982962,2200937,21,Man
