,subjID,experimentName,versionName,sequenceName,url,selected_row,windowWidth,windowHeight,screenWidth,screenHeight,startDate,startTime,trial,stimulus,duration,actual_depth,depth_estimate,trial_RT,log_sceneDuration,unitSelection,seq_filepath,experimentTime,totalTime,age,gender
0,977705,DepthScenes,duration_manipulation_targetAtFixation,jsons/VE125_randls_6_rotated.json,http://54.235.29.9/FacialAge/BNav_EC2/DepthDuration/v2_depth_duration_MTurk/v2_DepthDuration_HTML.html#402,402,1680,1050,1680,1050,8-30-2022,9-53-13,1,depth_duration_stimuli/001132_2014-06-17_14-48-54_260595134347_rgbf000100-resize_2/001132_2014-06-17_14-48-54_260595134347_rgbf000100-resize_2-target.png,125,3.753,5,4594,124,feet,jsons/VE125_randls_6_rotated.json,946611,1597655,61,Woman
1,977705,DepthScenes,duration_manipulation_targetAtFixation,jsons/VE125_randls_6_rotated.json,http://54.235.29.9/FacialAge/BNav_EC2/DepthDuration/v2_depth_duration_MTurk/v2_DepthDuration_HTML.html#402,402,1680,1050,1680,1050,8-30-2022,9-53-13,2,depth_duration_stimuli/001133_2014-06-17_14-49-16_260595134347_rgbf000100-resize_0/001133_2014-06-17_14-49-16_260595134347_rgbf000100-resize_0-target.png,125,4.2115,6,4382,121,feet,jsons/VE125_randls_6_rotated.json,946611,1597655,61,Woman
2,977705,DepthScenes,duration_manipulation_targetAtFixation,jsons/VE125_randls_6_rotated.json,http://54.235.29.9/FacialAge/BNav_EC2/DepthDuration/v2_depth_duration_MTurk/v2_DepthDuration_HTML.html#402,402,1680,1050,1680,1050,8-30-2022,9-53-13,3,depth_duration_stimuli/002949_2014-06-26_15-57-42_094959634447_rgbf000079-resize_1/002949_2014-06-26_15-57-42_094959634447_rgbf000079-resize_1-target.png,125,1.8915,3,4108,129,feet,jsons/VE125_randls_6_rotated.json,946611,1597655,61,Woman
3,977705,DepthScenes,duration_manipulation_targetAtFixation,jsons/VE125_randls_6_rotated.json,http://54.235.29.9/FacialAge/BNav_EC2/DepthDuration/v2_depth_duration_MTurk/v2_DepthDuration_HTML.html#402,402,1680,1050,1680,1050,8-30-2022,9-53-13,4,depth_duration_stimuli/000522_2014-06-08_13-35-06_260595134347_rgbf000244-resize_1/000522_2014-06-08_13-35-06_260595134347_rgbf000244-resize_1-target.png,125,2.3715,4,4249,116,feet,jsons/VE125_randls_6_rotated.json,946611,1597655,61,Woman
4,977705,DepthScenes,duration_manipulation_targetAtFixation,jsons/VE125_randls_6_rotated.json,http://54.235.29.9/FacialAge/BNav_EC2/DepthDuration/v2_depth_duration_MTurk/v2_DepthDuration_HTML.html#402,402,1680,1050,1680,1050,8-30-2022,9-53-13,5,depth_duration_stimuli/003083_2014-06-15_15-21-03_094959634447_rgbf000063-resize_1/003083_2014-06-15_15-21-03_094959634447_rgbf000063-resize_1-target.png,125,4.1405,10,8416,117,feet,jsons/VE125_randls_6_rotated.json,946611,1597655,61,Woman
5,977705,DepthScenes,duration_manipulation_targetAtFixation,jsons/VE125_randls_6_rotated.json,http://54.235.29.9/FacialAge/BNav_EC2/DepthDuration/v2_depth_duration_MTurk/v2_DepthDuration_HTML.html#402,402,1680,1050,1680,1050,8-30-2022,9-53-13,6,depth_duration_stimuli/000486_2014-06-09_20-47-20_260595134347_rgbf000143-resize_2/000486_2014-06-09_20-47-20_260595134347_rgbf000143-resize_2-target.png,125,4.8325,3,4009,116,feet,jsons/VE125_randls_6_rotated.json,946611,1597655,61,Woman
6,977705,DepthScenes,duration_manipulation_targetAtFixation,jsons/VE125_randls_6_rotated.json,http://54.235.29.9/FacialAge/BNav_EC2/DepthDuration/v2_depth_duration_MTurk/v2_DepthDuration_HTML.html#402,402,1680,1050,1680,1050,8-30-2022,9-53-13,7,depth_duration_stimuli/003587_2014-05-23_16-48-02_094959634447_rgbf002384-resize_2/003587_2014-05-23_16-48-02_094959634447_rgbf002384-resize_2-target.png,125,1.357,3,5827,128,feet,jsons/VE125_randls_6_rotated.json,946611,1597655,61,Woman
7,977705,DepthScenes,duration_manipulation_targetAtFixation,jsons/VE125_randls_6_rotated.json,http://54.235.29.9/FacialAge/BNav_EC2/DepthDuration/v2_depth_duration_MTurk/v2_DepthDuration_HTML.html#402,402,1680,1050,1680,1050,8-30-2022,9-53-13,8,depth_duration_stimuli/001167_2014-06-17_15-38-07_260595134347_rgbf000108-resize_0/001167_2014-06-17_15-38-07_260595134347_rgbf000108-resize_0-target.png,125,1.8505,4,3975,121,feet,jsons/VE125_randls_6_rotated.json,946611,1597655,61,Woman
8,977705,DepthScenes,duration_manipulation_targetAtFixation,jsons/VE125_randls_6_rotated.json,http://54.235.29.9/FacialAge/BNav_EC2/DepthDuration/v2_depth_duration_MTurk/v2_DepthDuration_HTML.html#402,402,1680,1050,1680,1050,8-30-2022,9-53-13,9,depth_duration_stimuli/001516_2014-06-20_16-25-09_260595134347_rgbf000076-resize_2/001516_2014-06-20_16-25-09_260595134347_rgbf000076-resize_2-target.png,125,1.7445,5,4588,124,feet,jsons/VE125_randls_6_rotated.json,946611,1597655,61,Woman
9,977705,DepthScenes,duration_manipulation_targetAtFixation,jsons/VE125_randls_6_rotated.json,http://54.235.29.9/FacialAge/BNav_EC2/DepthDuration/v2_depth_duration_MTurk/v2_DepthDuration_HTML.html#402,402,1680,1050,1680,1050,8-30-2022,9-53-13,10,depth_duration_stimuli/002118_2014-06-25_20-32-08_260595134347_rgbf000078-resize_1/002118_2014-06-25_20-32-08_260595134347_rgbf000078-resize_1-target.png,125,2.6460000000000004,4,5067,134,feet,jsons/VE125_randls_6_rotated.json,946611,1597655,61,Woman
10,977705,DepthScenes,duration_manipulation_targetAtFixation,jsons/VE125_randls_6_rotated.json,http://54.235.29.9/FacialAge/BNav_EC2/DepthDuration/v2_depth_duration_MTurk/v2_DepthDuration_HTML.html#402,402,1680,1050,1680,1050,8-30-2022,9-53-13,11,depth_duration_stimuli/002340_2014-06-28_20-05-46_260595134347_rgbf000113-resize_0/002340_2014-06-28_20-05-46_260595134347_rgbf000113-resize_0-target.png,125,2.4735,4,5272,135,feet,jsons/VE125_randls_6_rotated.json,946611,1597655,61,Woman
11,977705,DepthScenes,duration_manipulation_targetAtFixation,jsons/VE125_randls_6_rotated.json,http://54.235.29.9/FacialAge/BNav_EC2/DepthDuration/v2_depth_duration_MTurk/v2_DepthDuration_HTML.html#402,402,1680,1050,1680,1050,8-30-2022,9-53-13,12,depth_duration_stimuli/001016_2014-06-09_16-16-10_260595134347_rgbf000112-resize_5/001016_2014-06-09_16-16-10_260595134347_rgbf000112-resize_5-target.png,125,1.6565,6,5523,137,feet,jsons/VE125_randls_6_rotated.json,946611,1597655,61,Woman
12,977705,DepthScenes,duration_manipulation_targetAtFixation,jsons/VE125_randls_6_rotated.json,http://54.235.29.9/FacialAge/BNav_EC2/DepthDuration/v2_depth_duration_MTurk/v2_DepthDuration_HTML.html#402,402,1680,1050,1680,1050,8-30-2022,9-53-13,13,depth_duration_stimuli/003228_2014-05-14_13-42-35_094959634447_rgbf000101-resize_1/003228_2014-05-14_13-42-35_094959634447_rgbf000101-resize_1-target.png,125,1.9680000000000002,3,5283,123,feet,jsons/VE125_randls_6_rotated.json,946611,1597655,61,Woman
13,977705,DepthScenes,duration_manipulation_targetAtFixation,jsons/VE125_randls_6_rotated.json,http://54.235.29.9/FacialAge/BNav_EC2/DepthDuration/v2_depth_duration_MTurk/v2_DepthDuration_HTML.html#402,402,1680,1050,1680,1050,8-30-2022,9-53-13,14,depth_duration_stimuli/002600_2014-06-24_14-27-04_094959634447_rgbf000074-resize_2/002600_2014-06-24_14-27-04_094959634447_rgbf000074-resize_2-target.png,125,2.7575,8,4471,123,feet,jsons/VE125_randls_6_rotated.json,946611,1597655,61,Woman
14,977705,DepthScenes,duration_manipulation_targetAtFixation,jsons/VE125_randls_6_rotated.json,http://54.235.29.9/FacialAge/BNav_EC2/DepthDuration/v2_depth_duration_MTurk/v2_DepthDuration_HTML.html#402,402,1680,1050,1680,1050,8-30-2022,9-53-13,15,depth_duration_stimuli/000854_2014-06-09_19-43-13_260595134347_rgbf000066-resize_0/000854_2014-06-09_19-43-13_260595134347_rgbf000066-resize_0-target.png,125,3.068,5,3738,134,feet,jsons/VE125_randls_6_rotated.json,946611,1597655,61,Woman
15,977705,DepthScenes,duration_manipulation_targetAtFixation,jsons/VE125_randls_6_rotated.json,http://54.235.29.9/FacialAge/BNav_EC2/DepthDuration/v2_depth_duration_MTurk/v2_DepthDuration_HTML.html#402,402,1680,1050,1680,1050,8-30-2022,9-53-13,16,depth_duration_stimuli/000758_2014-06-08_22-05-08_260595134347_rgbf000085-resize_0/000758_2014-06-08_22-05-08_260595134347_rgbf000085-resize_0-target.png,125,3.3810000000000002,10,5546,134,feet,jsons/VE125_randls_6_rotated.json,946611,1597655,61,Woman
16,977705,DepthScenes,duration_manipulation_targetAtFixation,jsons/VE125_randls_6_rotated.json,http://54.235.29.9/FacialAge/BNav_EC2/DepthDuration/v2_depth_duration_MTurk/v2_DepthDuration_HTML.html#402,402,1680,1050,1680,1050,8-30-2022,9-53-13,17,depth_duration_stimuli/001650_2014-06-20_12-09-00_260595134347_rgbf000087-resize_3/001650_2014-06-20_12-09-00_260595134347_rgbf000087-resize_3-target.png,125,1.9505,3,4107,125,feet,jsons/VE125_randls_6_rotated.json,946611,1597655,61,Woman
17,977705,DepthScenes,duration_manipulation_targetAtFixation,jsons/VE125_randls_6_rotated.json,http://54.235.29.9/FacialAge/BNav_EC2/DepthDuration/v2_depth_duration_MTurk/v2_DepthDuration_HTML.html#402,402,1680,1050,1680,1050,8-30-2022,9-53-13,18,depth_duration_stimuli/000682_2014-06-08_23-14-58_260595134347_rgbf000041-resize_5/000682_2014-06-08_23-14-58_260595134347_rgbf000041-resize_5-target.png,125,2.7239999999999998,6,4072,123,feet,jsons/VE125_randls_6_rotated.json,946611,1597655,61,Woman
18,977705,DepthScenes,duration_manipulation_targetAtFixation,jsons/VE125_randls_6_rotated.json,http://54.235.29.9/FacialAge/BNav_EC2/DepthDuration/v2_depth_duration_MTurk/v2_DepthDuration_HTML.html#402,402,1680,1050,1680,1050,8-30-2022,9-53-13,19,depth_duration_stimuli/001498_2014-06-19_17-45-14_260595134347_rgbf000129-resize_4/001498_2014-06-19_17-45-14_260595134347_rgbf000129-resize-original.jpg,125,1.4075,0,4828,131,feet,jsons/VE125_randls_6_rotated.json,946611,1597655,61,Woman
19,977705,DepthScenes,duration_manipulation_targetAtFixation,jsons/VE125_randls_6_rotated.json,http://54.235.29.9/FacialAge/BNav_EC2/DepthDuration/v2_depth_duration_MTurk/v2_DepthDuration_HTML.html#402,402,1680,1050,1680,1050,8-30-2022,9-53-13,20,depth_duration_stimuli/001815_2014-06-26_20-52-55_260595134347_rgbf000020-resize_0/001815_2014-06-26_20-52-55_260595134347_rgbf000020-resize_0-target.png,125,3.3865,10,6044,127,feet,jsons/VE125_randls_6_rotated.json,946611,1597655,61,Woman
20,977705,DepthScenes,duration_manipulation_targetAtFixation,jsons/VE125_randls_6_rotated.json,http://54.235.29.9/FacialAge/BNav_EC2/DepthDuration/v2_depth_duration_MTurk/v2_DepthDuration_HTML.html#402,402,1680,1050,1680,1050,8-30-2022,9-53-13,21,depth_duration_stimuli/001808_2014-06-26_20-50-58_260595134347_rgbf000029-resize_1/001808_2014-06-26_20-50-58_260595134347_rgbf000029-resize_1-target.png,125,4.249,15,4316,130,feet,jsons/VE125_randls_6_rotated.json,946611,1597655,61,Woman
21,977705,DepthScenes,duration_manipulation_targetAtFixation,jsons/VE125_randls_6_rotated.json,http://54.235.29.9/FacialAge/BNav_EC2/DepthDuration/v2_depth_duration_MTurk/v2_DepthDuration_HTML.html#402,402,1680,1050,1680,1050,8-30-2022,9-53-13,22,depth_duration_stimuli/000556_2014-06-09_22-42-56_260595134347_rgbf000214-resize_1/000556_2014-06-09_22-42-56_260595134347_rgbf000214-resize_1-target.png,125,4.8415,8,4281,125,feet,jsons/VE125_randls_6_rotated.json,946611,1597655,61,Woman
22,977705,DepthScenes,duration_manipulation_targetAtFixation,jsons/VE125_randls_6_rotated.json,http://54.235.29.9/FacialAge/BNav_EC2/DepthDuration/v2_depth_duration_MTurk/v2_DepthDuration_HTML.html#402,402,1680,1050,1680,1050,8-30-2022,9-53-13,23,depth_duration_stimuli/001158_2014-06-17_15-32-16_260595134347_rgbf000138-resize_2/001158_2014-06-17_15-32-16_260595134347_rgbf000138-resize_2-target.png,125,4.5315,8,7057,128,feet,jsons/VE125_randls_6_rotated.json,946611,1597655,61,Woman
23,977705,DepthScenes,duration_manipulation_targetAtFixation,jsons/VE125_randls_6_rotated.json,http://54.235.29.9/FacialAge/BNav_EC2/DepthDuration/v2_depth_duration_MTurk/v2_DepthDuration_HTML.html#402,402,1680,1050,1680,1050,8-30-2022,9-53-13,24,depth_duration_stimuli/002444_2014-06-28_20-32-08_260595134347_rgbf000027-resize_0/002444_2014-06-28_20-32-08_260595134347_rgbf000027-resize_0-target.png,125,4.388999999999999,9,5494,126,feet,jsons/VE125_randls_6_rotated.json,946611,1597655,61,Woman
24,977705,DepthScenes,duration_manipulation_targetAtFixation,jsons/VE125_randls_6_rotated.json,http://54.235.29.9/FacialAge/BNav_EC2/DepthDuration/v2_depth_duration_MTurk/v2_DepthDuration_HTML.html#402,402,1680,1050,1680,1050,8-30-2022,9-53-13,25,depth_duration_stimuli/000436_2014-06-09_22-25-11_260595134347_rgbf000137-resize_1/000436_2014-06-09_22-25-11_260595134347_rgbf000137-resize_1-target.png,125,4.0705,6,6111,119,feet,jsons/VE125_randls_6_rotated.json,946611,1597655,61,Woman
25,977705,DepthScenes,duration_manipulation_targetAtFixation,jsons/VE125_randls_6_rotated.json,http://54.235.29.9/FacialAge/BNav_EC2/DepthDuration/v2_depth_duration_MTurk/v2_DepthDuration_HTML.html#402,402,1680,1050,1680,1050,8-30-2022,9-53-13,26,depth_duration_stimuli/002199_2014-06-28_18-33-56_260595134347_rgbf000074-resize_0/002199_2014-06-28_18-33-56_260595134347_rgbf000074-resize_0-target.png,125,1.996,2,5257,131,feet,jsons/VE125_randls_6_rotated.json,946611,1597655,61,Woman
26,977705,DepthScenes,duration_manipulation_targetAtFixation,jsons/VE125_randls_6_rotated.json,http://54.235.29.9/FacialAge/BNav_EC2/DepthDuration/v2_depth_duration_MTurk/v2_DepthDuration_HTML.html#402,402,1680,1050,1680,1050,8-30-2022,9-53-13,27,depth_duration_stimuli/001056_2014-06-08_18-46-44_260595134347_rgbf000068-resize_0/001056_2014-06-08_18-46-44_260595134347_rgbf000068-resize_0-target.png,125,2.6625,6,4314,120,feet,jsons/VE125_randls_6_rotated.json,946611,1597655,61,Woman
27,977705,DepthScenes,duration_manipulation_targetAtFixation,jsons/VE125_randls_6_rotated.json,http://54.235.29.9/FacialAge/BNav_EC2/DepthDuration/v2_depth_duration_MTurk/v2_DepthDuration_HTML.html#402,402,1680,1050,1680,1050,8-30-2022,9-53-13,28,depth_duration_stimuli/000742_2014-06-08_18-48-09_260595134347_rgbf000164-resize_4/000742_2014-06-08_18-48-09_260595134347_rgbf000164-resize_4-target.png,125,4.632,7,4251,117,feet,jsons/VE125_randls_6_rotated.json,946611,1597655,61,Woman
28,977705,DepthScenes,duration_manipulation_targetAtFixation,jsons/VE125_randls_6_rotated.json,http://54.235.29.9/FacialAge/BNav_EC2/DepthDuration/v2_depth_duration_MTurk/v2_DepthDuration_HTML.html#402,402,1680,1050,1680,1050,8-30-2022,9-53-13,29,depth_duration_stimuli/001066_2014-06-08_22-03-20_260595134347_rgbf000066-resize_4/001066_2014-06-08_22-03-20_260595134347_rgbf000066-resize_4-target.png,125,4.2330000000000005,9,4110,134,feet,jsons/VE125_randls_6_rotated.json,946611,1597655,61,Woman
29,977705,DepthScenes,duration_manipulation_targetAtFixation,jsons/VE125_randls_6_rotated.json,http://54.235.29.9/FacialAge/BNav_EC2/DepthDuration/v2_depth_duration_MTurk/v2_DepthDuration_HTML.html#402,402,1680,1050,1680,1050,8-30-2022,9-53-13,30,depth_duration_stimuli/002072_2014-06-24_21-48-06_260595134347_rgbf000115-resize_0/002072_2014-06-24_21-48-06_260595134347_rgbf000115-resize-original.jpg,125,4.702,0,4347,128,feet,jsons/VE125_randls_6_rotated.json,946611,1597655,61,Woman
30,977705,DepthScenes,duration_manipulation_targetAtFixation,jsons/VE125_randls_6_rotated.json,http://54.235.29.9/FacialAge/BNav_EC2/DepthDuration/v2_depth_duration_MTurk/v2_DepthDuration_HTML.html#402,402,1680,1050,1680,1050,8-30-2022,9-53-13,31,depth_duration_stimuli/001032_2014-06-08_13-23-17_260595134347_rgbf000021-resize_3/001032_2014-06-08_13-23-17_260595134347_rgbf000021-resize_3-target.png,125,3.2725,4,4332,103,feet,jsons/VE125_randls_6_rotated.json,946611,1597655,61,Woman
31,977705,DepthScenes,duration_manipulation_targetAtFixation,jsons/VE125_randls_6_rotated.json,http://54.235.29.9/FacialAge/BNav_EC2/DepthDuration/v2_depth_duration_MTurk/v2_DepthDuration_HTML.html#402,402,1680,1050,1680,1050,8-30-2022,9-53-13,32,depth_duration_stimuli/001059_2014-06-08_21-53-27_260595134347_rgbf000061-resize_4/001059_2014-06-08_21-53-27_260595134347_rgbf000061-resize_4-target.png,125,2.4185,5,3895,123,feet,jsons/VE125_randls_6_rotated.json,946611,1597655,61,Woman
32,977705,DepthScenes,duration_manipulation_targetAtFixation,jsons/VE125_randls_6_rotated.json,http://54.235.29.9/FacialAge/BNav_EC2/DepthDuration/v2_depth_duration_MTurk/v2_DepthDuration_HTML.html#402,402,1680,1050,1680,1050,8-30-2022,9-53-13,33,depth_duration_stimuli/000191_2014-05-12_17-07-38_260595134347_rgbf000199-resize_0/000191_2014-05-12_17-07-38_260595134347_rgbf000199-resize_0-target.png,125,3.7995,10,4459,124,feet,jsons/VE125_randls_6_rotated.json,946611,1597655,61,Woman
33,977705,DepthScenes,duration_manipulation_targetAtFixation,jsons/VE125_randls_6_rotated.json,http://54.235.29.9/FacialAge/BNav_EC2/DepthDuration/v2_depth_duration_MTurk/v2_DepthDuration_HTML.html#402,402,1680,1050,1680,1050,8-30-2022,9-53-13,34,depth_duration_stimuli/000493_2014-06-09_21-01-18_260595134347_rgbf000196-resize_3/000493_2014-06-09_21-01-18_260595134347_rgbf000196-resize_3-target.png,125,3.44,8,3750,115,feet,jsons/VE125_randls_6_rotated.json,946611,1597655,61,Woman
34,977705,DepthScenes,duration_manipulation_targetAtFixation,jsons/VE125_randls_6_rotated.json,http://54.235.29.9/FacialAge/BNav_EC2/DepthDuration/v2_depth_duration_MTurk/v2_DepthDuration_HTML.html#402,402,1680,1050,1680,1050,8-30-2022,9-53-13,35,depth_duration_stimuli/001447_2014-06-19_17-00-32_260595134347_rgbf000082-resize_5/001447_2014-06-19_17-00-32_260595134347_rgbf000082-resize_5-target.png,125,4.13775,6,4036,126,feet,jsons/VE125_randls_6_rotated.json,946611,1597655,61,Woman
35,977705,DepthScenes,duration_manipulation_targetAtFixation,jsons/VE125_randls_6_rotated.json,http://54.235.29.9/FacialAge/BNav_EC2/DepthDuration/v2_depth_duration_MTurk/v2_DepthDuration_HTML.html#402,402,1680,1050,1680,1050,8-30-2022,9-53-13,36,depth_duration_stimuli/000447_2014-06-08_16-15-46_260595134347_rgbf000130-resize_1/000447_2014-06-08_16-15-46_260595134347_rgbf000130-resize_1-target.png,125,4.479,8,6525,115,feet,jsons/VE125_randls_6_rotated.json,946611,1597655,61,Woman
36,977705,DepthScenes,duration_manipulation_targetAtFixation,jsons/VE125_randls_6_rotated.json,http://54.235.29.9/FacialAge/BNav_EC2/DepthDuration/v2_depth_duration_MTurk/v2_DepthDuration_HTML.html#402,402,1680,1050,1680,1050,8-30-2022,9-53-13,37,depth_duration_stimuli/002953_2014-06-08_17-32-18_094959634447_rgbf000059-resize_5/002953_2014-06-08_17-32-18_094959634447_rgbf000059-resize_5-target.png,125,1.551,3,4385,121,feet,jsons/VE125_randls_6_rotated.json,946611,1597655,61,Woman
37,977705,DepthScenes,duration_manipulation_targetAtFixation,jsons/VE125_randls_6_rotated.json,http://54.235.29.9/FacialAge/BNav_EC2/DepthDuration/v2_depth_duration_MTurk/v2_DepthDuration_HTML.html#402,402,1680,1050,1680,1050,8-30-2022,9-53-13,38,depth_duration_stimuli/000878_2014-06-08_22-52-45_260595134347_rgbf000045-resize_2/000878_2014-06-08_22-52-45_260595134347_rgbf000045-resize_2-target.png,125,2.092,5,4687,125,feet,jsons/VE125_randls_6_rotated.json,946611,1597655,61,Woman
38,977705,DepthScenes,duration_manipulation_targetAtFixation,jsons/VE125_randls_6_rotated.json,http://54.235.29.9/FacialAge/BNav_EC2/DepthDuration/v2_depth_duration_MTurk/v2_DepthDuration_HTML.html#402,402,1680,1050,1680,1050,8-30-2022,9-53-13,39,depth_duration_stimuli/000866_2014-06-09_20-45-42_260595134347_rgbf000139-resize_1/000866_2014-06-09_20-45-42_260595134347_rgbf000139-resize_1-target.png,125,3.2155,6,4120,114,feet,jsons/VE125_randls_6_rotated.json,946611,1597655,61,Woman
39,977705,DepthScenes,duration_manipulation_targetAtFixation,jsons/VE125_randls_6_rotated.json,http://54.235.29.9/FacialAge/BNav_EC2/DepthDuration/v2_depth_duration_MTurk/v2_DepthDuration_HTML.html#402,402,1680,1050,1680,1050,8-30-2022,9-53-13,40,depth_duration_stimuli/002989_2014-06-15_12-25-03_094959634447_rgbf000150-resize_3/002989_2014-06-15_12-25-03_094959634447_rgbf000150-resize_3-target.png,125,4.1975,0,4194,125,feet,jsons/VE125_randls_6_rotated.json,946611,1597655,61,Woman
40,977705,DepthScenes,duration_manipulation_targetAtFixation,jsons/VE125_randls_6_rotated.json,http://54.235.29.9/FacialAge/BNav_EC2/DepthDuration/v2_depth_duration_MTurk/v2_DepthDuration_HTML.html#402,402,1680,1050,1680,1050,8-30-2022,9-53-13,41,depth_duration_stimuli/002545_2014-06-24_13-38-53_094959634447_rgbf000080-resize_4/002545_2014-06-24_13-38-53_094959634447_rgbf000080-resize_4-target.png,125,1.9205,4,4100,110,feet,jsons/VE125_randls_6_rotated.json,946611,1597655,61,Woman
41,977705,DepthScenes,duration_manipulation_targetAtFixation,jsons/VE125_randls_6_rotated.json,http://54.235.29.9/FacialAge/BNav_EC2/DepthDuration/v2_depth_duration_MTurk/v2_DepthDuration_HTML.html#402,402,1680,1050,1680,1050,8-30-2022,9-53-13,42,depth_duration_stimuli/001092_2014-06-15_17-34-58_260595134347_rgbf000171-resize_3/001092_2014-06-15_17-34-58_260595134347_rgbf000171-resize_3-target.png,125,2.6935,5,5459,120,feet,jsons/VE125_randls_6_rotated.json,946611,1597655,61,Woman
42,977705,DepthScenes,duration_manipulation_targetAtFixation,jsons/VE125_randls_6_rotated.json,http://54.235.29.9/FacialAge/BNav_EC2/DepthDuration/v2_depth_duration_MTurk/v2_DepthDuration_HTML.html#402,402,1680,1050,1680,1050,8-30-2022,9-53-13,43,depth_duration_stimuli/000749_2014-06-08_21-55-06_260595134347_rgbf000070-resize_2/000749_2014-06-08_21-55-06_260595134347_rgbf000070-resize_2-target.png,125,2.331,4,4233,124,feet,jsons/VE125_randls_6_rotated.json,946611,1597655,61,Woman
43,977705,DepthScenes,duration_manipulation_targetAtFixation,jsons/VE125_randls_6_rotated.json,http://54.235.29.9/FacialAge/BNav_EC2/DepthDuration/v2_depth_duration_MTurk/v2_DepthDuration_HTML.html#402,402,1680,1050,1680,1050,8-30-2022,9-53-13,44,depth_duration_stimuli/002788_2014-06-22_19-36-03_094959634447_rgbf000088-resize_2/002788_2014-06-22_19-36-03_094959634447_rgbf000088-resize_2-target.png,125,1.6465,6,4127,131,feet,jsons/VE125_randls_6_rotated.json,946611,1597655,61,Woman
44,977705,DepthScenes,duration_manipulation_targetAtFixation,jsons/VE125_randls_6_rotated.json,http://54.235.29.9/FacialAge/BNav_EC2/DepthDuration/v2_depth_duration_MTurk/v2_DepthDuration_HTML.html#402,402,1680,1050,1680,1050,8-30-2022,9-53-13,45,depth_duration_stimuli/000502_2014-06-08_23-02-32_260595134347_rgbf000063-resize_4/000502_2014-06-08_23-02-32_260595134347_rgbf000063-resize_4-target.png,125,2.431,5,3751,115,feet,jsons/VE125_randls_6_rotated.json,946611,1597655,61,Woman
45,977705,DepthScenes,duration_manipulation_targetAtFixation,jsons/VE125_randls_6_rotated.json,http://54.235.29.9/FacialAge/BNav_EC2/DepthDuration/v2_depth_duration_MTurk/v2_DepthDuration_HTML.html#402,402,1680,1050,1680,1050,8-30-2022,9-53-13,46,depth_duration_stimuli/001199_2014-06-17_16-03-48_260595134347_rgbf000077-resize_0/001199_2014-06-17_16-03-48_260595134347_rgbf000077-resize_0-target.png,125,3.4375,6,3836,119,feet,jsons/VE125_randls_6_rotated.json,946611,1597655,61,Woman
46,977705,DepthScenes,duration_manipulation_targetAtFixation,jsons/VE125_randls_6_rotated.json,http://54.235.29.9/FacialAge/BNav_EC2/DepthDuration/v2_depth_duration_MTurk/v2_DepthDuration_HTML.html#402,402,1680,1050,1680,1050,8-30-2022,9-53-13,47,depth_duration_stimuli/001094_2014-06-15_17-36-00_260595134347_rgbf000205-resize_0/001094_2014-06-15_17-36-00_260595134347_rgbf000205-resize_0-target.png,125,4.2175,9,4716,121,feet,jsons/VE125_randls_6_rotated.json,946611,1597655,61,Woman
47,977705,DepthScenes,duration_manipulation_targetAtFixation,jsons/VE125_randls_6_rotated.json,http://54.235.29.9/FacialAge/BNav_EC2/DepthDuration/v2_depth_duration_MTurk/v2_DepthDuration_HTML.html#402,402,1680,1050,1680,1050,8-30-2022,9-53-13,48,depth_duration_stimuli/000692_2014-06-08_13-09-42_260595134347_rgbf000199-resize_2/000692_2014-06-08_13-09-42_260595134347_rgbf000199-resize_2-target.png,125,3.661,12,4715,126,feet,jsons/VE125_randls_6_rotated.json,946611,1597655,61,Woman
48,977705,DepthScenes,duration_manipulation_targetAtFixation,jsons/VE125_randls_6_rotated.json,http://54.235.29.9/FacialAge/BNav_EC2/DepthDuration/v2_depth_duration_MTurk/v2_DepthDuration_HTML.html#402,402,1680,1050,1680,1050,8-30-2022,9-53-13,49,depth_duration_stimuli/001170_2014-06-17_15-43-44_260595134347_rgbf000096-resize_6/001170_2014-06-17_15-43-44_260595134347_rgbf000096-resize-original.jpg,125,1.1909999999999998,0,4113,130,feet,jsons/VE125_randls_6_rotated.json,946611,1597655,61,Woman
49,977705,DepthScenes,duration_manipulation_targetAtFixation,jsons/VE125_randls_6_rotated.json,http://54.235.29.9/FacialAge/BNav_EC2/DepthDuration/v2_depth_duration_MTurk/v2_DepthDuration_HTML.html#402,402,1680,1050,1680,1050,8-30-2022,9-53-13,50,depth_duration_stimuli/000635_2014-06-08_16-38-42_260595134347_rgbf000106-resize_1/000635_2014-06-08_16-38-42_260595134347_rgbf000106-resize_1-target.png,125,2.074,6,3587,130,feet,jsons/VE125_randls_6_rotated.json,946611,1597655,61,Woman
50,977705,DepthScenes,duration_manipulation_targetAtFixation,jsons/VE125_randls_6_rotated.json,http://54.235.29.9/FacialAge/BNav_EC2/DepthDuration/v2_depth_duration_MTurk/v2_DepthDuration_HTML.html#402,402,1680,1050,1680,1050,8-30-2022,9-53-13,51,depth_duration_stimuli/002279_2014-06-28_18-55-32_260595134347_rgbf000040-resize_5/002279_2014-06-28_18-55-32_260595134347_rgbf000040-resize_5-target.png,125,1.5043333333333,3,3654,130,feet,jsons/VE125_randls_6_rotated.json,946611,1597655,61,Woman
51,977705,DepthScenes,duration_manipulation_targetAtFixation,jsons/VE125_randls_6_rotated.json,http://54.235.29.9/FacialAge/BNav_EC2/DepthDuration/v2_depth_duration_MTurk/v2_DepthDuration_HTML.html#402,402,1680,1050,1680,1050,8-30-2022,9-53-13,52,depth_duration_stimuli/000457_2014-06-08_16-52-43_260595134347_rgbf000199-resize_1/000457_2014-06-08_16-52-43_260595134347_rgbf000199-resize_1-target.png,125,3.6489999999999996,5,3979,119,feet,jsons/VE125_randls_6_rotated.json,946611,1597655,61,Woman
52,977705,DepthScenes,duration_manipulation_targetAtFixation,jsons/VE125_randls_6_rotated.json,http://54.235.29.9/FacialAge/BNav_EC2/DepthDuration/v2_depth_duration_MTurk/v2_DepthDuration_HTML.html#402,402,1680,1050,1680,1050,8-30-2022,9-53-13,53,depth_duration_stimuli/000929_2014-06-09_16-33-19_260595134347_rgbf000139-resize_0/000929_2014-06-09_16-33-19_260595134347_rgbf000139-resize_0-target.png,125,2.8680000000000003,5,4291,124,feet,jsons/VE125_randls_6_rotated.json,946611,1597655,61,Woman
53,977705,DepthScenes,duration_manipulation_targetAtFixation,jsons/VE125_randls_6_rotated.json,http://54.235.29.9/FacialAge/BNav_EC2/DepthDuration/v2_depth_duration_MTurk/v2_DepthDuration_HTML.html#402,402,1680,1050,1680,1050,8-30-2022,9-53-13,54,depth_duration_stimuli/002344_2014-06-28_20-06-29_260595134347_rgbf000030-resize_1/002344_2014-06-28_20-06-29_260595134347_rgbf000030-resize_1-target.png,125,1.5795,3,3898,123,feet,jsons/VE125_randls_6_rotated.json,946611,1597655,61,Woman
54,977705,DepthScenes,duration_manipulation_targetAtFixation,jsons/VE125_randls_6_rotated.json,http://54.235.29.9/FacialAge/BNav_EC2/DepthDuration/v2_depth_duration_MTurk/v2_DepthDuration_HTML.html#402,402,1680,1050,1680,1050,8-30-2022,9-53-13,55,depth_duration_stimuli/002725_2014-06-22_11-47-51_094959634447_rgbf000070-resize_1/002725_2014-06-22_11-47-51_094959634447_rgbf000070-resize_1-target.png,125,2.195,4,14483,152,feet,jsons/VE125_randls_6_rotated.json,946611,1597655,61,Woman
55,977705,DepthScenes,duration_manipulation_targetAtFixation,jsons/VE125_randls_6_rotated.json,http://54.235.29.9/FacialAge/BNav_EC2/DepthDuration/v2_depth_duration_MTurk/v2_DepthDuration_HTML.html#402,402,1680,1050,1680,1050,8-30-2022,9-53-13,56,depth_duration_stimuli/002639_2014-06-24_14-51-37_094959634447_rgbf000074-resize_4/002639_2014-06-24_14-51-37_094959634447_rgbf000074-resize_4-target.png,125,4.0375,6,4099,131,feet,jsons/VE125_randls_6_rotated.json,946611,1597655,61,Woman
56,977705,DepthScenes,duration_manipulation_targetAtFixation,jsons/VE125_randls_6_rotated.json,http://54.235.29.9/FacialAge/BNav_EC2/DepthDuration/v2_depth_duration_MTurk/v2_DepthDuration_HTML.html#402,402,1680,1050,1680,1050,8-30-2022,9-53-13,57,depth_duration_stimuli/003292_2014-05-14_21-53-49_094959634447_rgbf000100-resize_2/003292_2014-05-14_21-53-49_094959634447_rgbf000100-resize_2-target.png,125,3.4815,5,3719,130,feet,jsons/VE125_randls_6_rotated.json,946611,1597655,61,Woman
57,977705,DepthScenes,duration_manipulation_targetAtFixation,jsons/VE125_randls_6_rotated.json,http://54.235.29.9/FacialAge/BNav_EC2/DepthDuration/v2_depth_duration_MTurk/v2_DepthDuration_HTML.html#402,402,1680,1050,1680,1050,8-30-2022,9-53-13,58,depth_duration_stimuli/001136_2014-06-17_15-19-41_260595134347_rgbf000076-resize_3/001136_2014-06-17_15-19-41_260595134347_rgbf000076-resize_3-target.png,125,1.8655,5,4504,124,feet,jsons/VE125_randls_6_rotated.json,946611,1597655,61,Woman
58,977705,DepthScenes,duration_manipulation_targetAtFixation,jsons/VE125_randls_6_rotated.json,http://54.235.29.9/FacialAge/BNav_EC2/DepthDuration/v2_depth_duration_MTurk/v2_DepthDuration_HTML.html#402,402,1680,1050,1680,1050,8-30-2022,9-53-13,59,depth_duration_stimuli/001164_2014-06-17_15-35-46_260595134347_rgbf000085-resize_3/001164_2014-06-17_15-35-46_260595134347_rgbf000085-resize_3-target.png,125,2.354,6,5551,124,feet,jsons/VE125_randls_6_rotated.json,946611,1597655,61,Woman
59,977705,DepthScenes,duration_manipulation_targetAtFixation,jsons/VE125_randls_6_rotated.json,http://54.235.29.9/FacialAge/BNav_EC2/DepthDuration/v2_depth_duration_MTurk/v2_DepthDuration_HTML.html#402,402,1680,1050,1680,1050,8-30-2022,9-53-13,60,depth_duration_stimuli/000483_2014-06-09_20-41-45_260595134347_rgbf000116-resize_4/000483_2014-06-09_20-41-45_260595134347_rgbf000116-resize_4-target.png,125,1.337,3,4209,133,feet,jsons/VE125_randls_6_rotated.json,946611,1597655,61,Woman
60,977705,DepthScenes,duration_manipulation_targetAtFixation,jsons/VE125_randls_6_rotated.json,http://54.235.29.9/FacialAge/BNav_EC2/DepthDuration/v2_depth_duration_MTurk/v2_DepthDuration_HTML.html#402,402,1680,1050,1680,1050,8-30-2022,9-53-13,61,depth_duration_stimuli/000469_2014-06-09_19-42-10_260595134347_rgbf000081-resize_1/000469_2014-06-09_19-42-10_260595134347_rgbf000081-resize_1-target.png,125,1.652,3,3677,112,feet,jsons/VE125_randls_6_rotated.json,946611,1597655,61,Woman
61,977705,DepthScenes,duration_manipulation_targetAtFixation,jsons/VE125_randls_6_rotated.json,http://54.235.29.9/FacialAge/BNav_EC2/DepthDuration/v2_depth_duration_MTurk/v2_DepthDuration_HTML.html#402,402,1680,1050,1680,1050,8-30-2022,9-53-13,62,depth_duration_stimuli/000109_2014-05-14_23-41-52_260595134347_rgbf000035-resize_9/000109_2014-05-14_23-41-52_260595134347_rgbf000035-resize_9-target.png,125,1.3545,3,3953,136,feet,jsons/VE125_randls_6_rotated.json,946611,1597655,61,Woman
62,977705,DepthScenes,duration_manipulation_targetAtFixation,jsons/VE125_randls_6_rotated.json,http://54.235.29.9/FacialAge/BNav_EC2/DepthDuration/v2_depth_duration_MTurk/v2_DepthDuration_HTML.html#402,402,1680,1050,1680,1050,8-30-2022,9-53-13,63,depth_duration_stimuli/000470_2014-06-09_19-42-40_260595134347_rgbf000094-resize_1/000470_2014-06-09_19-42-40_260595134347_rgbf000094-resize_1-target.png,125,1.831,5,5840,121,feet,jsons/VE125_randls_6_rotated.json,946611,1597655,61,Woman
63,977705,DepthScenes,duration_manipulation_targetAtFixation,jsons/VE125_randls_6_rotated.json,http://54.235.29.9/FacialAge/BNav_EC2/DepthDuration/v2_depth_duration_MTurk/v2_DepthDuration_HTML.html#402,402,1680,1050,1680,1050,8-30-2022,9-53-13,64,depth_duration_stimuli/000549_2014-06-08_22-10-24_260595134347_rgbf000247-resize_3/000549_2014-06-08_22-10-24_260595134347_rgbf000247-resize_3-target.png,125,1.841,2,6173,138,feet,jsons/VE125_randls_6_rotated.json,946611,1597655,61,Woman
64,977705,DepthScenes,duration_manipulation_targetAtFixation,jsons/VE125_randls_6_rotated.json,http://54.235.29.9/FacialAge/BNav_EC2/DepthDuration/v2_depth_duration_MTurk/v2_DepthDuration_HTML.html#402,402,1680,1050,1680,1050,8-30-2022,9-53-13,65,depth_duration_stimuli/001055_2014-06-08_18-45-35_260595134347_rgbf000111-resize_4/001055_2014-06-08_18-45-35_260595134347_rgbf000111-resize_4-target.png,125,2.4290000000000003,8,5158,135,feet,jsons/VE125_randls_6_rotated.json,946611,1597655,61,Woman
65,977705,DepthScenes,duration_manipulation_targetAtFixation,jsons/VE125_randls_6_rotated.json,http://54.235.29.9/FacialAge/BNav_EC2/DepthDuration/v2_depth_duration_MTurk/v2_DepthDuration_HTML.html#402,402,1680,1050,1680,1050,8-30-2022,9-53-13,66,depth_duration_stimuli/001540_2014-06-20_17-01-05_260595134347_rgbf000086-resize_2/001540_2014-06-20_17-01-05_260595134347_rgbf000086-resize-original.jpg,125,1.459,0,133969,114,feet,jsons/VE125_randls_6_rotated.json,946611,1597655,61,Woman
66,977705,DepthScenes,duration_manipulation_targetAtFixation,jsons/VE125_randls_6_rotated.json,http://54.235.29.9/FacialAge/BNav_EC2/DepthDuration/v2_depth_duration_MTurk/v2_DepthDuration_HTML.html#402,402,1680,1050,1680,1050,8-30-2022,9-53-13,67,depth_duration_stimuli/002660_2014-06-13_15-44-18_094959634447_rgbf001878-resize_2/002660_2014-06-13_15-44-18_094959634447_rgbf001878-resize_2-target.png,125,3.576,5,3643,138,feet,jsons/VE125_randls_6_rotated.json,946611,1597655,61,Woman
67,977705,DepthScenes,duration_manipulation_targetAtFixation,jsons/VE125_randls_6_rotated.json,http://54.235.29.9/FacialAge/BNav_EC2/DepthDuration/v2_depth_duration_MTurk/v2_DepthDuration_HTML.html#402,402,1680,1050,1680,1050,8-30-2022,9-53-13,68,depth_duration_stimuli/002153_2014-06-25_21-27-18_260595134347_rgbf000038-resize_5/002153_2014-06-25_21-27-18_260595134347_rgbf000038-resize_5-target.png,125,2.505,3,3869,119,feet,jsons/VE125_randls_6_rotated.json,946611,1597655,61,Woman
68,977705,DepthScenes,duration_manipulation_targetAtFixation,jsons/VE125_randls_6_rotated.json,http://54.235.29.9/FacialAge/BNav_EC2/DepthDuration/v2_depth_duration_MTurk/v2_DepthDuration_HTML.html#402,402,1680,1050,1680,1050,8-30-2022,9-53-13,69,depth_duration_stimuli/001617_2014-06-20_11-35-32_260595134347_rgbf000066-resize_1/001617_2014-06-20_11-35-32_260595134347_rgbf000066-resize_1-target.png,125,3.7910000000000004,8,5031,126,feet,jsons/VE125_randls_6_rotated.json,946611,1597655,61,Woman
69,977705,DepthScenes,duration_manipulation_targetAtFixation,jsons/VE125_randls_6_rotated.json,http://54.235.29.9/FacialAge/BNav_EC2/DepthDuration/v2_depth_duration_MTurk/v2_DepthDuration_HTML.html#402,402,1680,1050,1680,1050,8-30-2022,9-53-13,70,depth_duration_stimuli/001806_2014-06-26_20-50-20_260595134347_rgbf000091-resize_1/001806_2014-06-26_20-50-20_260595134347_rgbf000091-resize_1-target.png,125,2.7305,4,4009,123,feet,jsons/VE125_randls_6_rotated.json,946611,1597655,61,Woman
70,977705,DepthScenes,duration_manipulation_targetAtFixation,jsons/VE125_randls_6_rotated.json,http://54.235.29.9/FacialAge/BNav_EC2/DepthDuration/v2_depth_duration_MTurk/v2_DepthDuration_HTML.html#402,402,1680,1050,1680,1050,8-30-2022,9-53-13,71,depth_duration_stimuli/002467_2014-06-28_20-38-07_260595134347_rgbf000026-resize_2/002467_2014-06-28_20-38-07_260595134347_rgbf000026-resize_2-target.png,125,4.742,8,4068,127,feet,jsons/VE125_randls_6_rotated.json,946611,1597655,61,Woman
71,977705,DepthScenes,duration_manipulation_targetAtFixation,jsons/VE125_randls_6_rotated.json,http://54.235.29.9/FacialAge/BNav_EC2/DepthDuration/v2_depth_duration_MTurk/v2_DepthDuration_HTML.html#402,402,1680,1050,1680,1050,8-30-2022,9-53-13,72,depth_duration_stimuli/002570_2014-06-24_13-59-54_094959634447_rgbf000059-resize_0/002570_2014-06-24_13-59-54_094959634447_rgbf000059-resize_0-target.png,125,4.037,6,4024,120,feet,jsons/VE125_randls_6_rotated.json,946611,1597655,61,Woman
72,977705,DepthScenes,duration_manipulation_targetAtFixation,jsons/VE125_randls_6_rotated.json,http://54.235.29.9/FacialAge/BNav_EC2/DepthDuration/v2_depth_duration_MTurk/v2_DepthDuration_HTML.html#402,402,1680,1050,1680,1050,8-30-2022,9-53-13,73,depth_duration_stimuli/002805_2014-06-22_19-54-03_094959634447_rgbf000079-resize_1/002805_2014-06-22_19-54-03_094959634447_rgbf000079-resize_1-target.png,125,3.1439999999999997,15,12625,136,feet,jsons/VE125_randls_6_rotated.json,946611,1597655,61,Woman
73,977705,DepthScenes,duration_manipulation_targetAtFixation,jsons/VE125_randls_6_rotated.json,http://54.235.29.9/FacialAge/BNav_EC2/DepthDuration/v2_depth_duration_MTurk/v2_DepthDuration_HTML.html#402,402,1680,1050,1680,1050,8-30-2022,9-53-13,74,depth_duration_stimuli/000906_2014-06-08_13-35-43_260595134347_rgbf000155-resize_1/000906_2014-06-08_13-35-43_260595134347_rgbf000155-resize_1-target.png,125,2.8489999999999998,5,3926,111,feet,jsons/VE125_randls_6_rotated.json,946611,1597655,61,Woman
74,977705,DepthScenes,duration_manipulation_targetAtFixation,jsons/VE125_randls_6_rotated.json,http://54.235.29.9/FacialAge/BNav_EC2/DepthDuration/v2_depth_duration_MTurk/v2_DepthDuration_HTML.html#402,402,1680,1050,1680,1050,8-30-2022,9-53-13,75,depth_duration_stimuli/002414_2014-06-28_20-24-58_260595134347_rgbf000067-resize_4/002414_2014-06-28_20-24-58_260595134347_rgbf000067-resize_4-target.png,125,4.363,7,4420,127,feet,jsons/VE125_randls_6_rotated.json,946611,1597655,61,Woman
75,977705,DepthScenes,duration_manipulation_targetAtFixation,jsons/VE125_randls_6_rotated.json,http://54.235.29.9/FacialAge/BNav_EC2/DepthDuration/v2_depth_duration_MTurk/v2_DepthDuration_HTML.html#402,402,1680,1050,1680,1050,8-30-2022,9-53-13,76,depth_duration_stimuli/000773_2014-06-08_22-24-54_260595134347_rgbf000093-resize_1/000773_2014-06-08_22-24-54_260595134347_rgbf000093-resize_1-target.png,125,4.973,10,4799,125,feet,jsons/VE125_randls_6_rotated.json,946611,1597655,61,Woman
76,977705,DepthScenes,duration_manipulation_targetAtFixation,jsons/VE125_randls_6_rotated.json,http://54.235.29.9/FacialAge/BNav_EC2/DepthDuration/v2_depth_duration_MTurk/v2_DepthDuration_HTML.html#402,402,1680,1050,1680,1050,8-30-2022,9-53-13,77,depth_duration_stimuli/000709_2014-06-08_13-51-55_260595134347_rgbf000068-resize_3/000709_2014-06-08_13-51-55_260595134347_rgbf000068-resize_3-target.png,125,1.8030000000000002,6,3504,133,feet,jsons/VE125_randls_6_rotated.json,946611,1597655,61,Woman
77,977705,DepthScenes,duration_manipulation_targetAtFixation,jsons/VE125_randls_6_rotated.json,http://54.235.29.9/FacialAge/BNav_EC2/DepthDuration/v2_depth_duration_MTurk/v2_DepthDuration_HTML.html#402,402,1680,1050,1680,1050,8-30-2022,9-53-13,78,depth_duration_stimuli/002057_2014-06-24_21-00-13_260595134347_rgbf000120-resize_1/002057_2014-06-24_21-00-13_260595134347_rgbf000120-resize_1-target.png,125,2.967,6,3850,109,feet,jsons/VE125_randls_6_rotated.json,946611,1597655,61,Woman
78,977705,DepthScenes,duration_manipulation_targetAtFixation,jsons/VE125_randls_6_rotated.json,http://54.235.29.9/FacialAge/BNav_EC2/DepthDuration/v2_depth_duration_MTurk/v2_DepthDuration_HTML.html#402,402,1680,1050,1680,1050,8-30-2022,9-53-13,79,depth_duration_stimuli/002750_2014-06-22_19-08-03_094959634447_rgbf000094-resize_4/002750_2014-06-22_19-08-03_094959634447_rgbf000094-resize_4-target.png,125,2.354,5,4293,123,feet,jsons/VE125_randls_6_rotated.json,946611,1597655,61,Woman
79,977705,DepthScenes,duration_manipulation_targetAtFixation,jsons/VE125_randls_6_rotated.json,http://54.235.29.9/FacialAge/BNav_EC2/DepthDuration/v2_depth_duration_MTurk/v2_DepthDuration_HTML.html#402,402,1680,1050,1680,1050,8-30-2022,9-53-13,80,depth_duration_stimuli/002549_2014-06-24_13-41-39_094959634447_rgbf000022-resize_3/002549_2014-06-24_13-41-39_094959634447_rgbf000022-resize_3-target.png,125,1.476,3,3843,136,feet,jsons/VE125_randls_6_rotated.json,946611,1597655,61,Woman
80,977705,DepthScenes,duration_manipulation_targetAtFixation,jsons/VE125_randls_6_rotated.json,http://54.235.29.9/FacialAge/BNav_EC2/DepthDuration/v2_depth_duration_MTurk/v2_DepthDuration_HTML.html#402,402,1680,1050,1680,1050,8-30-2022,9-53-13,81,depth_duration_stimuli/003338_2014-05-20_11-01-23_094959634447_rgbf000051-resize_6/003338_2014-05-20_11-01-23_094959634447_rgbf000051-resize_6-target.png,125,1.693,3,3288,122,feet,jsons/VE125_randls_6_rotated.json,946611,1597655,61,Woman
81,977705,DepthScenes,duration_manipulation_targetAtFixation,jsons/VE125_randls_6_rotated.json,http://54.235.29.9/FacialAge/BNav_EC2/DepthDuration/v2_depth_duration_MTurk/v2_DepthDuration_HTML.html#402,402,1680,1050,1680,1050,8-30-2022,9-53-13,82,depth_duration_stimuli/002509_2014-06-24_13-19-22_094959634447_rgbf000077-resize_0/002509_2014-06-24_13-19-22_094959634447_rgbf000077-resize_0-target.png,125,1.3065,0,4990,176,feet,jsons/VE125_randls_6_rotated.json,946611,1597655,61,Woman
82,977705,DepthScenes,duration_manipulation_targetAtFixation,jsons/VE125_randls_6_rotated.json,http://54.235.29.9/FacialAge/BNav_EC2/DepthDuration/v2_depth_duration_MTurk/v2_DepthDuration_HTML.html#402,402,1680,1050,1680,1050,8-30-2022,9-53-13,83,depth_duration_stimuli/002657_2014-06-13_15-29-54_094959634447_rgbf000150-resize_1/002657_2014-06-13_15-29-54_094959634447_rgbf000150-resize_1-target.png,125,4.919,3,3884,119,feet,jsons/VE125_randls_6_rotated.json,946611,1597655,61,Woman
83,977705,DepthScenes,duration_manipulation_targetAtFixation,jsons/VE125_randls_6_rotated.json,http://54.235.29.9/FacialAge/BNav_EC2/DepthDuration/v2_depth_duration_MTurk/v2_DepthDuration_HTML.html#402,402,1680,1050,1680,1050,8-30-2022,9-53-13,84,depth_duration_stimuli/002375_2014-06-28_20-13-44_260595134347_rgbf000032-resize_1/002375_2014-06-28_20-13-44_260595134347_rgbf000032-resize_1-target.png,125,4.0175,5,3698,125,feet,jsons/VE125_randls_6_rotated.json,946611,1597655,61,Woman
84,977705,DepthScenes,duration_manipulation_targetAtFixation,jsons/VE125_randls_6_rotated.json,http://54.235.29.9/FacialAge/BNav_EC2/DepthDuration/v2_depth_duration_MTurk/v2_DepthDuration_HTML.html#402,402,1680,1050,1680,1050,8-30-2022,9-53-13,85,depth_duration_stimuli/001584_2014-06-20_11-07-43_260595134347_rgbf000002-resize_1/001584_2014-06-20_11-07-43_260595134347_rgbf000002-resize_1-target.png,125,3.53,6,4732,119,feet,jsons/VE125_randls_6_rotated.json,946611,1597655,61,Woman
85,977705,DepthScenes,duration_manipulation_targetAtFixation,jsons/VE125_randls_6_rotated.json,http://54.235.29.9/FacialAge/BNav_EC2/DepthDuration/v2_depth_duration_MTurk/v2_DepthDuration_HTML.html#402,402,1680,1050,1680,1050,8-30-2022,9-53-13,86,depth_duration_stimuli/003621_2014-05-23_18-06-08_094959634447_rgbf000101-resize_1/003621_2014-05-23_18-06-08_094959634447_rgbf000101-resize_1-target.png,125,3.9835,10,4554,119,feet,jsons/VE125_randls_6_rotated.json,946611,1597655,61,Woman
86,977705,DepthScenes,duration_manipulation_targetAtFixation,jsons/VE125_randls_6_rotated.json,http://54.235.29.9/FacialAge/BNav_EC2/DepthDuration/v2_depth_duration_MTurk/v2_DepthDuration_HTML.html#402,402,1680,1050,1680,1050,8-30-2022,9-53-13,87,depth_duration_stimuli/003081_2014-06-15_15-19-16_094959634447_rgbf000150-resize_1/003081_2014-06-15_15-19-16_094959634447_rgbf000150-resize_1-target.png,125,3.9125,10,4152,128,feet,jsons/VE125_randls_6_rotated.json,946611,1597655,61,Woman
87,977705,DepthScenes,duration_manipulation_targetAtFixation,jsons/VE125_randls_6_rotated.json,http://54.235.29.9/FacialAge/BNav_EC2/DepthDuration/v2_depth_duration_MTurk/v2_DepthDuration_HTML.html#402,402,1680,1050,1680,1050,8-30-2022,9-53-13,88,depth_duration_stimuli/001417_2014-06-19_16-25-36_260595134347_rgbf000115-resize_5/001417_2014-06-19_16-25-36_260595134347_rgbf000115-resize_5-target.png,125,4.6255,8,3672,137,feet,jsons/VE125_randls_6_rotated.json,946611,1597655,61,Woman
88,977705,DepthScenes,duration_manipulation_targetAtFixation,jsons/VE125_randls_6_rotated.json,http://54.235.29.9/FacialAge/BNav_EC2/DepthDuration/v2_depth_duration_MTurk/v2_DepthDuration_HTML.html#402,402,1680,1050,1680,1050,8-30-2022,9-53-13,89,depth_duration_stimuli/003079_2014-06-15_15-18-20_094959634447_rgbf000152-resize_8/003079_2014-06-15_15-18-20_094959634447_rgbf000152-resize_8-target.png,125,2.8775,10,5471,114,feet,jsons/VE125_randls_6_rotated.json,946611,1597655,61,Woman
89,977705,DepthScenes,duration_manipulation_targetAtFixation,jsons/VE125_randls_6_rotated.json,http://54.235.29.9/FacialAge/BNav_EC2/DepthDuration/v2_depth_duration_MTurk/v2_DepthDuration_HTML.html#402,402,1680,1050,1680,1050,8-30-2022,9-53-13,90,depth_duration_stimuli/000506_2014-06-08_23-21-00_260595134347_rgbf000070-resize_7/000506_2014-06-08_23-21-00_260595134347_rgbf000070-resize_7-target.png,125,4.0585,5,4363,124,feet,jsons/VE125_randls_6_rotated.json,946611,1597655,61,Woman
90,977705,DepthScenes,duration_manipulation_targetAtFixation,jsons/VE125_randls_6_rotated.json,http://54.235.29.9/FacialAge/BNav_EC2/DepthDuration/v2_depth_duration_MTurk/v2_DepthDuration_HTML.html#402,402,1680,1050,1680,1050,8-30-2022,9-53-13,91,depth_duration_stimuli/000677_2014-06-08_23-10-32_260595134347_rgbf000158-resize_6/000677_2014-06-08_23-10-32_260595134347_rgbf000158-resize_6-target.png,125,3.556,6,3698,117,feet,jsons/VE125_randls_6_rotated.json,946611,1597655,61,Woman
91,977705,DepthScenes,duration_manipulation_targetAtFixation,jsons/VE125_randls_6_rotated.json,http://54.235.29.9/FacialAge/BNav_EC2/DepthDuration/v2_depth_duration_MTurk/v2_DepthDuration_HTML.html#402,402,1680,1050,1680,1050,8-30-2022,9-53-13,92,depth_duration_stimuli/001029_2014-06-08_13-17-57_260595134347_rgbf000065-resize_1/001029_2014-06-08_13-17-57_260595134347_rgbf000065-resize_1-target.png,125,3.0835,7,3739,137,feet,jsons/VE125_randls_6_rotated.json,946611,1597655,61,Woman
92,977705,DepthScenes,duration_manipulation_targetAtFixation,jsons/VE125_randls_6_rotated.json,http://54.235.29.9/FacialAge/BNav_EC2/DepthDuration/v2_depth_duration_MTurk/v2_DepthDuration_HTML.html#402,402,1680,1050,1680,1050,8-30-2022,9-53-13,93,depth_duration_stimuli/001214_2014-06-17_16-13-55_260595134347_rgbf000111-resize_0/001214_2014-06-17_16-13-55_260595134347_rgbf000111-resize_0-target.png,125,2.6505,4,3726,128,feet,jsons/VE125_randls_6_rotated.json,946611,1597655,61,Woman
93,977705,DepthScenes,duration_manipulation_targetAtFixation,jsons/VE125_randls_6_rotated.json,http://54.235.29.9/FacialAge/BNav_EC2/DepthDuration/v2_depth_duration_MTurk/v2_DepthDuration_HTML.html#402,402,1680,1050,1680,1050,8-30-2022,9-53-13,94,depth_duration_stimuli/000810_2014-06-08_17-20-01_260595134347_rgbf000105-resize_0/000810_2014-06-08_17-20-01_260595134347_rgbf000105-resize_0-target.png,125,1.4865,3,4879,130,feet,jsons/VE125_randls_6_rotated.json,946611,1597655,61,Woman
94,977705,DepthScenes,duration_manipulation_targetAtFixation,jsons/VE125_randls_6_rotated.json,http://54.235.29.9/FacialAge/BNav_EC2/DepthDuration/v2_depth_duration_MTurk/v2_DepthDuration_HTML.html#402,402,1680,1050,1680,1050,8-30-2022,9-53-13,95,depth_duration_stimuli/003048_2014-06-15_13-49-43_094959634447_rgbf000150-resize_1/003048_2014-06-15_13-49-43_094959634447_rgbf000150-resize_1-target.png,125,4.0035,10,5160,115,feet,jsons/VE125_randls_6_rotated.json,946611,1597655,61,Woman
95,977705,DepthScenes,duration_manipulation_targetAtFixation,jsons/VE125_randls_6_rotated.json,http://54.235.29.9/FacialAge/BNav_EC2/DepthDuration/v2_depth_duration_MTurk/v2_DepthDuration_HTML.html#402,402,1680,1050,1680,1050,8-30-2022,9-53-13,96,depth_duration_stimuli/002043_2014-06-24_20-29-38_260595134347_rgbf000039-resize_4/002043_2014-06-24_20-29-38_260595134347_rgbf000039-resize_4-target.png,125,2.8435,6,4566,113,feet,jsons/VE125_randls_6_rotated.json,946611,1597655,61,Woman
96,977705,DepthScenes,duration_manipulation_targetAtFixation,jsons/VE125_randls_6_rotated.json,http://54.235.29.9/FacialAge/BNav_EC2/DepthDuration/v2_depth_duration_MTurk/v2_DepthDuration_HTML.html#402,402,1680,1050,1680,1050,8-30-2022,9-53-13,97,depth_duration_stimuli/002678_2014-06-13_16-15-32_094959634447_rgbf000151-resize_6/002678_2014-06-13_16-15-32_094959634447_rgbf000151-resize_6-target.png,125,2.1830000000000003,9,5876,119,feet,jsons/VE125_randls_6_rotated.json,946611,1597655,61,Woman
97,977705,DepthScenes,duration_manipulation_targetAtFixation,jsons/VE125_randls_6_rotated.json,http://54.235.29.9/FacialAge/BNav_EC2/DepthDuration/v2_depth_duration_MTurk/v2_DepthDuration_HTML.html#402,402,1680,1050,1680,1050,8-30-2022,9-53-13,98,depth_duration_stimuli/000368_2014-06-09_15-53-01_260595134347_rgbf000155-resize_2/000368_2014-06-09_15-53-01_260595134347_rgbf000155-resize_2-target.png,125,2.4859999999999998,3,4187,133,feet,jsons/VE125_randls_6_rotated.json,946611,1597655,61,Woman
98,977705,DepthScenes,duration_manipulation_targetAtFixation,jsons/VE125_randls_6_rotated.json,http://54.235.29.9/FacialAge/BNav_EC2/DepthDuration/v2_depth_duration_MTurk/v2_DepthDuration_HTML.html#402,402,1680,1050,1680,1050,8-30-2022,9-53-13,99,depth_duration_stimuli/001222_2014-06-17_16-24-06_260595134347_rgbf000073-resize_0/001222_2014-06-17_16-24-06_260595134347_rgbf000073-resize-original.jpg,125,1.4385,0,4074,130,feet,jsons/VE125_randls_6_rotated.json,946611,1597655,61,Woman
99,977705,DepthScenes,duration_manipulation_targetAtFixation,jsons/VE125_randls_6_rotated.json,http://54.235.29.9/FacialAge/BNav_EC2/DepthDuration/v2_depth_duration_MTurk/v2_DepthDuration_HTML.html#402,402,1680,1050,1680,1050,8-30-2022,9-53-13,100,depth_duration_stimuli/003129_2014-05-12_10-48-10_094959634447_rgbf000100-resize_0/003129_2014-05-12_10-48-10_094959634447_rgbf000100-resize_0-target.png,125,4.9305,8,3372,121,feet,jsons/VE125_randls_6_rotated.json,946611,1597655,61,Woman
100,977705,DepthScenes,duration_manipulation_targetAtFixation,jsons/VE125_randls_6_rotated.json,http://54.235.29.9/FacialAge/BNav_EC2/DepthDuration/v2_depth_duration_MTurk/v2_DepthDuration_HTML.html#402,402,1680,1050,1680,1050,8-30-2022,9-53-13,101,depth_duration_stimuli/000414_2014-06-04_19-49-13_260595134347_rgbf000044-resize_0/000414_2014-06-04_19-49-13_260595134347_rgbf000044-resize_0-target.png,125,4.329,10,4039,123,feet,jsons/VE125_randls_6_rotated.json,946611,1597655,61,Woman
101,977705,DepthScenes,duration_manipulation_targetAtFixation,jsons/VE125_randls_6_rotated.json,http://54.235.29.9/FacialAge/BNav_EC2/DepthDuration/v2_depth_duration_MTurk/v2_DepthDuration_HTML.html#402,402,1680,1050,1680,1050,8-30-2022,9-53-13,102,depth_duration_stimuli/000665_2014-06-09_20-42-35_260595134347_rgbf000110-resize_1/000665_2014-06-09_20-42-35_260595134347_rgbf000110-resize_1-target.png,125,3.057,5,3775,121,feet,jsons/VE125_randls_6_rotated.json,946611,1597655,61,Woman
102,977705,DepthScenes,duration_manipulation_targetAtFixation,jsons/VE125_randls_6_rotated.json,http://54.235.29.9/FacialAge/BNav_EC2/DepthDuration/v2_depth_duration_MTurk/v2_DepthDuration_HTML.html#402,402,1680,1050,1680,1050,8-30-2022,9-53-13,103,depth_duration_stimuli/001150_2014-06-17_15-27-34_260595134347_rgbf000108-resize_2/001150_2014-06-17_15-27-34_260595134347_rgbf000108-resize_2-target.png,125,4.0325,0,4217,125,feet,jsons/VE125_randls_6_rotated.json,946611,1597655,61,Woman
103,977705,DepthScenes,duration_manipulation_targetAtFixation,jsons/VE125_randls_6_rotated.json,http://54.235.29.9/FacialAge/BNav_EC2/DepthDuration/v2_depth_duration_MTurk/v2_DepthDuration_HTML.html#402,402,1680,1050,1680,1050,8-30-2022,9-53-13,104,depth_duration_stimuli/000943_2014-06-09_19-31-07_260595134347_rgbf000128-resize_1/000943_2014-06-09_19-31-07_260595134347_rgbf000128-resize_1-target.png,125,1.9765,4,4163,120,feet,jsons/VE125_randls_6_rotated.json,946611,1597655,61,Woman
104,977705,DepthScenes,duration_manipulation_targetAtFixation,jsons/VE125_randls_6_rotated.json,http://54.235.29.9/FacialAge/BNav_EC2/DepthDuration/v2_depth_duration_MTurk/v2_DepthDuration_HTML.html#402,402,1680,1050,1680,1050,8-30-2022,9-53-13,105,depth_duration_stimuli/003070_2014-06-15_14-58-27_094959634447_rgbf000150-resize_3/003070_2014-06-15_14-58-27_094959634447_rgbf000150-resize_3-target.png,125,2.9415,6,3956,111,feet,jsons/VE125_randls_6_rotated.json,946611,1597655,61,Woman
105,977705,DepthScenes,duration_manipulation_targetAtFixation,jsons/VE125_randls_6_rotated.json,http://54.235.29.9/FacialAge/BNav_EC2/DepthDuration/v2_depth_duration_MTurk/v2_DepthDuration_HTML.html#402,402,1680,1050,1680,1050,8-30-2022,9-53-13,106,depth_duration_stimuli/002103_2014-06-25_20-00-40_260595134347_rgbf000049-resize_0/002103_2014-06-25_20-00-40_260595134347_rgbf000049-resize_0-target.png,125,4.105,6,3568,115,feet,jsons/VE125_randls_6_rotated.json,946611,1597655,61,Woman
106,977705,DepthScenes,duration_manipulation_targetAtFixation,jsons/VE125_randls_6_rotated.json,http://54.235.29.9/FacialAge/BNav_EC2/DepthDuration/v2_depth_duration_MTurk/v2_DepthDuration_HTML.html#402,402,1680,1050,1680,1050,8-30-2022,9-53-13,107,depth_duration_stimuli/002039_2014-06-24_20-22-38_260595134347_rgbf000084-resize_1/002039_2014-06-24_20-22-38_260595134347_rgbf000084-resize_1-target.png,125,4.408,8,3916,120,feet,jsons/VE125_randls_6_rotated.json,946611,1597655,61,Woman
107,977705,DepthScenes,duration_manipulation_targetAtFixation,jsons/VE125_randls_6_rotated.json,http://54.235.29.9/FacialAge/BNav_EC2/DepthDuration/v2_depth_duration_MTurk/v2_DepthDuration_HTML.html#402,402,1680,1050,1680,1050,8-30-2022,9-53-13,108,depth_duration_stimuli/003495_2014-05-21_16-01-51_094959634447_rgbf000100-resize_3/003495_2014-05-21_16-01-51_094959634447_rgbf000100-resize_3-target.png,125,1.6255,4,4371,131,feet,jsons/VE125_randls_6_rotated.json,946611,1597655,61,Woman
108,977705,DepthScenes,duration_manipulation_targetAtFixation,jsons/VE125_randls_6_rotated.json,http://54.235.29.9/FacialAge/BNav_EC2/DepthDuration/v2_depth_duration_MTurk/v2_DepthDuration_HTML.html#402,402,1680,1050,1680,1050,8-30-2022,9-53-13,109,depth_duration_stimuli/001244_2014-06-17_16-47-45_260595134347_rgbf000030-resize_4/001244_2014-06-17_16-47-45_260595134347_rgbf000030-resize_4-target.png,125,2.0425,4,5334,127,feet,jsons/VE125_randls_6_rotated.json,946611,1597655,61,Woman
109,977705,DepthScenes,duration_manipulation_targetAtFixation,jsons/VE125_randls_6_rotated.json,http://54.235.29.9/FacialAge/BNav_EC2/DepthDuration/v2_depth_duration_MTurk/v2_DepthDuration_HTML.html#402,402,1680,1050,1680,1050,8-30-2022,9-53-13,110,depth_duration_stimuli/000137_2014-05-20_17-04-49_260595134347_rgbf000120-resize_1/000137_2014-05-20_17-04-49_260595134347_rgbf000120-resize_1-target.png,125,3.786,5,4723,126,feet,jsons/VE125_randls_6_rotated.json,946611,1597655,61,Woman
110,977705,DepthScenes,duration_manipulation_targetAtFixation,jsons/VE125_randls_6_rotated.json,http://54.235.29.9/FacialAge/BNav_EC2/DepthDuration/v2_depth_duration_MTurk/v2_DepthDuration_HTML.html#402,402,1680,1050,1680,1050,8-30-2022,9-53-13,111,depth_duration_stimuli/000736_2014-06-08_18-24-15_260595134347_rgbf000206-resize_3/000736_2014-06-08_18-24-15_260595134347_rgbf000206-resize_3-target.png,125,3.515,6,4567,135,feet,jsons/VE125_randls_6_rotated.json,946611,1597655,61,Woman
111,977705,DepthScenes,duration_manipulation_targetAtFixation,jsons/VE125_randls_6_rotated.json,http://54.235.29.9/FacialAge/BNav_EC2/DepthDuration/v2_depth_duration_MTurk/v2_DepthDuration_HTML.html#402,402,1680,1050,1680,1050,8-30-2022,9-53-13,112,depth_duration_stimuli/000734_2014-06-08_17-39-11_260595134347_rgbf000128-resize_2/000734_2014-06-08_17-39-11_260595134347_rgbf000128-resize_2-target.png,125,4.098,6,3772,132,feet,jsons/VE125_randls_6_rotated.json,946611,1597655,61,Woman
112,977705,DepthScenes,duration_manipulation_targetAtFixation,jsons/VE125_randls_6_rotated.json,http://54.235.29.9/FacialAge/BNav_EC2/DepthDuration/v2_depth_duration_MTurk/v2_DepthDuration_HTML.html#402,402,1680,1050,1680,1050,8-30-2022,9-53-13,113,depth_duration_stimuli/000739_2014-06-08_18-45-58_260595134347_rgbf000068-resize_1/000739_2014-06-08_18-45-58_260595134347_rgbf000068-resize_1-target.png,125,3.534,7,3434,122,feet,jsons/VE125_randls_6_rotated.json,946611,1597655,61,Woman
113,977705,DepthScenes,duration_manipulation_targetAtFixation,jsons/VE125_randls_6_rotated.json,http://54.235.29.9/FacialAge/BNav_EC2/DepthDuration/v2_depth_duration_MTurk/v2_DepthDuration_HTML.html#402,402,1680,1050,1680,1050,8-30-2022,9-53-13,114,depth_duration_stimuli/001235_2014-06-17_16-37-36_260595134347_rgbf000084-resize_4/001235_2014-06-17_16-37-36_260595134347_rgbf000084-resize_4-target.png,125,3.6605,5,3828,118,feet,jsons/VE125_randls_6_rotated.json,946611,1597655,61,Woman
114,977705,DepthScenes,duration_manipulation_targetAtFixation,jsons/VE125_randls_6_rotated.json,http://54.235.29.9/FacialAge/BNav_EC2/DepthDuration/v2_depth_duration_MTurk/v2_DepthDuration_HTML.html#402,402,1680,1050,1680,1050,8-30-2022,9-53-13,115,depth_duration_stimuli/000788_2014-06-08_22-34-36_260595134347_rgbf000131-resize_1/000788_2014-06-08_22-34-36_260595134347_rgbf000131-resize_1-target.png,125,3.359,5,3686,116,feet,jsons/VE125_randls_6_rotated.json,946611,1597655,61,Woman
115,977705,DepthScenes,duration_manipulation_targetAtFixation,jsons/VE125_randls_6_rotated.json,http://54.235.29.9/FacialAge/BNav_EC2/DepthDuration/v2_depth_duration_MTurk/v2_DepthDuration_HTML.html#402,402,1680,1050,1680,1050,8-30-2022,9-53-13,116,depth_duration_stimuli/001392_2014-06-19_16-07-59_260595134347_rgbf000046-resize_1/001392_2014-06-19_16-07-59_260595134347_rgbf000046-resize_1-target.png,125,4.135,10,4822,121,feet,jsons/VE125_randls_6_rotated.json,946611,1597655,61,Woman
116,977705,DepthScenes,duration_manipulation_targetAtFixation,jsons/VE125_randls_6_rotated.json,http://54.235.29.9/FacialAge/BNav_EC2/DepthDuration/v2_depth_duration_MTurk/v2_DepthDuration_HTML.html#402,402,1680,1050,1680,1050,8-30-2022,9-53-13,117,depth_duration_stimuli/001570_2014-06-20_17-21-09_260595134347_rgbf000135-resize_4/001570_2014-06-20_17-21-09_260595134347_rgbf000135-resize_4-target.png,125,4.467,10,3904,134,feet,jsons/VE125_randls_6_rotated.json,946611,1597655,61,Woman
117,977705,DepthScenes,duration_manipulation_targetAtFixation,jsons/VE125_randls_6_rotated.json,http://54.235.29.9/FacialAge/BNav_EC2/DepthDuration/v2_depth_duration_MTurk/v2_DepthDuration_HTML.html#402,402,1680,1050,1680,1050,8-30-2022,9-53-13,118,depth_duration_stimuli/002323_2014-06-28_20-01-54_260595134347_rgbf000051-resize_4/002323_2014-06-28_20-01-54_260595134347_rgbf000051-resize_4-target.png,125,3.7310000000000003,6,4144,122,feet,jsons/VE125_randls_6_rotated.json,946611,1597655,61,Woman
118,977705,DepthScenes,duration_manipulation_targetAtFixation,jsons/VE125_randls_6_rotated.json,http://54.235.29.9/FacialAge/BNav_EC2/DepthDuration/v2_depth_duration_MTurk/v2_DepthDuration_HTML.html#402,402,1680,1050,1680,1050,8-30-2022,9-53-13,119,depth_duration_stimuli/000917_2014-06-09_22-45-29_260595134347_rgbf000149-resize_3/000917_2014-06-09_22-45-29_260595134347_rgbf000149-resize_3-target.png,125,4.1865,6,3536,121,feet,jsons/VE125_randls_6_rotated.json,946611,1597655,61,Woman
119,977705,DepthScenes,duration_manipulation_targetAtFixation,jsons/VE125_randls_6_rotated.json,http://54.235.29.9/FacialAge/BNav_EC2/DepthDuration/v2_depth_duration_MTurk/v2_DepthDuration_HTML.html#402,402,1680,1050,1680,1050,8-30-2022,9-53-13,120,depth_duration_stimuli/000787_2014-06-08_22-33-53_260595134347_rgbf000175-resize_1/000787_2014-06-08_22-33-53_260595134347_rgbf000175-resize-original.jpg,125,4.784,0,3925,124,feet,jsons/VE125_randls_6_rotated.json,946611,1597655,61,Woman
120,977705,DepthScenes,duration_manipulation_targetAtFixation,jsons/VE125_randls_6_rotated.json,http://54.235.29.9/FacialAge/BNav_EC2/DepthDuration/v2_depth_duration_MTurk/v2_DepthDuration_HTML.html#402,402,1680,1050,1680,1050,8-30-2022,9-53-13,121,depth_duration_stimuli/001828_2014-06-26_21-40-03_260595134347_rgbf000024-resize_0/001828_2014-06-26_21-40-03_260595134347_rgbf000024-resize_0-target.png,125,4.8260000000000005,8,4454,132,feet,jsons/VE125_randls_6_rotated.json,946611,1597655,61,Woman
121,977705,DepthScenes,duration_manipulation_targetAtFixation,jsons/VE125_randls_6_rotated.json,http://54.235.29.9/FacialAge/BNav_EC2/DepthDuration/v2_depth_duration_MTurk/v2_DepthDuration_HTML.html#402,402,1680,1050,1680,1050,8-30-2022,9-53-13,122,depth_duration_stimuli/000009_2014-05-26_14-32-05_260595134347_rgbf000034-resize_3/000009_2014-05-26_14-32-05_260595134347_rgbf000034-resize_3-target.png,125,3.8715,10,4053,127,feet,jsons/VE125_randls_6_rotated.json,946611,1597655,61,Woman
122,977705,DepthScenes,duration_manipulation_targetAtFixation,jsons/VE125_randls_6_rotated.json,http://54.235.29.9/FacialAge/BNav_EC2/DepthDuration/v2_depth_duration_MTurk/v2_DepthDuration_HTML.html#402,402,1680,1050,1680,1050,8-30-2022,9-53-13,123,depth_duration_stimuli/002209_2014-06-28_18-36-10_260595134347_rgbf000051-resize_1/002209_2014-06-28_18-36-10_260595134347_rgbf000051-resize_1-target.png,125,2.057,4,4067,125,feet,jsons/VE125_randls_6_rotated.json,946611,1597655,61,Woman
123,977705,DepthScenes,duration_manipulation_targetAtFixation,jsons/VE125_randls_6_rotated.json,http://54.235.29.9/FacialAge/BNav_EC2/DepthDuration/v2_depth_duration_MTurk/v2_DepthDuration_HTML.html#402,402,1680,1050,1680,1050,8-30-2022,9-53-13,124,depth_duration_stimuli/002763_2014-06-22_19-13-10_094959634447_rgbf000075-resize_4/002763_2014-06-22_19-13-10_094959634447_rgbf000075-resize_4-target.png,125,1.68375,3,3678,126,feet,jsons/VE125_randls_6_rotated.json,946611,1597655,61,Woman
124,977705,DepthScenes,duration_manipulation_targetAtFixation,jsons/VE125_randls_6_rotated.json,http://54.235.29.9/FacialAge/BNav_EC2/DepthDuration/v2_depth_duration_MTurk/v2_DepthDuration_HTML.html#402,402,1680,1050,1680,1050,8-30-2022,9-53-13,125,depth_duration_stimuli/000780_2014-06-08_22-28-29_260595134347_rgbf000126-resize_1/000780_2014-06-08_22-28-29_260595134347_rgbf000126-resize_1-target.png,125,3.3825,8,4068,123,feet,jsons/VE125_randls_6_rotated.json,946611,1597655,61,Woman
125,977705,DepthScenes,duration_manipulation_targetAtFixation,jsons/VE125_randls_6_rotated.json,http://54.235.29.9/FacialAge/BNav_EC2/DepthDuration/v2_depth_duration_MTurk/v2_DepthDuration_HTML.html#402,402,1680,1050,1680,1050,8-30-2022,9-53-13,126,depth_duration_stimuli/002445_2014-06-28_20-32-16_260595134347_rgbf000029-resize_4/002445_2014-06-28_20-32-16_260595134347_rgbf000029-resize_4-target.png,125,2.5315,3,3858,116,feet,jsons/VE125_randls_6_rotated.json,946611,1597655,61,Woman
126,977705,DepthScenes,duration_manipulation_targetAtFixation,jsons/VE125_randls_6_rotated.json,http://54.235.29.9/FacialAge/BNav_EC2/DepthDuration/v2_depth_duration_MTurk/v2_DepthDuration_HTML.html#402,402,1680,1050,1680,1050,8-30-2022,9-53-13,127,depth_duration_stimuli/003010_2014-06-15_12-54-35_094959634447_rgbf000112-resize_0/003010_2014-06-15_12-54-35_094959634447_rgbf000112-resize_0-target.png,125,3.1185,10,6588,129,feet,jsons/VE125_randls_6_rotated.json,946611,1597655,61,Woman
127,977705,DepthScenes,duration_manipulation_targetAtFixation,jsons/VE125_randls_6_rotated.json,http://54.235.29.9/FacialAge/BNav_EC2/DepthDuration/v2_depth_duration_MTurk/v2_DepthDuration_HTML.html#402,402,1680,1050,1680,1050,8-30-2022,9-53-13,128,depth_duration_stimuli/001810_2014-06-26_20-51-35_260595134347_rgbf000040-resize_3/001810_2014-06-26_20-51-35_260595134347_rgbf000040-resize_3-target.png,125,2.2525,3,3992,131,feet,jsons/VE125_randls_6_rotated.json,946611,1597655,61,Woman
128,977705,DepthScenes,duration_manipulation_targetAtFixation,jsons/VE125_randls_6_rotated.json,http://54.235.29.9/FacialAge/BNav_EC2/DepthDuration/v2_depth_duration_MTurk/v2_DepthDuration_HTML.html#402,402,1680,1050,1680,1050,8-30-2022,9-53-13,129,depth_duration_stimuli/000927_2014-06-09_16-32-30_260595134347_rgbf000123-resize_3/000927_2014-06-09_16-32-30_260595134347_rgbf000123-resize_3-target.png,125,2.6785,5,4256,118,feet,jsons/VE125_randls_6_rotated.json,946611,1597655,61,Woman
129,977705,DepthScenes,duration_manipulation_targetAtFixation,jsons/VE125_randls_6_rotated.json,http://54.235.29.9/FacialAge/BNav_EC2/DepthDuration/v2_depth_duration_MTurk/v2_DepthDuration_HTML.html#402,402,1680,1050,1680,1050,8-30-2022,9-53-13,130,depth_duration_stimuli/001110_2014-06-15_17-25-28_260595134347_rgbf000150-resize_1/001110_2014-06-15_17-25-28_260595134347_rgbf000150-resize_1-target.png,125,1.7115,4,3632,129,feet,jsons/VE125_randls_6_rotated.json,946611,1597655,61,Woman
130,977705,DepthScenes,duration_manipulation_targetAtFixation,jsons/VE125_randls_6_rotated.json,http://54.235.29.9/FacialAge/BNav_EC2/DepthDuration/v2_depth_duration_MTurk/v2_DepthDuration_HTML.html#402,402,1680,1050,1680,1050,8-30-2022,9-53-13,131,depth_duration_stimuli/002637_2014-06-24_14-51-13_094959634447_rgbf000066-resize_4/002637_2014-06-24_14-51-13_094959634447_rgbf000066-resize_4-target.png,125,1.9955,4,3903,124,feet,jsons/VE125_randls_6_rotated.json,946611,1597655,61,Woman
131,977705,DepthScenes,duration_manipulation_targetAtFixation,jsons/VE125_randls_6_rotated.json,http://54.235.29.9/FacialAge/BNav_EC2/DepthDuration/v2_depth_duration_MTurk/v2_DepthDuration_HTML.html#402,402,1680,1050,1680,1050,8-30-2022,9-53-13,132,depth_duration_stimuli/003534_2014-05-22_15-06-10_094959634447_rgbf000102-resize_4/003534_2014-05-22_15-06-10_094959634447_rgbf000102-resize_4-target.png,125,1.426,3,4341,125,feet,jsons/VE125_randls_6_rotated.json,946611,1597655,61,Woman
132,977705,DepthScenes,duration_manipulation_targetAtFixation,jsons/VE125_randls_6_rotated.json,http://54.235.29.9/FacialAge/BNav_EC2/DepthDuration/v2_depth_duration_MTurk/v2_DepthDuration_HTML.html#402,402,1680,1050,1680,1050,8-30-2022,9-53-13,133,depth_duration_stimuli/003490_2014-05-21_15-50-11_094959634447_rgbf000101-resize_3/003490_2014-05-21_15-50-11_094959634447_rgbf000101-resize_3-target.png,125,3.6445,6,4214,130,feet,jsons/VE125_randls_6_rotated.json,946611,1597655,61,Woman
133,977705,DepthScenes,duration_manipulation_targetAtFixation,jsons/VE125_randls_6_rotated.json,http://54.235.29.9/FacialAge/BNav_EC2/DepthDuration/v2_depth_duration_MTurk/v2_DepthDuration_HTML.html#402,402,1680,1050,1680,1050,8-30-2022,9-53-13,134,depth_duration_stimuli/001175_2014-06-17_15-45-55_260595134347_rgbf000129-resize_4/001175_2014-06-17_15-45-55_260595134347_rgbf000129-resize_4-target.png,125,4.255,10,3883,121,feet,jsons/VE125_randls_6_rotated.json,946611,1597655,61,Woman
134,977705,DepthScenes,duration_manipulation_targetAtFixation,jsons/VE125_randls_6_rotated.json,http://54.235.29.9/FacialAge/BNav_EC2/DepthDuration/v2_depth_duration_MTurk/v2_DepthDuration_HTML.html#402,402,1680,1050,1680,1050,8-30-2022,9-53-13,135,depth_duration_stimuli/000375_2014-06-08_11-17-29_260595134347_rgbf000133-resize_2/000375_2014-06-08_11-17-29_260595134347_rgbf000133-resize-original.jpg,125,4.718,0,4283,127,feet,jsons/VE125_randls_6_rotated.json,946611,1597655,61,Woman
135,977705,DepthScenes,duration_manipulation_targetAtFixation,jsons/VE125_randls_6_rotated.json,http://54.235.29.9/FacialAge/BNav_EC2/DepthDuration/v2_depth_duration_MTurk/v2_DepthDuration_HTML.html#402,402,1680,1050,1680,1050,8-30-2022,9-53-13,136,depth_duration_stimuli/000103_2014-05-14_22-01-17_260595134347_rgbf000152-resize_5/000103_2014-05-14_22-01-17_260595134347_rgbf000152-resize_5-target.png,125,1.993,7,4153,129,feet,jsons/VE125_randls_6_rotated.json,946611,1597655,61,Woman
136,977705,DepthScenes,duration_manipulation_targetAtFixation,jsons/VE125_randls_6_rotated.json,http://54.235.29.9/FacialAge/BNav_EC2/DepthDuration/v2_depth_duration_MTurk/v2_DepthDuration_HTML.html#402,402,1680,1050,1680,1050,8-30-2022,9-53-13,137,depth_duration_stimuli/001555_2014-06-20_17-12-10_260595134347_rgbf000065-resize_4/001555_2014-06-20_17-12-10_260595134347_rgbf000065-resize_4-target.png,125,1.633,3,4157,118,feet,jsons/VE125_randls_6_rotated.json,946611,1597655,61,Woman
137,977705,DepthScenes,duration_manipulation_targetAtFixation,jsons/VE125_randls_6_rotated.json,http://54.235.29.9/FacialAge/BNav_EC2/DepthDuration/v2_depth_duration_MTurk/v2_DepthDuration_HTML.html#402,402,1680,1050,1680,1050,8-30-2022,9-53-13,138,depth_duration_stimuli/002136_2014-06-25_21-18-03_260595134347_rgbf000109-resize_3/002136_2014-06-25_21-18-03_260595134347_rgbf000109-resize_3-target.png,125,1.9569999999999999,4,4260,123,feet,jsons/VE125_randls_6_rotated.json,946611,1597655,61,Woman
138,977705,DepthScenes,duration_manipulation_targetAtFixation,jsons/VE125_randls_6_rotated.json,http://54.235.29.9/FacialAge/BNav_EC2/DepthDuration/v2_depth_duration_MTurk/v2_DepthDuration_HTML.html#402,402,1680,1050,1680,1050,8-30-2022,9-53-13,139,depth_duration_stimuli/002964_2014-06-08_17-46-11_094959634447_rgbf000091-resize_4/002964_2014-06-08_17-46-11_094959634447_rgbf000091-resize_4-target.png,125,1.6909999999999998,3,3377,123,feet,jsons/VE125_randls_6_rotated.json,946611,1597655,61,Woman
139,977705,DepthScenes,duration_manipulation_targetAtFixation,jsons/VE125_randls_6_rotated.json,http://54.235.29.9/FacialAge/BNav_EC2/DepthDuration/v2_depth_duration_MTurk/v2_DepthDuration_HTML.html#402,402,1680,1050,1680,1050,8-30-2022,9-53-13,140,depth_duration_stimuli/002875_2014-06-01_15-19-00_094959634447_rgbf000151-resize_1/002875_2014-06-01_15-19-00_094959634447_rgbf000151-resize_1-target.png,125,1.9675,3,3835,125,feet,jsons/VE125_randls_6_rotated.json,946611,1597655,61,Woman
140,977705,DepthScenes,duration_manipulation_targetAtFixation,jsons/VE125_randls_6_rotated.json,http://54.235.29.9/FacialAge/BNav_EC2/DepthDuration/v2_depth_duration_MTurk/v2_DepthDuration_HTML.html#402,402,1680,1050,1680,1050,8-30-2022,9-53-13,141,depth_duration_stimuli/001011_2014-06-08_23-18-54_260595134347_rgbf000044-resize_4/001011_2014-06-08_23-18-54_260595134347_rgbf000044-resize_4-target.png,125,2.4730000000000003,6,3552,124,feet,jsons/VE125_randls_6_rotated.json,946611,1597655,61,Woman
141,977705,DepthScenes,duration_manipulation_targetAtFixation,jsons/VE125_randls_6_rotated.json,http://54.235.29.9/FacialAge/BNav_EC2/DepthDuration/v2_depth_duration_MTurk/v2_DepthDuration_HTML.html#402,402,1680,1050,1680,1050,8-30-2022,9-53-13,142,depth_duration_stimuli/002568_2014-06-24_13-59-21_094959634447_rgbf000062-resize_4/002568_2014-06-24_13-59-21_094959634447_rgbf000062-resize_4-target.png,125,3.015,8,4522,125,feet,jsons/VE125_randls_6_rotated.json,946611,1597655,61,Woman
142,977705,DepthScenes,duration_manipulation_targetAtFixation,jsons/VE125_randls_6_rotated.json,http://54.235.29.9/FacialAge/BNav_EC2/DepthDuration/v2_depth_duration_MTurk/v2_DepthDuration_HTML.html#402,402,1680,1050,1680,1050,8-30-2022,9-53-13,143,depth_duration_stimuli/003492_2014-05-21_15-50-55_094959634447_rgbf000828-resize_1/003492_2014-05-21_15-50-55_094959634447_rgbf000828-resize_1-target.png,125,4.06875,8,4112,115,feet,jsons/VE125_randls_6_rotated.json,946611,1597655,61,Woman
143,977705,DepthScenes,duration_manipulation_targetAtFixation,jsons/VE125_randls_6_rotated.json,http://54.235.29.9/FacialAge/BNav_EC2/DepthDuration/v2_depth_duration_MTurk/v2_DepthDuration_HTML.html#402,402,1680,1050,1680,1050,8-30-2022,9-53-13,144,depth_duration_stimuli/000691_2014-06-08_13-08-50_260595134347_rgbf000132-resize_3/000691_2014-06-08_13-08-50_260595134347_rgbf000132-resize_3-target.png,125,4.1530000000000005,10,3968,137,feet,jsons/VE125_randls_6_rotated.json,946611,1597655,61,Woman
144,977705,DepthScenes,duration_manipulation_targetAtFixation,jsons/VE125_randls_6_rotated.json,http://54.235.29.9/FacialAge/BNav_EC2/DepthDuration/v2_depth_duration_MTurk/v2_DepthDuration_HTML.html#402,402,1680,1050,1680,1050,8-30-2022,9-53-13,145,depth_duration_stimuli/002213_2014-06-28_18-37-58_260595134347_rgbf000055-resize_1/002213_2014-06-28_18-37-58_260595134347_rgbf000055-resize_1-target.png,125,3.62,0,5384,125,feet,jsons/VE125_randls_6_rotated.json,946611,1597655,61,Woman
145,977705,DepthScenes,duration_manipulation_targetAtFixation,jsons/VE125_randls_6_rotated.json,http://54.235.29.9/FacialAge/BNav_EC2/DepthDuration/v2_depth_duration_MTurk/v2_DepthDuration_HTML.html#402,402,1680,1050,1680,1050,8-30-2022,9-53-13,146,depth_duration_stimuli/002995_2014-06-15_12-31-26_094959634447_rgbf000150-resize_1/002995_2014-06-15_12-31-26_094959634447_rgbf000150-resize_1-target.png,125,3.8360000000000003,3,4252,117,feet,jsons/VE125_randls_6_rotated.json,946611,1597655,61,Woman
146,977705,DepthScenes,duration_manipulation_targetAtFixation,jsons/VE125_randls_6_rotated.json,http://54.235.29.9/FacialAge/BNav_EC2/DepthDuration/v2_depth_duration_MTurk/v2_DepthDuration_HTML.html#402,402,1680,1050,1680,1050,8-30-2022,9-53-13,147,depth_duration_stimuli/002748_2014-06-22_19-07-22_094959634447_rgbf000078-resize_1/002748_2014-06-22_19-07-22_094959634447_rgbf000078-resize_1-target.png,125,4.6705,10,7854,126,feet,jsons/VE125_randls_6_rotated.json,946611,1597655,61,Woman
147,977705,DepthScenes,duration_manipulation_targetAtFixation,jsons/VE125_randls_6_rotated.json,http://54.235.29.9/FacialAge/BNav_EC2/DepthDuration/v2_depth_duration_MTurk/v2_DepthDuration_HTML.html#402,402,1680,1050,1680,1050,8-30-2022,9-53-13,148,depth_duration_stimuli/001052_2014-06-08_18-24-54_260595134347_rgbf000130-resize_1/001052_2014-06-08_18-24-54_260595134347_rgbf000130-resize_1-target.png,125,4.1045,6,3591,115,feet,jsons/VE125_randls_6_rotated.json,946611,1597655,61,Woman
148,977705,DepthScenes,duration_manipulation_targetAtFixation,jsons/VE125_randls_6_rotated.json,http://54.235.29.9/FacialAge/BNav_EC2/DepthDuration/v2_depth_duration_MTurk/v2_DepthDuration_HTML.html#402,402,1680,1050,1680,1050,8-30-2022,9-53-13,149,depth_duration_stimuli/002988_2014-06-15_12-24-20_094959634447_rgbf000150-resize_1/002988_2014-06-15_12-24-20_094959634447_rgbf000150-resize_1-target.png,125,4.7669999999999995,5,4336,128,feet,jsons/VE125_randls_6_rotated.json,946611,1597655,61,Woman
149,977705,DepthScenes,duration_manipulation_targetAtFixation,jsons/VE125_randls_6_rotated.json,http://54.235.29.9/FacialAge/BNav_EC2/DepthDuration/v2_depth_duration_MTurk/v2_DepthDuration_HTML.html#402,402,1680,1050,1680,1050,8-30-2022,9-53-13,150,depth_duration_stimuli/001100_2014-06-15_17-46-26_260595134347_rgbf000225-resize_2/001100_2014-06-15_17-46-26_260595134347_rgbf000225-resize_2-target.png,125,2.24,3,3694,126,feet,jsons/VE125_randls_6_rotated.json,946611,1597655,61,Woman
150,977705,DepthScenes,duration_manipulation_targetAtFixation,jsons/VE125_randls_6_rotated.json,http://54.235.29.9/FacialAge/BNav_EC2/DepthDuration/v2_depth_duration_MTurk/v2_DepthDuration_HTML.html#402,402,1680,1050,1680,1050,8-30-2022,9-53-13,151,depth_duration_stimuli/002784_2014-06-22_19-26-30_094959634447_rgbf000083-resize_3/002784_2014-06-22_19-26-30_094959634447_rgbf000083-resize_3-target.png,125,1.8046666666667,4,4008,133,feet,jsons/VE125_randls_6_rotated.json,946611,1597655,61,Woman
151,977705,DepthScenes,duration_manipulation_targetAtFixation,jsons/VE125_randls_6_rotated.json,http://54.235.29.9/FacialAge/BNav_EC2/DepthDuration/v2_depth_duration_MTurk/v2_DepthDuration_HTML.html#402,402,1680,1050,1680,1050,8-30-2022,9-53-13,152,depth_duration_stimuli/000569_2014-06-09_22-51-47_260595134347_rgbf000141-resize_3/000569_2014-06-09_22-51-47_260595134347_rgbf000141-resize-original.jpg,125,4.512,0,3737,125,feet,jsons/VE125_randls_6_rotated.json,946611,1597655,61,Woman
152,977705,DepthScenes,duration_manipulation_targetAtFixation,jsons/VE125_randls_6_rotated.json,http://54.235.29.9/FacialAge/BNav_EC2/DepthDuration/v2_depth_duration_MTurk/v2_DepthDuration_HTML.html#402,402,1680,1050,1680,1050,8-30-2022,9-53-13,153,depth_duration_stimuli/002758_2014-06-22_19-11-20_094959634447_rgbf000128-resize_1/002758_2014-06-22_19-11-20_094959634447_rgbf000128-resize_1-target.png,125,2.555,5,4780,111,feet,jsons/VE125_randls_6_rotated.json,946611,1597655,61,Woman
153,977705,DepthScenes,duration_manipulation_targetAtFixation,jsons/VE125_randls_6_rotated.json,http://54.235.29.9/FacialAge/BNav_EC2/DepthDuration/v2_depth_duration_MTurk/v2_DepthDuration_HTML.html#402,402,1680,1050,1680,1050,8-30-2022,9-53-13,154,depth_duration_stimuli/002630_2014-06-24_14-47-50_094959634447_rgbf000055-resize_1/002630_2014-06-24_14-47-50_094959634447_rgbf000055-resize_1-target.png,125,3.0095,7,4861,130,feet,jsons/VE125_randls_6_rotated.json,946611,1597655,61,Woman
154,977705,DepthScenes,duration_manipulation_targetAtFixation,jsons/VE125_randls_6_rotated.json,http://54.235.29.9/FacialAge/BNav_EC2/DepthDuration/v2_depth_duration_MTurk/v2_DepthDuration_HTML.html#402,402,1680,1050,1680,1050,8-30-2022,9-53-13,155,depth_duration_stimuli/001571_2014-06-20_17-21-32_260595134347_rgbf000089-resize_1/001571_2014-06-20_17-21-32_260595134347_rgbf000089-resize_1-target.png,125,1.86,4,3941,114,feet,jsons/VE125_randls_6_rotated.json,946611,1597655,61,Woman
155,977705,DepthScenes,duration_manipulation_targetAtFixation,jsons/VE125_randls_6_rotated.json,http://54.235.29.9/FacialAge/BNav_EC2/DepthDuration/v2_depth_duration_MTurk/v2_DepthDuration_HTML.html#402,402,1680,1050,1680,1050,8-30-2022,9-53-13,156,depth_duration_stimuli/002272_2014-06-28_18-53-56_260595134347_rgbf000067-resize_2/002272_2014-06-28_18-53-56_260595134347_rgbf000067-resize_2-target.png,125,1.138,4,4181,119,feet,jsons/VE125_randls_6_rotated.json,946611,1597655,61,Woman
156,977705,DepthScenes,duration_manipulation_targetAtFixation,jsons/VE125_randls_6_rotated.json,http://54.235.29.9/FacialAge/BNav_EC2/DepthDuration/v2_depth_duration_MTurk/v2_DepthDuration_HTML.html#402,402,1680,1050,1680,1050,8-30-2022,9-53-13,157,depth_duration_stimuli/001450_2014-06-19_17-02-03_260595134347_rgbf000203-resize_4/001450_2014-06-19_17-02-03_260595134347_rgbf000203-resize_4-target.png,125,4.0106666666667,6,3887,115,feet,jsons/VE125_randls_6_rotated.json,946611,1597655,61,Woman
157,977705,DepthScenes,duration_manipulation_targetAtFixation,jsons/VE125_randls_6_rotated.json,http://54.235.29.9/FacialAge/BNav_EC2/DepthDuration/v2_depth_duration_MTurk/v2_DepthDuration_HTML.html#402,402,1680,1050,1680,1050,8-30-2022,9-53-13,158,depth_duration_stimuli/001449_2014-06-19_17-01-27_260595134347_rgbf000116-resize_2/001449_2014-06-19_17-01-27_260595134347_rgbf000116-resize_2-target.png,125,3.452,0,3799,114,feet,jsons/VE125_randls_6_rotated.json,946611,1597655,61,Woman
158,977705,DepthScenes,duration_manipulation_targetAtFixation,jsons/VE125_randls_6_rotated.json,http://54.235.29.9/FacialAge/BNav_EC2/DepthDuration/v2_depth_duration_MTurk/v2_DepthDuration_HTML.html#402,402,1680,1050,1680,1050,8-30-2022,9-53-13,159,depth_duration_stimuli/002425_2014-06-28_20-27-29_260595134347_rgbf000031-resize_8/002425_2014-06-28_20-27-29_260595134347_rgbf000031-resize_8-target.png,125,3.8960000000000004,8,3463,134,feet,jsons/VE125_randls_6_rotated.json,946611,1597655,61,Woman
159,977705,DepthScenes,duration_manipulation_targetAtFixation,jsons/VE125_randls_6_rotated.json,http://54.235.29.9/FacialAge/BNav_EC2/DepthDuration/v2_depth_duration_MTurk/v2_DepthDuration_HTML.html#402,402,1680,1050,1680,1050,8-30-2022,9-53-13,160,depth_duration_stimuli/000642_2014-06-08_16-59-25_260595134347_rgbf000098-resize_2/000642_2014-06-08_16-59-25_260595134347_rgbf000098-resize_2-target.png,125,2.8815,5,3486,123,feet,jsons/VE125_randls_6_rotated.json,946611,1597655,61,Woman
160,977705,DepthScenes,duration_manipulation_targetAtFixation,jsons/VE125_randls_6_rotated.json,http://54.235.29.9/FacialAge/BNav_EC2/DepthDuration/v2_depth_duration_MTurk/v2_DepthDuration_HTML.html#402,402,1680,1050,1680,1050,8-30-2022,9-53-13,161,depth_duration_stimuli/003423_2014-05-21_10-23-26_094959634447_rgbf002665-resize_2/003423_2014-05-21_10-23-26_094959634447_rgbf002665-resize_2-target.png,125,3.2575,6,3710,120,feet,jsons/VE125_randls_6_rotated.json,946611,1597655,61,Woman
161,977705,DepthScenes,duration_manipulation_targetAtFixation,jsons/VE125_randls_6_rotated.json,http://54.235.29.9/FacialAge/BNav_EC2/DepthDuration/v2_depth_duration_MTurk/v2_DepthDuration_HTML.html#402,402,1680,1050,1680,1050,8-30-2022,9-53-13,162,depth_duration_stimuli/002905_2014-06-03_18-04-43_094959634447_rgbf000151-resize_2/002905_2014-06-03_18-04-43_094959634447_rgbf000151-resize_2-target.png,125,2.0295,3,4035,129,feet,jsons/VE125_randls_6_rotated.json,946611,1597655,61,Woman
162,977705,DepthScenes,duration_manipulation_targetAtFixation,jsons/VE125_randls_6_rotated.json,http://54.235.29.9/FacialAge/BNav_EC2/DepthDuration/v2_depth_duration_MTurk/v2_DepthDuration_HTML.html#402,402,1680,1050,1680,1050,8-30-2022,9-53-13,163,depth_duration_stimuli/000409_2014-06-04_19-23-33_260595134347_rgbf000067-resize_0/000409_2014-06-04_19-23-33_260595134347_rgbf000067-resize_0-target.png,125,3.7335,8,4039,118,feet,jsons/VE125_randls_6_rotated.json,946611,1597655,61,Woman
163,977705,DepthScenes,duration_manipulation_targetAtFixation,jsons/VE125_randls_6_rotated.json,http://54.235.29.9/FacialAge/BNav_EC2/DepthDuration/v2_depth_duration_MTurk/v2_DepthDuration_HTML.html#402,402,1680,1050,1680,1050,8-30-2022,9-53-13,164,depth_duration_stimuli/002663_2014-06-13_15-50-26_094959634447_rgbf000075-resize_1/002663_2014-06-13_15-50-26_094959634447_rgbf000075-resize_1-target.png,125,4.7495,6,3549,120,feet,jsons/VE125_randls_6_rotated.json,946611,1597655,61,Woman
