,subjID,experimentName,versionName,sequenceName,url,selected_row,windowWidth,windowHeight,screenWidth,screenHeight,startDate,startTime,trial,stimulus,duration,actual_depth,depth_estimate,trial_RT,log_sceneDuration,unitSelection,seq_filepath,experimentTime,totalTime,age,gender
0,979077,DepthScenes,duration_manipulation_targetAtFixation,jsons/VE125_randls_53_rotated.json,http://54.235.29.9/FacialAge/BNav_EC2/DepthDuration/v2_depth_duration_MTurk/v2_DepthDuration_HTML.html#50,50,1280,800,1280,800,8-21-2022,11-17-40,1,depth_duration_stimuli/000635_2014-06-08_16-38-42_260595134347_rgbf000106-resize_1/000635_2014-06-08_16-38-42_260595134347_rgbf000106-resize_1-target.png,125,2.074,3,3314,124,feet,jsons/VE125_randls_53_rotated.json,728991,849625,48,Woman
1,979077,DepthScenes,duration_manipulation_targetAtFixation,jsons/VE125_randls_53_rotated.json,http://54.235.29.9/FacialAge/BNav_EC2/DepthDuration/v2_depth_duration_MTurk/v2_DepthDuration_HTML.html#50,50,1280,800,1280,800,8-21-2022,11-17-40,2,depth_duration_stimuli/002279_2014-06-28_18-55-32_260595134347_rgbf000040-resize_5/002279_2014-06-28_18-55-32_260595134347_rgbf000040-resize_5-target.png,125,1.5043333333333,4,2958,62,feet,jsons/VE125_randls_53_rotated.json,728991,849625,48,Woman
2,979077,DepthScenes,duration_manipulation_targetAtFixation,jsons/VE125_randls_53_rotated.json,http://54.235.29.9/FacialAge/BNav_EC2/DepthDuration/v2_depth_duration_MTurk/v2_DepthDuration_HTML.html#50,50,1280,800,1280,800,8-21-2022,11-17-40,3,depth_duration_stimuli/000677_2014-06-08_23-10-32_260595134347_rgbf000158-resize_6/000677_2014-06-08_23-10-32_260595134347_rgbf000158-resize_6-target.png,125,3.556,2,2393,142,feet,jsons/VE125_randls_53_rotated.json,728991,849625,48,Woman
3,979077,DepthScenes,duration_manipulation_targetAtFixation,jsons/VE125_randls_53_rotated.json,http://54.235.29.9/FacialAge/BNav_EC2/DepthDuration/v2_depth_duration_MTurk/v2_DepthDuration_HTML.html#50,50,1280,800,1280,800,8-21-2022,11-17-40,4,depth_duration_stimuli/001029_2014-06-08_13-17-57_260595134347_rgbf000065-resize_1/001029_2014-06-08_13-17-57_260595134347_rgbf000065-resize_1-target.png,125,3.0835,4,1775,137,feet,jsons/VE125_randls_53_rotated.json,728991,849625,48,Woman
4,979077,DepthScenes,duration_manipulation_targetAtFixation,jsons/VE125_randls_53_rotated.json,http://54.235.29.9/FacialAge/BNav_EC2/DepthDuration/v2_depth_duration_MTurk/v2_DepthDuration_HTML.html#50,50,1280,800,1280,800,8-21-2022,11-17-40,5,depth_duration_stimuli/003081_2014-06-15_15-19-16_094959634447_rgbf000150-resize_1/003081_2014-06-15_15-19-16_094959634447_rgbf000150-resize_1-target.png,125,3.9125,5,1852,118,feet,jsons/VE125_randls_53_rotated.json,728991,849625,48,Woman
5,979077,DepthScenes,duration_manipulation_targetAtFixation,jsons/VE125_randls_53_rotated.json,http://54.235.29.9/FacialAge/BNav_EC2/DepthDuration/v2_depth_duration_MTurk/v2_DepthDuration_HTML.html#50,50,1280,800,1280,800,8-21-2022,11-17-40,6,depth_duration_stimuli/001417_2014-06-19_16-25-36_260595134347_rgbf000115-resize_5/001417_2014-06-19_16-25-36_260595134347_rgbf000115-resize_5-target.png,125,4.6255,6,2688,130,feet,jsons/VE125_randls_53_rotated.json,728991,849625,48,Woman
6,979077,DepthScenes,duration_manipulation_targetAtFixation,jsons/VE125_randls_53_rotated.json,http://54.235.29.9/FacialAge/BNav_EC2/DepthDuration/v2_depth_duration_MTurk/v2_DepthDuration_HTML.html#50,50,1280,800,1280,800,8-21-2022,11-17-40,7,depth_duration_stimuli/000549_2014-06-08_22-10-24_260595134347_rgbf000247-resize_3/000549_2014-06-08_22-10-24_260595134347_rgbf000247-resize_3-target.png,125,1.841,6,2209,111,feet,jsons/VE125_randls_53_rotated.json,728991,849625,48,Woman
7,979077,DepthScenes,duration_manipulation_targetAtFixation,jsons/VE125_randls_53_rotated.json,http://54.235.29.9/FacialAge/BNav_EC2/DepthDuration/v2_depth_duration_MTurk/v2_DepthDuration_HTML.html#50,50,1280,800,1280,800,8-21-2022,11-17-40,8,depth_duration_stimuli/001055_2014-06-08_18-45-35_260595134347_rgbf000111-resize_4/001055_2014-06-08_18-45-35_260595134347_rgbf000111-resize_4-target.png,125,2.4290000000000003,2,2167,120,feet,jsons/VE125_randls_53_rotated.json,728991,849625,48,Woman
8,979077,DepthScenes,duration_manipulation_targetAtFixation,jsons/VE125_randls_53_rotated.json,http://54.235.29.9/FacialAge/BNav_EC2/DepthDuration/v2_depth_duration_MTurk/v2_DepthDuration_HTML.html#50,50,1280,800,1280,800,8-21-2022,11-17-40,9,depth_duration_stimuli/001650_2014-06-20_12-09-00_260595134347_rgbf000087-resize_3/001650_2014-06-20_12-09-00_260595134347_rgbf000087-resize_3-target.png,125,1.9505,2,2317,126,feet,jsons/VE125_randls_53_rotated.json,728991,849625,48,Woman
9,979077,DepthScenes,duration_manipulation_targetAtFixation,jsons/VE125_randls_53_rotated.json,http://54.235.29.9/FacialAge/BNav_EC2/DepthDuration/v2_depth_duration_MTurk/v2_DepthDuration_HTML.html#50,50,1280,800,1280,800,8-21-2022,11-17-40,10,depth_duration_stimuli/000682_2014-06-08_23-14-58_260595134347_rgbf000041-resize_5/000682_2014-06-08_23-14-58_260595134347_rgbf000041-resize_5-target.png,125,2.7239999999999998,2,3902,123,feet,jsons/VE125_randls_53_rotated.json,728991,849625,48,Woman
10,979077,DepthScenes,duration_manipulation_targetAtFixation,jsons/VE125_randls_53_rotated.json,http://54.235.29.9/FacialAge/BNav_EC2/DepthDuration/v2_depth_duration_MTurk/v2_DepthDuration_HTML.html#50,50,1280,800,1280,800,8-21-2022,11-17-40,11,depth_duration_stimuli/003490_2014-05-21_15-50-11_094959634447_rgbf000101-resize_3/003490_2014-05-21_15-50-11_094959634447_rgbf000101-resize_3-target.png,125,3.6445,6,8746,128,feet,jsons/VE125_randls_53_rotated.json,728991,849625,48,Woman
11,979077,DepthScenes,duration_manipulation_targetAtFixation,jsons/VE125_randls_53_rotated.json,http://54.235.29.9/FacialAge/BNav_EC2/DepthDuration/v2_depth_duration_MTurk/v2_DepthDuration_HTML.html#50,50,1280,800,1280,800,8-21-2022,11-17-40,12,depth_duration_stimuli/001175_2014-06-17_15-45-55_260595134347_rgbf000129-resize_4/001175_2014-06-17_15-45-55_260595134347_rgbf000129-resize_4-target.png,125,4.255,7,5459,89,feet,jsons/VE125_randls_53_rotated.json,728991,849625,48,Woman
12,979077,DepthScenes,duration_manipulation_targetAtFixation,jsons/VE125_randls_53_rotated.json,http://54.235.29.9/FacialAge/BNav_EC2/DepthDuration/v2_depth_duration_MTurk/v2_DepthDuration_HTML.html#50,50,1280,800,1280,800,8-21-2022,11-17-40,13,depth_duration_stimuli/001828_2014-06-26_21-40-03_260595134347_rgbf000024-resize_0/001828_2014-06-26_21-40-03_260595134347_rgbf000024-resize_0-target.png,125,4.8260000000000005,7,2610,125,feet,jsons/VE125_randls_53_rotated.json,728991,849625,48,Woman
13,979077,DepthScenes,duration_manipulation_targetAtFixation,jsons/VE125_randls_53_rotated.json,http://54.235.29.9/FacialAge/BNav_EC2/DepthDuration/v2_depth_duration_MTurk/v2_DepthDuration_HTML.html#50,50,1280,800,1280,800,8-21-2022,11-17-40,14,depth_duration_stimuli/000009_2014-05-26_14-32-05_260595134347_rgbf000034-resize_3/000009_2014-05-26_14-32-05_260595134347_rgbf000034-resize_3-target.png,125,3.8715,3,11834,18,feet,jsons/VE125_randls_53_rotated.json,728991,849625,48,Woman
14,979077,DepthScenes,duration_manipulation_targetAtFixation,jsons/VE125_randls_53_rotated.json,http://54.235.29.9/FacialAge/BNav_EC2/DepthDuration/v2_depth_duration_MTurk/v2_DepthDuration_HTML.html#50,50,1280,800,1280,800,8-21-2022,11-17-40,15,depth_duration_stimuli/002949_2014-06-26_15-57-42_094959634447_rgbf000079-resize_1/002949_2014-06-26_15-57-42_094959634447_rgbf000079-resize_1-target.png,125,1.8915,3,1939,124,feet,jsons/VE125_randls_53_rotated.json,728991,849625,48,Woman
15,979077,DepthScenes,duration_manipulation_targetAtFixation,jsons/VE125_randls_53_rotated.json,http://54.235.29.9/FacialAge/BNav_EC2/DepthDuration/v2_depth_duration_MTurk/v2_DepthDuration_HTML.html#50,50,1280,800,1280,800,8-21-2022,11-17-40,16,depth_duration_stimuli/000522_2014-06-08_13-35-06_260595134347_rgbf000244-resize_1/000522_2014-06-08_13-35-06_260595134347_rgbf000244-resize_1-target.png,125,2.3715,5,12316,111,feet,jsons/VE125_randls_53_rotated.json,728991,849625,48,Woman
16,979077,DepthScenes,duration_manipulation_targetAtFixation,jsons/VE125_randls_53_rotated.json,http://54.235.29.9/FacialAge/BNav_EC2/DepthDuration/v2_depth_duration_MTurk/v2_DepthDuration_HTML.html#50,50,1280,800,1280,800,8-21-2022,11-17-40,17,depth_duration_stimuli/003129_2014-05-12_10-48-10_094959634447_rgbf000100-resize_0/003129_2014-05-12_10-48-10_094959634447_rgbf000100-resize_0-target.png,125,4.9305,6,7215,0,feet,jsons/VE125_randls_53_rotated.json,728991,849625,48,Woman
17,979077,DepthScenes,duration_manipulation_targetAtFixation,jsons/VE125_randls_53_rotated.json,http://54.235.29.9/FacialAge/BNav_EC2/DepthDuration/v2_depth_duration_MTurk/v2_DepthDuration_HTML.html#50,50,1280,800,1280,800,8-21-2022,11-17-40,18,depth_duration_stimuli/000414_2014-06-04_19-49-13_260595134347_rgbf000044-resize_0/000414_2014-06-04_19-49-13_260595134347_rgbf000044-resize_0-target.png,125,4.329,3,3993,129,feet,jsons/VE125_randls_53_rotated.json,728991,849625,48,Woman
18,979077,DepthScenes,duration_manipulation_targetAtFixation,jsons/VE125_randls_53_rotated.json,http://54.235.29.9/FacialAge/BNav_EC2/DepthDuration/v2_depth_duration_MTurk/v2_DepthDuration_HTML.html#50,50,1280,800,1280,800,8-21-2022,11-17-40,19,depth_duration_stimuli/001498_2014-06-19_17-45-14_260595134347_rgbf000129-resize_4/001498_2014-06-19_17-45-14_260595134347_rgbf000129-resize-original.jpg,125,1.4075,7,2827,124,feet,jsons/VE125_randls_53_rotated.json,728991,849625,48,Woman
19,979077,DepthScenes,duration_manipulation_targetAtFixation,jsons/VE125_randls_53_rotated.json,http://54.235.29.9/FacialAge/BNav_EC2/DepthDuration/v2_depth_duration_MTurk/v2_DepthDuration_HTML.html#50,50,1280,800,1280,800,8-21-2022,11-17-40,20,depth_duration_stimuli/002199_2014-06-28_18-33-56_260595134347_rgbf000074-resize_0/002199_2014-06-28_18-33-56_260595134347_rgbf000074-resize_0-target.png,125,1.996,8,2203,124,feet,jsons/VE125_randls_53_rotated.json,728991,849625,48,Woman
20,979077,DepthScenes,duration_manipulation_targetAtFixation,jsons/VE125_randls_53_rotated.json,http://54.235.29.9/FacialAge/BNav_EC2/DepthDuration/v2_depth_duration_MTurk/v2_DepthDuration_HTML.html#50,50,1280,800,1280,800,8-21-2022,11-17-40,21,depth_duration_stimuli/001056_2014-06-08_18-46-44_260595134347_rgbf000068-resize_0/001056_2014-06-08_18-46-44_260595134347_rgbf000068-resize_0-target.png,125,2.6625,9,5403,120,feet,jsons/VE125_randls_53_rotated.json,728991,849625,48,Woman
21,979077,DepthScenes,duration_manipulation_targetAtFixation,jsons/VE125_randls_53_rotated.json,http://54.235.29.9/FacialAge/BNav_EC2/DepthDuration/v2_depth_duration_MTurk/v2_DepthDuration_HTML.html#50,50,1280,800,1280,800,8-21-2022,11-17-40,22,depth_duration_stimuli/000191_2014-05-12_17-07-38_260595134347_rgbf000199-resize_0/000191_2014-05-12_17-07-38_260595134347_rgbf000199-resize_0-target.png,125,3.7995,5,3626,127,feet,jsons/VE125_randls_53_rotated.json,728991,849625,48,Woman
22,979077,DepthScenes,duration_manipulation_targetAtFixation,jsons/VE125_randls_53_rotated.json,http://54.235.29.9/FacialAge/BNav_EC2/DepthDuration/v2_depth_duration_MTurk/v2_DepthDuration_HTML.html#50,50,1280,800,1280,800,8-21-2022,11-17-40,23,depth_duration_stimuli/000493_2014-06-09_21-01-18_260595134347_rgbf000196-resize_3/000493_2014-06-09_21-01-18_260595134347_rgbf000196-resize_3-target.png,125,3.44,4,5162,131,feet,jsons/VE125_randls_53_rotated.json,728991,849625,48,Woman
23,979077,DepthScenes,duration_manipulation_targetAtFixation,jsons/VE125_randls_53_rotated.json,http://54.235.29.9/FacialAge/BNav_EC2/DepthDuration/v2_depth_duration_MTurk/v2_DepthDuration_HTML.html#50,50,1280,800,1280,800,8-21-2022,11-17-40,24,depth_duration_stimuli/002323_2014-06-28_20-01-54_260595134347_rgbf000051-resize_4/002323_2014-06-28_20-01-54_260595134347_rgbf000051-resize_4-target.png,125,3.7310000000000003,3,2631,128,feet,jsons/VE125_randls_53_rotated.json,728991,849625,48,Woman
24,979077,DepthScenes,duration_manipulation_targetAtFixation,jsons/VE125_randls_53_rotated.json,http://54.235.29.9/FacialAge/BNav_EC2/DepthDuration/v2_depth_duration_MTurk/v2_DepthDuration_HTML.html#50,50,1280,800,1280,800,8-21-2022,11-17-40,25,depth_duration_stimuli/000917_2014-06-09_22-45-29_260595134347_rgbf000149-resize_3/000917_2014-06-09_22-45-29_260595134347_rgbf000149-resize_3-target.png,125,4.1865,3,1961,125,feet,jsons/VE125_randls_53_rotated.json,728991,849625,48,Woman
25,979077,DepthScenes,duration_manipulation_targetAtFixation,jsons/VE125_randls_53_rotated.json,http://54.235.29.9/FacialAge/BNav_EC2/DepthDuration/v2_depth_duration_MTurk/v2_DepthDuration_HTML.html#50,50,1280,800,1280,800,8-21-2022,11-17-40,26,depth_duration_stimuli/002425_2014-06-28_20-27-29_260595134347_rgbf000031-resize_8/002425_2014-06-28_20-27-29_260595134347_rgbf000031-resize_8-target.png,125,3.8960000000000004,3,5432,121,feet,jsons/VE125_randls_53_rotated.json,728991,849625,48,Woman
26,979077,DepthScenes,duration_manipulation_targetAtFixation,jsons/VE125_randls_53_rotated.json,http://54.235.29.9/FacialAge/BNav_EC2/DepthDuration/v2_depth_duration_MTurk/v2_DepthDuration_HTML.html#50,50,1280,800,1280,800,8-21-2022,11-17-40,27,depth_duration_stimuli/000642_2014-06-08_16-59-25_260595134347_rgbf000098-resize_2/000642_2014-06-08_16-59-25_260595134347_rgbf000098-resize_2-target.png,125,2.8815,7,7802,115,feet,jsons/VE125_randls_53_rotated.json,728991,849625,48,Woman
27,979077,DepthScenes,duration_manipulation_targetAtFixation,jsons/VE125_randls_53_rotated.json,http://54.235.29.9/FacialAge/BNav_EC2/DepthDuration/v2_depth_duration_MTurk/v2_DepthDuration_HTML.html#50,50,1280,800,1280,800,8-21-2022,11-17-40,28,depth_duration_stimuli/003587_2014-05-23_16-48-02_094959634447_rgbf002384-resize_2/003587_2014-05-23_16-48-02_094959634447_rgbf002384-resize_2-target.png,125,1.357,7,22596,127,feet,jsons/VE125_randls_53_rotated.json,728991,849625,48,Woman
28,979077,DepthScenes,duration_manipulation_targetAtFixation,jsons/VE125_randls_53_rotated.json,http://54.235.29.9/FacialAge/BNav_EC2/DepthDuration/v2_depth_duration_MTurk/v2_DepthDuration_HTML.html#50,50,1280,800,1280,800,8-21-2022,11-17-40,29,depth_duration_stimuli/001167_2014-06-17_15-38-07_260595134347_rgbf000108-resize_0/001167_2014-06-17_15-38-07_260595134347_rgbf000108-resize_0-target.png,125,1.8505,7,12615,167,feet,jsons/VE125_randls_53_rotated.json,728991,849625,48,Woman
29,979077,DepthScenes,duration_manipulation_targetAtFixation,jsons/VE125_randls_53_rotated.json,http://54.235.29.9/FacialAge/BNav_EC2/DepthDuration/v2_depth_duration_MTurk/v2_DepthDuration_HTML.html#50,50,1280,800,1280,800,8-21-2022,11-17-40,30,depth_duration_stimuli/002072_2014-06-24_21-48-06_260595134347_rgbf000115-resize_0/002072_2014-06-24_21-48-06_260595134347_rgbf000115-resize-original.jpg,125,4.702,5,2187,129,feet,jsons/VE125_randls_53_rotated.json,728991,849625,48,Woman
30,979077,DepthScenes,duration_manipulation_targetAtFixation,jsons/VE125_randls_53_rotated.json,http://54.235.29.9/FacialAge/BNav_EC2/DepthDuration/v2_depth_duration_MTurk/v2_DepthDuration_HTML.html#50,50,1280,800,1280,800,8-21-2022,11-17-40,31,depth_duration_stimuli/002545_2014-06-24_13-38-53_094959634447_rgbf000080-resize_4/002545_2014-06-24_13-38-53_094959634447_rgbf000080-resize_4-target.png,125,1.9205,5,3655,108,feet,jsons/VE125_randls_53_rotated.json,728991,849625,48,Woman
31,979077,DepthScenes,duration_manipulation_targetAtFixation,jsons/VE125_randls_53_rotated.json,http://54.235.29.9/FacialAge/BNav_EC2/DepthDuration/v2_depth_duration_MTurk/v2_DepthDuration_HTML.html#50,50,1280,800,1280,800,8-21-2022,11-17-40,32,depth_duration_stimuli/001092_2014-06-15_17-34-58_260595134347_rgbf000171-resize_3/001092_2014-06-15_17-34-58_260595134347_rgbf000171-resize_3-target.png,125,2.6935,4,6759,121,feet,jsons/VE125_randls_53_rotated.json,728991,849625,48,Woman
32,979077,DepthScenes,duration_manipulation_targetAtFixation,jsons/VE125_randls_53_rotated.json,http://54.235.29.9/FacialAge/BNav_EC2/DepthDuration/v2_depth_duration_MTurk/v2_DepthDuration_HTML.html#50,50,1280,800,1280,800,8-21-2022,11-17-40,33,depth_duration_stimuli/001214_2014-06-17_16-13-55_260595134347_rgbf000111-resize_0/001214_2014-06-17_16-13-55_260595134347_rgbf000111-resize_0-target.png,125,2.6505,5,2950,90,feet,jsons/VE125_randls_53_rotated.json,728991,849625,48,Woman
33,979077,DepthScenes,duration_manipulation_targetAtFixation,jsons/VE125_randls_53_rotated.json,http://54.235.29.9/FacialAge/BNav_EC2/DepthDuration/v2_depth_duration_MTurk/v2_DepthDuration_HTML.html#50,50,1280,800,1280,800,8-21-2022,11-17-40,34,depth_duration_stimuli/000810_2014-06-08_17-20-01_260595134347_rgbf000105-resize_0/000810_2014-06-08_17-20-01_260595134347_rgbf000105-resize_0-target.png,125,1.4865,0,17905,106,feet,jsons/VE125_randls_53_rotated.json,728991,849625,48,Woman
34,979077,DepthScenes,duration_manipulation_targetAtFixation,jsons/VE125_randls_53_rotated.json,http://54.235.29.9/FacialAge/BNav_EC2/DepthDuration/v2_depth_duration_MTurk/v2_DepthDuration_HTML.html#50,50,1280,800,1280,800,8-21-2022,11-17-40,35,depth_duration_stimuli/001052_2014-06-08_18-24-54_260595134347_rgbf000130-resize_1/001052_2014-06-08_18-24-54_260595134347_rgbf000130-resize_1-target.png,125,4.1045,6,4565,118,feet,jsons/VE125_randls_53_rotated.json,728991,849625,48,Woman
35,979077,DepthScenes,duration_manipulation_targetAtFixation,jsons/VE125_randls_53_rotated.json,http://54.235.29.9/FacialAge/BNav_EC2/DepthDuration/v2_depth_duration_MTurk/v2_DepthDuration_HTML.html#50,50,1280,800,1280,800,8-21-2022,11-17-40,36,depth_duration_stimuli/002988_2014-06-15_12-24-20_094959634447_rgbf000150-resize_1/002988_2014-06-15_12-24-20_094959634447_rgbf000150-resize_1-target.png,125,4.7669999999999995,7,12345,137,feet,jsons/VE125_randls_53_rotated.json,728991,849625,48,Woman
36,979077,DepthScenes,duration_manipulation_targetAtFixation,jsons/VE125_randls_53_rotated.json,http://54.235.29.9/FacialAge/BNav_EC2/DepthDuration/v2_depth_duration_MTurk/v2_DepthDuration_HTML.html#50,50,1280,800,1280,800,8-21-2022,11-17-40,37,depth_duration_stimuli/002637_2014-06-24_14-51-13_094959634447_rgbf000066-resize_4/002637_2014-06-24_14-51-13_094959634447_rgbf000066-resize_4-target.png,125,1.9955,7,5489,90,feet,jsons/VE125_randls_53_rotated.json,728991,849625,48,Woman
37,979077,DepthScenes,duration_manipulation_targetAtFixation,jsons/VE125_randls_53_rotated.json,http://54.235.29.9/FacialAge/BNav_EC2/DepthDuration/v2_depth_duration_MTurk/v2_DepthDuration_HTML.html#50,50,1280,800,1280,800,8-21-2022,11-17-40,38,depth_duration_stimuli/003534_2014-05-22_15-06-10_094959634447_rgbf000102-resize_4/003534_2014-05-22_15-06-10_094959634447_rgbf000102-resize_4-target.png,125,1.426,3,2082,102,feet,jsons/VE125_randls_53_rotated.json,728991,849625,48,Woman
38,979077,DepthScenes,duration_manipulation_targetAtFixation,jsons/VE125_randls_53_rotated.json,http://54.235.29.9/FacialAge/BNav_EC2/DepthDuration/v2_depth_duration_MTurk/v2_DepthDuration_HTML.html#50,50,1280,800,1280,800,8-21-2022,11-17-40,39,depth_duration_stimuli/000665_2014-06-09_20-42-35_260595134347_rgbf000110-resize_1/000665_2014-06-09_20-42-35_260595134347_rgbf000110-resize_1-target.png,125,3.057,2,2070,134,feet,jsons/VE125_randls_53_rotated.json,728991,849625,48,Woman
39,979077,DepthScenes,duration_manipulation_targetAtFixation,jsons/VE125_randls_53_rotated.json,http://54.235.29.9/FacialAge/BNav_EC2/DepthDuration/v2_depth_duration_MTurk/v2_DepthDuration_HTML.html#50,50,1280,800,1280,800,8-21-2022,11-17-40,40,depth_duration_stimuli/001150_2014-06-17_15-27-34_260595134347_rgbf000108-resize_2/001150_2014-06-17_15-27-34_260595134347_rgbf000108-resize_2-target.png,125,4.0325,2,1500,125,feet,jsons/VE125_randls_53_rotated.json,728991,849625,48,Woman
40,979077,DepthScenes,duration_manipulation_targetAtFixation,jsons/VE125_randls_53_rotated.json,http://54.235.29.9/FacialAge/BNav_EC2/DepthDuration/v2_depth_duration_MTurk/v2_DepthDuration_HTML.html#50,50,1280,800,1280,800,8-21-2022,11-17-40,41,depth_duration_stimuli/001617_2014-06-20_11-35-32_260595134347_rgbf000066-resize_1/001617_2014-06-20_11-35-32_260595134347_rgbf000066-resize_1-target.png,125,3.7910000000000004,5,1621,125,feet,jsons/VE125_randls_53_rotated.json,728991,849625,48,Woman
41,979077,DepthScenes,duration_manipulation_targetAtFixation,jsons/VE125_randls_53_rotated.json,http://54.235.29.9/FacialAge/BNav_EC2/DepthDuration/v2_depth_duration_MTurk/v2_DepthDuration_HTML.html#50,50,1280,800,1280,800,8-21-2022,11-17-40,42,depth_duration_stimuli/001806_2014-06-26_20-50-20_260595134347_rgbf000091-resize_1/001806_2014-06-26_20-50-20_260595134347_rgbf000091-resize_1-target.png,125,2.7305,6,1744,132,feet,jsons/VE125_randls_53_rotated.json,728991,849625,48,Woman
42,979077,DepthScenes,duration_manipulation_targetAtFixation,jsons/VE125_randls_53_rotated.json,http://54.235.29.9/FacialAge/BNav_EC2/DepthDuration/v2_depth_duration_MTurk/v2_DepthDuration_HTML.html#50,50,1280,800,1280,800,8-21-2022,11-17-40,43,depth_duration_stimuli/003083_2014-06-15_15-21-03_094959634447_rgbf000063-resize_1/003083_2014-06-15_15-21-03_094959634447_rgbf000063-resize_1-target.png,125,4.1405,8,2246,115,feet,jsons/VE125_randls_53_rotated.json,728991,849625,48,Woman
43,979077,DepthScenes,duration_manipulation_targetAtFixation,jsons/VE125_randls_53_rotated.json,http://54.235.29.9/FacialAge/BNav_EC2/DepthDuration/v2_depth_duration_MTurk/v2_DepthDuration_HTML.html#50,50,1280,800,1280,800,8-21-2022,11-17-40,44,depth_duration_stimuli/000486_2014-06-09_20-47-20_260595134347_rgbf000143-resize_2/000486_2014-06-09_20-47-20_260595134347_rgbf000143-resize_2-target.png,125,4.8325,5,1657,124,feet,jsons/VE125_randls_53_rotated.json,728991,849625,48,Woman
44,979077,DepthScenes,duration_manipulation_targetAtFixation,jsons/VE125_randls_53_rotated.json,http://54.235.29.9/FacialAge/BNav_EC2/DepthDuration/v2_depth_duration_MTurk/v2_DepthDuration_HTML.html#50,50,1280,800,1280,800,8-21-2022,11-17-40,45,depth_duration_stimuli/001815_2014-06-26_20-52-55_260595134347_rgbf000020-resize_0/001815_2014-06-26_20-52-55_260595134347_rgbf000020-resize_0-target.png,125,3.3865,3,2093,111,feet,jsons/VE125_randls_53_rotated.json,728991,849625,48,Woman
45,979077,DepthScenes,duration_manipulation_targetAtFixation,jsons/VE125_randls_53_rotated.json,http://54.235.29.9/FacialAge/BNav_EC2/DepthDuration/v2_depth_duration_MTurk/v2_DepthDuration_HTML.html#50,50,1280,800,1280,800,8-21-2022,11-17-40,46,depth_duration_stimuli/001808_2014-06-26_20-50-58_260595134347_rgbf000029-resize_1/001808_2014-06-26_20-50-58_260595134347_rgbf000029-resize_1-target.png,125,4.249,5,1794,123,feet,jsons/VE125_randls_53_rotated.json,728991,849625,48,Woman
46,979077,DepthScenes,duration_manipulation_targetAtFixation,jsons/VE125_randls_53_rotated.json,http://54.235.29.9/FacialAge/BNav_EC2/DepthDuration/v2_depth_duration_MTurk/v2_DepthDuration_HTML.html#50,50,1280,800,1280,800,8-21-2022,11-17-40,47,depth_duration_stimuli/002758_2014-06-22_19-11-20_094959634447_rgbf000128-resize_1/002758_2014-06-22_19-11-20_094959634447_rgbf000128-resize_1-target.png,125,2.555,7,2406,110,feet,jsons/VE125_randls_53_rotated.json,728991,849625,48,Woman
47,979077,DepthScenes,duration_manipulation_targetAtFixation,jsons/VE125_randls_53_rotated.json,http://54.235.29.9/FacialAge/BNav_EC2/DepthDuration/v2_depth_duration_MTurk/v2_DepthDuration_HTML.html#50,50,1280,800,1280,800,8-21-2022,11-17-40,48,depth_duration_stimuli/002630_2014-06-24_14-47-50_094959634447_rgbf000055-resize_1/002630_2014-06-24_14-47-50_094959634447_rgbf000055-resize_1-target.png,125,3.0095,4,1698,120,feet,jsons/VE125_randls_53_rotated.json,728991,849625,48,Woman
48,979077,DepthScenes,duration_manipulation_targetAtFixation,jsons/VE125_randls_53_rotated.json,http://54.235.29.9/FacialAge/BNav_EC2/DepthDuration/v2_depth_duration_MTurk/v2_DepthDuration_HTML.html#50,50,1280,800,1280,800,8-21-2022,11-17-40,49,depth_duration_stimuli/001170_2014-06-17_15-43-44_260595134347_rgbf000096-resize_6/001170_2014-06-17_15-43-44_260595134347_rgbf000096-resize-original.jpg,125,1.1909999999999998,8,2878,124,feet,jsons/VE125_randls_53_rotated.json,728991,849625,48,Woman
49,979077,DepthScenes,duration_manipulation_targetAtFixation,jsons/VE125_randls_53_rotated.json,http://54.235.29.9/FacialAge/BNav_EC2/DepthDuration/v2_depth_duration_MTurk/v2_DepthDuration_HTML.html#50,50,1280,800,1280,800,8-21-2022,11-17-40,50,depth_duration_stimuli/002444_2014-06-28_20-32-08_260595134347_rgbf000027-resize_0/002444_2014-06-28_20-32-08_260595134347_rgbf000027-resize_0-target.png,125,4.388999999999999,5,2111,125,feet,jsons/VE125_randls_53_rotated.json,728991,849625,48,Woman
50,979077,DepthScenes,duration_manipulation_targetAtFixation,jsons/VE125_randls_53_rotated.json,http://54.235.29.9/FacialAge/BNav_EC2/DepthDuration/v2_depth_duration_MTurk/v2_DepthDuration_HTML.html#50,50,1280,800,1280,800,8-21-2022,11-17-40,51,depth_duration_stimuli/000436_2014-06-09_22-25-11_260595134347_rgbf000137-resize_1/000436_2014-06-09_22-25-11_260595134347_rgbf000137-resize_1-target.png,125,4.0705,3,1802,124,feet,jsons/VE125_randls_53_rotated.json,728991,849625,48,Woman
51,979077,DepthScenes,duration_manipulation_targetAtFixation,jsons/VE125_randls_53_rotated.json,http://54.235.29.9/FacialAge/BNav_EC2/DepthDuration/v2_depth_duration_MTurk/v2_DepthDuration_HTML.html#50,50,1280,800,1280,800,8-21-2022,11-17-40,52,depth_duration_stimuli/002209_2014-06-28_18-36-10_260595134347_rgbf000051-resize_1/002209_2014-06-28_18-36-10_260595134347_rgbf000051-resize_1-target.png,125,2.057,2,1568,124,feet,jsons/VE125_randls_53_rotated.json,728991,849625,48,Woman
52,979077,DepthScenes,duration_manipulation_targetAtFixation,jsons/VE125_randls_53_rotated.json,http://54.235.29.9/FacialAge/BNav_EC2/DepthDuration/v2_depth_duration_MTurk/v2_DepthDuration_HTML.html#50,50,1280,800,1280,800,8-21-2022,11-17-40,53,depth_duration_stimuli/002763_2014-06-22_19-13-10_094959634447_rgbf000075-resize_4/002763_2014-06-22_19-13-10_094959634447_rgbf000075-resize_4-target.png,125,1.68375,4,1798,125,feet,jsons/VE125_randls_53_rotated.json,728991,849625,48,Woman
53,979077,DepthScenes,duration_manipulation_targetAtFixation,jsons/VE125_randls_53_rotated.json,http://54.235.29.9/FacialAge/BNav_EC2/DepthDuration/v2_depth_duration_MTurk/v2_DepthDuration_HTML.html#50,50,1280,800,1280,800,8-21-2022,11-17-40,54,depth_duration_stimuli/000103_2014-05-14_22-01-17_260595134347_rgbf000152-resize_5/000103_2014-05-14_22-01-17_260595134347_rgbf000152-resize_5-target.png,125,1.993,4,1663,132,feet,jsons/VE125_randls_53_rotated.json,728991,849625,48,Woman
54,979077,DepthScenes,duration_manipulation_targetAtFixation,jsons/VE125_randls_53_rotated.json,http://54.235.29.9/FacialAge/BNav_EC2/DepthDuration/v2_depth_duration_MTurk/v2_DepthDuration_HTML.html#50,50,1280,800,1280,800,8-21-2022,11-17-40,55,depth_duration_stimuli/001555_2014-06-20_17-12-10_260595134347_rgbf000065-resize_4/001555_2014-06-20_17-12-10_260595134347_rgbf000065-resize_4-target.png,125,1.633,4,2824,128,feet,jsons/VE125_randls_53_rotated.json,728991,849625,48,Woman
55,979077,DepthScenes,duration_manipulation_targetAtFixation,jsons/VE125_randls_53_rotated.json,http://54.235.29.9/FacialAge/BNav_EC2/DepthDuration/v2_depth_duration_MTurk/v2_DepthDuration_HTML.html#50,50,1280,800,1280,800,8-21-2022,11-17-40,56,depth_duration_stimuli/002678_2014-06-13_16-15-32_094959634447_rgbf000151-resize_6/002678_2014-06-13_16-15-32_094959634447_rgbf000151-resize_6-target.png,125,2.1830000000000003,5,1864,120,feet,jsons/VE125_randls_53_rotated.json,728991,849625,48,Woman
56,979077,DepthScenes,duration_manipulation_targetAtFixation,jsons/VE125_randls_53_rotated.json,http://54.235.29.9/FacialAge/BNav_EC2/DepthDuration/v2_depth_duration_MTurk/v2_DepthDuration_HTML.html#50,50,1280,800,1280,800,8-21-2022,11-17-40,57,depth_duration_stimuli/000368_2014-06-09_15-53-01_260595134347_rgbf000155-resize_2/000368_2014-06-09_15-53-01_260595134347_rgbf000155-resize_2-target.png,125,2.4859999999999998,6,11361,121,feet,jsons/VE125_randls_53_rotated.json,728991,849625,48,Woman
57,979077,DepthScenes,duration_manipulation_targetAtFixation,jsons/VE125_randls_53_rotated.json,http://54.235.29.9/FacialAge/BNav_EC2/DepthDuration/v2_depth_duration_MTurk/v2_DepthDuration_HTML.html#50,50,1280,800,1280,800,8-21-2022,11-17-40,58,depth_duration_stimuli/001447_2014-06-19_17-00-32_260595134347_rgbf000082-resize_5/001447_2014-06-19_17-00-32_260595134347_rgbf000082-resize_5-target.png,125,4.13775,9,6640,137,feet,jsons/VE125_randls_53_rotated.json,728991,849625,48,Woman
58,979077,DepthScenes,duration_manipulation_targetAtFixation,jsons/VE125_randls_53_rotated.json,http://54.235.29.9/FacialAge/BNav_EC2/DepthDuration/v2_depth_duration_MTurk/v2_DepthDuration_HTML.html#50,50,1280,800,1280,800,8-21-2022,11-17-40,59,depth_duration_stimuli/000447_2014-06-08_16-15-46_260595134347_rgbf000130-resize_1/000447_2014-06-08_16-15-46_260595134347_rgbf000130-resize_1-target.png,125,4.479,7,16212,119,feet,jsons/VE125_randls_53_rotated.json,728991,849625,48,Woman
59,979077,DepthScenes,duration_manipulation_targetAtFixation,jsons/VE125_randls_53_rotated.json,http://54.235.29.9/FacialAge/BNav_EC2/DepthDuration/v2_depth_duration_MTurk/v2_DepthDuration_HTML.html#50,50,1280,800,1280,800,8-21-2022,11-17-40,60,depth_duration_stimuli/003079_2014-06-15_15-18-20_094959634447_rgbf000152-resize_8/003079_2014-06-15_15-18-20_094959634447_rgbf000152-resize_8-target.png,125,2.8775,7,11592,134,feet,jsons/VE125_randls_53_rotated.json,728991,849625,48,Woman
60,979077,DepthScenes,duration_manipulation_targetAtFixation,jsons/VE125_randls_53_rotated.json,http://54.235.29.9/FacialAge/BNav_EC2/DepthDuration/v2_depth_duration_MTurk/v2_DepthDuration_HTML.html#50,50,1280,800,1280,800,8-21-2022,11-17-40,61,depth_duration_stimuli/000506_2014-06-08_23-21-00_260595134347_rgbf000070-resize_7/000506_2014-06-08_23-21-00_260595134347_rgbf000070-resize_7-target.png,125,4.0585,7,11118,123,feet,jsons/VE125_randls_53_rotated.json,728991,849625,48,Woman
61,979077,DepthScenes,duration_manipulation_targetAtFixation,jsons/VE125_randls_53_rotated.json,http://54.235.29.9/FacialAge/BNav_EC2/DepthDuration/v2_depth_duration_MTurk/v2_DepthDuration_HTML.html#50,50,1280,800,1280,800,8-21-2022,11-17-40,62,depth_duration_stimuli/002340_2014-06-28_20-05-46_260595134347_rgbf000113-resize_0/002340_2014-06-28_20-05-46_260595134347_rgbf000113-resize_0-target.png,125,2.4735,5,2023,136,feet,jsons/VE125_randls_53_rotated.json,728991,849625,48,Woman
62,979077,DepthScenes,duration_manipulation_targetAtFixation,jsons/VE125_randls_53_rotated.json,http://54.235.29.9/FacialAge/BNav_EC2/DepthDuration/v2_depth_duration_MTurk/v2_DepthDuration_HTML.html#50,50,1280,800,1280,800,8-21-2022,11-17-40,63,depth_duration_stimuli/001016_2014-06-09_16-16-10_260595134347_rgbf000112-resize_5/001016_2014-06-09_16-16-10_260595134347_rgbf000112-resize_5-target.png,125,1.6565,4,1616,137,feet,jsons/VE125_randls_53_rotated.json,728991,849625,48,Woman
63,979077,DepthScenes,duration_manipulation_targetAtFixation,jsons/VE125_randls_53_rotated.json,http://54.235.29.9/FacialAge/BNav_EC2/DepthDuration/v2_depth_duration_MTurk/v2_DepthDuration_HTML.html#50,50,1280,800,1280,800,8-21-2022,11-17-40,64,depth_duration_stimuli/000734_2014-06-08_17-39-11_260595134347_rgbf000128-resize_2/000734_2014-06-08_17-39-11_260595134347_rgbf000128-resize_2-target.png,125,4.098,3,2108,119,feet,jsons/VE125_randls_53_rotated.json,728991,849625,48,Woman
64,979077,DepthScenes,duration_manipulation_targetAtFixation,jsons/VE125_randls_53_rotated.json,http://54.235.29.9/FacialAge/BNav_EC2/DepthDuration/v2_depth_duration_MTurk/v2_DepthDuration_HTML.html#50,50,1280,800,1280,800,8-21-2022,11-17-40,65,depth_duration_stimuli/000739_2014-06-08_18-45-58_260595134347_rgbf000068-resize_1/000739_2014-06-08_18-45-58_260595134347_rgbf000068-resize_1-target.png,125,3.534,3,1563,68,feet,jsons/VE125_randls_53_rotated.json,728991,849625,48,Woman
65,979077,DepthScenes,duration_manipulation_targetAtFixation,jsons/VE125_randls_53_rotated.json,http://54.235.29.9/FacialAge/BNav_EC2/DepthDuration/v2_depth_duration_MTurk/v2_DepthDuration_HTML.html#50,50,1280,800,1280,800,8-21-2022,11-17-40,66,depth_duration_stimuli/001540_2014-06-20_17-01-05_260595134347_rgbf000086-resize_2/001540_2014-06-20_17-01-05_260595134347_rgbf000086-resize-original.jpg,125,1.459,4,1943,127,feet,jsons/VE125_randls_53_rotated.json,728991,849625,48,Woman
66,979077,DepthScenes,duration_manipulation_targetAtFixation,jsons/VE125_randls_53_rotated.json,http://54.235.29.9/FacialAge/BNav_EC2/DepthDuration/v2_depth_duration_MTurk/v2_DepthDuration_HTML.html#50,50,1280,800,1280,800,8-21-2022,11-17-40,67,depth_duration_stimuli/000502_2014-06-08_23-02-32_260595134347_rgbf000063-resize_4/000502_2014-06-08_23-02-32_260595134347_rgbf000063-resize_4-target.png,125,2.431,5,2721,122,feet,jsons/VE125_randls_53_rotated.json,728991,849625,48,Woman
67,979077,DepthScenes,duration_manipulation_targetAtFixation,jsons/VE125_randls_53_rotated.json,http://54.235.29.9/FacialAge/BNav_EC2/DepthDuration/v2_depth_duration_MTurk/v2_DepthDuration_HTML.html#50,50,1280,800,1280,800,8-21-2022,11-17-40,68,depth_duration_stimuli/001199_2014-06-17_16-03-48_260595134347_rgbf000077-resize_0/001199_2014-06-17_16-03-48_260595134347_rgbf000077-resize_0-target.png,125,3.4375,5,1552,118,feet,jsons/VE125_randls_53_rotated.json,728991,849625,48,Woman
68,979077,DepthScenes,duration_manipulation_targetAtFixation,jsons/VE125_randls_53_rotated.json,http://54.235.29.9/FacialAge/BNav_EC2/DepthDuration/v2_depth_duration_MTurk/v2_DepthDuration_HTML.html#50,50,1280,800,1280,800,8-21-2022,11-17-40,69,depth_duration_stimuli/000749_2014-06-08_21-55-06_260595134347_rgbf000070-resize_2/000749_2014-06-08_21-55-06_260595134347_rgbf000070-resize_2-target.png,125,2.331,5,1794,6,feet,jsons/VE125_randls_53_rotated.json,728991,849625,48,Woman
69,979077,DepthScenes,duration_manipulation_targetAtFixation,jsons/VE125_randls_53_rotated.json,http://54.235.29.9/FacialAge/BNav_EC2/DepthDuration/v2_depth_duration_MTurk/v2_DepthDuration_HTML.html#50,50,1280,800,1280,800,8-21-2022,11-17-40,70,depth_duration_stimuli/002788_2014-06-22_19-36-03_094959634447_rgbf000088-resize_2/002788_2014-06-22_19-36-03_094959634447_rgbf000088-resize_2-target.png,125,1.6465,3,1663,129,feet,jsons/VE125_randls_53_rotated.json,728991,849625,48,Woman
70,979077,DepthScenes,duration_manipulation_targetAtFixation,jsons/VE125_randls_53_rotated.json,http://54.235.29.9/FacialAge/BNav_EC2/DepthDuration/v2_depth_duration_MTurk/v2_DepthDuration_HTML.html#50,50,1280,800,1280,800,8-21-2022,11-17-40,71,depth_duration_stimuli/002995_2014-06-15_12-31-26_094959634447_rgbf000150-resize_1/002995_2014-06-15_12-31-26_094959634447_rgbf000150-resize_1-target.png,125,3.8360000000000003,3,1959,122,feet,jsons/VE125_randls_53_rotated.json,728991,849625,48,Woman
71,979077,DepthScenes,duration_manipulation_targetAtFixation,jsons/VE125_randls_53_rotated.json,http://54.235.29.9/FacialAge/BNav_EC2/DepthDuration/v2_depth_duration_MTurk/v2_DepthDuration_HTML.html#50,50,1280,800,1280,800,8-21-2022,11-17-40,72,depth_duration_stimuli/002748_2014-06-22_19-07-22_094959634447_rgbf000078-resize_1/002748_2014-06-22_19-07-22_094959634447_rgbf000078-resize_1-target.png,125,4.6705,7,1588,128,feet,jsons/VE125_randls_53_rotated.json,728991,849625,48,Woman
72,979077,DepthScenes,duration_manipulation_targetAtFixation,jsons/VE125_randls_53_rotated.json,http://54.235.29.9/FacialAge/BNav_EC2/DepthDuration/v2_depth_duration_MTurk/v2_DepthDuration_HTML.html#50,50,1280,800,1280,800,8-21-2022,11-17-40,73,depth_duration_stimuli/000709_2014-06-08_13-51-55_260595134347_rgbf000068-resize_3/000709_2014-06-08_13-51-55_260595134347_rgbf000068-resize_3-target.png,125,1.8030000000000002,7,1736,124,feet,jsons/VE125_randls_53_rotated.json,728991,849625,48,Woman
73,979077,DepthScenes,duration_manipulation_targetAtFixation,jsons/VE125_randls_53_rotated.json,http://54.235.29.9/FacialAge/BNav_EC2/DepthDuration/v2_depth_duration_MTurk/v2_DepthDuration_HTML.html#50,50,1280,800,1280,800,8-21-2022,11-17-40,74,depth_duration_stimuli/002057_2014-06-24_21-00-13_260595134347_rgbf000120-resize_1/002057_2014-06-24_21-00-13_260595134347_rgbf000120-resize_1-target.png,125,2.967,7,1700,79,feet,jsons/VE125_randls_53_rotated.json,728991,849625,48,Woman
74,979077,DepthScenes,duration_manipulation_targetAtFixation,jsons/VE125_randls_53_rotated.json,http://54.235.29.9/FacialAge/BNav_EC2/DepthDuration/v2_depth_duration_MTurk/v2_DepthDuration_HTML.html#50,50,1280,800,1280,800,8-21-2022,11-17-40,75,depth_duration_stimuli/000742_2014-06-08_18-48-09_260595134347_rgbf000164-resize_4/000742_2014-06-08_18-48-09_260595134347_rgbf000164-resize_4-target.png,125,4.632,7,1982,122,feet,jsons/VE125_randls_53_rotated.json,728991,849625,48,Woman
75,979077,DepthScenes,duration_manipulation_targetAtFixation,jsons/VE125_randls_53_rotated.json,http://54.235.29.9/FacialAge/BNav_EC2/DepthDuration/v2_depth_duration_MTurk/v2_DepthDuration_HTML.html#50,50,1280,800,1280,800,8-21-2022,11-17-40,76,depth_duration_stimuli/001066_2014-06-08_22-03-20_260595134347_rgbf000066-resize_4/001066_2014-06-08_22-03-20_260595134347_rgbf000066-resize_4-target.png,125,4.2330000000000005,8,1899,120,feet,jsons/VE125_randls_53_rotated.json,728991,849625,48,Woman
76,979077,DepthScenes,duration_manipulation_targetAtFixation,jsons/VE125_randls_53_rotated.json,http://54.235.29.9/FacialAge/BNav_EC2/DepthDuration/v2_depth_duration_MTurk/v2_DepthDuration_HTML.html#50,50,1280,800,1280,800,8-21-2022,11-17-40,77,depth_duration_stimuli/001516_2014-06-20_16-25-09_260595134347_rgbf000076-resize_2/001516_2014-06-20_16-25-09_260595134347_rgbf000076-resize_2-target.png,125,1.7445,9,7982,124,feet,jsons/VE125_randls_53_rotated.json,728991,849625,48,Woman
77,979077,DepthScenes,duration_manipulation_targetAtFixation,jsons/VE125_randls_53_rotated.json,http://54.235.29.9/FacialAge/BNav_EC2/DepthDuration/v2_depth_duration_MTurk/v2_DepthDuration_HTML.html#50,50,1280,800,1280,800,8-21-2022,11-17-40,78,depth_duration_stimuli/002118_2014-06-25_20-32-08_260595134347_rgbf000078-resize_1/002118_2014-06-25_20-32-08_260595134347_rgbf000078-resize_1-target.png,125,2.6460000000000004,7,13715,123,feet,jsons/VE125_randls_53_rotated.json,728991,849625,48,Woman
78,979077,DepthScenes,duration_manipulation_targetAtFixation,jsons/VE125_randls_53_rotated.json,http://54.235.29.9/FacialAge/BNav_EC2/DepthDuration/v2_depth_duration_MTurk/v2_DepthDuration_HTML.html#50,50,1280,800,1280,800,8-21-2022,11-17-40,79,depth_duration_stimuli/002657_2014-06-13_15-29-54_094959634447_rgbf000150-resize_1/002657_2014-06-13_15-29-54_094959634447_rgbf000150-resize_1-target.png,125,4.919,7,7862,121,feet,jsons/VE125_randls_53_rotated.json,728991,849625,48,Woman
79,979077,DepthScenes,duration_manipulation_targetAtFixation,jsons/VE125_randls_53_rotated.json,http://54.235.29.9/FacialAge/BNav_EC2/DepthDuration/v2_depth_duration_MTurk/v2_DepthDuration_HTML.html#50,50,1280,800,1280,800,8-21-2022,11-17-40,80,depth_duration_stimuli/002375_2014-06-28_20-13-44_260595134347_rgbf000032-resize_1/002375_2014-06-28_20-13-44_260595134347_rgbf000032-resize_1-target.png,125,4.0175,5,2898,122,feet,jsons/VE125_randls_53_rotated.json,728991,849625,48,Woman
80,979077,DepthScenes,duration_manipulation_targetAtFixation,jsons/VE125_randls_53_rotated.json,http://54.235.29.9/FacialAge/BNav_EC2/DepthDuration/v2_depth_duration_MTurk/v2_DepthDuration_HTML.html#50,50,1280,800,1280,800,8-21-2022,11-17-40,81,depth_duration_stimuli/000109_2014-05-14_23-41-52_260595134347_rgbf000035-resize_9/000109_2014-05-14_23-41-52_260595134347_rgbf000035-resize_9-target.png,125,1.3545,5,14973,125,feet,jsons/VE125_randls_53_rotated.json,728991,849625,48,Woman
81,979077,DepthScenes,duration_manipulation_targetAtFixation,jsons/VE125_randls_53_rotated.json,http://54.235.29.9/FacialAge/BNav_EC2/DepthDuration/v2_depth_duration_MTurk/v2_DepthDuration_HTML.html#50,50,1280,800,1280,800,8-21-2022,11-17-40,82,depth_duration_stimuli/000470_2014-06-09_19-42-40_260595134347_rgbf000094-resize_1/000470_2014-06-09_19-42-40_260595134347_rgbf000094-resize_1-target.png,125,1.831,4,2519,121,feet,jsons/VE125_randls_53_rotated.json,728991,849625,48,Woman
82,979077,DepthScenes,duration_manipulation_targetAtFixation,jsons/VE125_randls_53_rotated.json,http://54.235.29.9/FacialAge/BNav_EC2/DepthDuration/v2_depth_duration_MTurk/v2_DepthDuration_HTML.html#50,50,1280,800,1280,800,8-21-2022,11-17-40,83,depth_duration_stimuli/001571_2014-06-20_17-21-32_260595134347_rgbf000089-resize_1/001571_2014-06-20_17-21-32_260595134347_rgbf000089-resize_1-target.png,125,1.86,4,1666,135,feet,jsons/VE125_randls_53_rotated.json,728991,849625,48,Woman
83,979077,DepthScenes,duration_manipulation_targetAtFixation,jsons/VE125_randls_53_rotated.json,http://54.235.29.9/FacialAge/BNav_EC2/DepthDuration/v2_depth_duration_MTurk/v2_DepthDuration_HTML.html#50,50,1280,800,1280,800,8-21-2022,11-17-40,84,depth_duration_stimuli/002272_2014-06-28_18-53-56_260595134347_rgbf000067-resize_2/002272_2014-06-28_18-53-56_260595134347_rgbf000067-resize_2-target.png,125,1.138,3,1713,124,feet,jsons/VE125_randls_53_rotated.json,728991,849625,48,Woman
84,979077,DepthScenes,duration_manipulation_targetAtFixation,jsons/VE125_randls_53_rotated.json,http://54.235.29.9/FacialAge/BNav_EC2/DepthDuration/v2_depth_duration_MTurk/v2_DepthDuration_HTML.html#50,50,1280,800,1280,800,8-21-2022,11-17-40,85,depth_duration_stimuli/000556_2014-06-09_22-42-56_260595134347_rgbf000214-resize_1/000556_2014-06-09_22-42-56_260595134347_rgbf000214-resize_1-target.png,125,4.8415,3,1984,0,feet,jsons/VE125_randls_53_rotated.json,728991,849625,48,Woman
85,979077,DepthScenes,duration_manipulation_targetAtFixation,jsons/VE125_randls_53_rotated.json,http://54.235.29.9/FacialAge/BNav_EC2/DepthDuration/v2_depth_duration_MTurk/v2_DepthDuration_HTML.html#50,50,1280,800,1280,800,8-21-2022,11-17-40,86,depth_duration_stimuli/001158_2014-06-17_15-32-16_260595134347_rgbf000138-resize_2/001158_2014-06-17_15-32-16_260595134347_rgbf000138-resize_2-target.png,125,4.5315,6,1816,124,feet,jsons/VE125_randls_53_rotated.json,728991,849625,48,Woman
86,979077,DepthScenes,duration_manipulation_targetAtFixation,jsons/VE125_randls_53_rotated.json,http://54.235.29.9/FacialAge/BNav_EC2/DepthDuration/v2_depth_duration_MTurk/v2_DepthDuration_HTML.html#50,50,1280,800,1280,800,8-21-2022,11-17-40,87,depth_duration_stimuli/001100_2014-06-15_17-46-26_260595134347_rgbf000225-resize_2/001100_2014-06-15_17-46-26_260595134347_rgbf000225-resize_2-target.png,125,2.24,7,1821,128,feet,jsons/VE125_randls_53_rotated.json,728991,849625,48,Woman
87,979077,DepthScenes,duration_manipulation_targetAtFixation,jsons/VE125_randls_53_rotated.json,http://54.235.29.9/FacialAge/BNav_EC2/DepthDuration/v2_depth_duration_MTurk/v2_DepthDuration_HTML.html#50,50,1280,800,1280,800,8-21-2022,11-17-40,88,depth_duration_stimuli/002784_2014-06-22_19-26-30_094959634447_rgbf000083-resize_3/002784_2014-06-22_19-26-30_094959634447_rgbf000083-resize_3-target.png,125,1.8046666666667,9,2382,125,feet,jsons/VE125_randls_53_rotated.json,728991,849625,48,Woman
88,979077,DepthScenes,duration_manipulation_targetAtFixation,jsons/VE125_randls_53_rotated.json,http://54.235.29.9/FacialAge/BNav_EC2/DepthDuration/v2_depth_duration_MTurk/v2_DepthDuration_HTML.html#50,50,1280,800,1280,800,8-21-2022,11-17-40,89,depth_duration_stimuli/000854_2014-06-09_19-43-13_260595134347_rgbf000066-resize_0/000854_2014-06-09_19-43-13_260595134347_rgbf000066-resize_0-target.png,125,3.068,7,1849,137,feet,jsons/VE125_randls_53_rotated.json,728991,849625,48,Woman
89,979077,DepthScenes,duration_manipulation_targetAtFixation,jsons/VE125_randls_53_rotated.json,http://54.235.29.9/FacialAge/BNav_EC2/DepthDuration/v2_depth_duration_MTurk/v2_DepthDuration_HTML.html#50,50,1280,800,1280,800,8-21-2022,11-17-40,90,depth_duration_stimuli/000758_2014-06-08_22-05-08_260595134347_rgbf000085-resize_0/000758_2014-06-08_22-05-08_260595134347_rgbf000085-resize_0-target.png,125,3.3810000000000002,6,2665,123,feet,jsons/VE125_randls_53_rotated.json,728991,849625,48,Woman
90,979077,DepthScenes,duration_manipulation_targetAtFixation,jsons/VE125_randls_53_rotated.json,http://54.235.29.9/FacialAge/BNav_EC2/DepthDuration/v2_depth_duration_MTurk/v2_DepthDuration_HTML.html#50,50,1280,800,1280,800,8-21-2022,11-17-40,91,depth_duration_stimuli/001584_2014-06-20_11-07-43_260595134347_rgbf000002-resize_1/001584_2014-06-20_11-07-43_260595134347_rgbf000002-resize_1-target.png,125,3.53,5,2109,271,feet,jsons/VE125_randls_53_rotated.json,728991,849625,48,Woman
91,979077,DepthScenes,duration_manipulation_targetAtFixation,jsons/VE125_randls_53_rotated.json,http://54.235.29.9/FacialAge/BNav_EC2/DepthDuration/v2_depth_duration_MTurk/v2_DepthDuration_HTML.html#50,50,1280,800,1280,800,8-21-2022,11-17-40,92,depth_duration_stimuli/003621_2014-05-23_18-06-08_094959634447_rgbf000101-resize_1/003621_2014-05-23_18-06-08_094959634447_rgbf000101-resize_1-target.png,125,3.9835,3,3037,127,feet,jsons/VE125_randls_53_rotated.json,728991,849625,48,Woman
92,979077,DepthScenes,duration_manipulation_targetAtFixation,jsons/VE125_randls_53_rotated.json,http://54.235.29.9/FacialAge/BNav_EC2/DepthDuration/v2_depth_duration_MTurk/v2_DepthDuration_HTML.html#50,50,1280,800,1280,800,8-21-2022,11-17-40,93,depth_duration_stimuli/002467_2014-06-28_20-38-07_260595134347_rgbf000026-resize_2/002467_2014-06-28_20-38-07_260595134347_rgbf000026-resize_2-target.png,125,4.742,2,1648,123,feet,jsons/VE125_randls_53_rotated.json,728991,849625,48,Woman
93,979077,DepthScenes,duration_manipulation_targetAtFixation,jsons/VE125_randls_53_rotated.json,http://54.235.29.9/FacialAge/BNav_EC2/DepthDuration/v2_depth_duration_MTurk/v2_DepthDuration_HTML.html#50,50,1280,800,1280,800,8-21-2022,11-17-40,94,depth_duration_stimuli/002570_2014-06-24_13-59-54_094959634447_rgbf000059-resize_0/002570_2014-06-24_13-59-54_094959634447_rgbf000059-resize_0-target.png,125,4.037,4,1964,125,feet,jsons/VE125_randls_53_rotated.json,728991,849625,48,Woman
94,979077,DepthScenes,duration_manipulation_targetAtFixation,jsons/VE125_randls_53_rotated.json,http://54.235.29.9/FacialAge/BNav_EC2/DepthDuration/v2_depth_duration_MTurk/v2_DepthDuration_HTML.html#50,50,1280,800,1280,800,8-21-2022,11-17-40,95,depth_duration_stimuli/001450_2014-06-19_17-02-03_260595134347_rgbf000203-resize_4/001450_2014-06-19_17-02-03_260595134347_rgbf000203-resize_4-target.png,125,4.0106666666667,6,2070,302,feet,jsons/VE125_randls_53_rotated.json,728991,849625,48,Woman
95,979077,DepthScenes,duration_manipulation_targetAtFixation,jsons/VE125_randls_53_rotated.json,http://54.235.29.9/FacialAge/BNav_EC2/DepthDuration/v2_depth_duration_MTurk/v2_DepthDuration_HTML.html#50,50,1280,800,1280,800,8-21-2022,11-17-40,96,depth_duration_stimuli/001449_2014-06-19_17-01-27_260595134347_rgbf000116-resize_2/001449_2014-06-19_17-01-27_260595134347_rgbf000116-resize_2-target.png,125,3.452,7,1989,126,feet,jsons/VE125_randls_53_rotated.json,728991,849625,48,Woman
96,979077,DepthScenes,duration_manipulation_targetAtFixation,jsons/VE125_randls_53_rotated.json,http://54.235.29.9/FacialAge/BNav_EC2/DepthDuration/v2_depth_duration_MTurk/v2_DepthDuration_HTML.html#50,50,1280,800,1280,800,8-21-2022,11-17-40,97,depth_duration_stimuli/002136_2014-06-25_21-18-03_260595134347_rgbf000109-resize_3/002136_2014-06-25_21-18-03_260595134347_rgbf000109-resize_3-target.png,125,1.9569999999999999,4,1863,122,feet,jsons/VE125_randls_53_rotated.json,728991,849625,48,Woman
97,979077,DepthScenes,duration_manipulation_targetAtFixation,jsons/VE125_randls_53_rotated.json,http://54.235.29.9/FacialAge/BNav_EC2/DepthDuration/v2_depth_duration_MTurk/v2_DepthDuration_HTML.html#50,50,1280,800,1280,800,8-21-2022,11-17-40,98,depth_duration_stimuli/002964_2014-06-08_17-46-11_094959634447_rgbf000091-resize_4/002964_2014-06-08_17-46-11_094959634447_rgbf000091-resize_4-target.png,125,1.6909999999999998,2,1854,123,feet,jsons/VE125_randls_53_rotated.json,728991,849625,48,Woman
98,979077,DepthScenes,duration_manipulation_targetAtFixation,jsons/VE125_randls_53_rotated.json,http://54.235.29.9/FacialAge/BNav_EC2/DepthDuration/v2_depth_duration_MTurk/v2_DepthDuration_HTML.html#50,50,1280,800,1280,800,8-21-2022,11-17-40,99,depth_duration_stimuli/001222_2014-06-17_16-24-06_260595134347_rgbf000073-resize_0/001222_2014-06-17_16-24-06_260595134347_rgbf000073-resize-original.jpg,125,1.4385,4,2681,119,feet,jsons/VE125_randls_53_rotated.json,728991,849625,48,Woman
99,979077,DepthScenes,duration_manipulation_targetAtFixation,jsons/VE125_randls_53_rotated.json,http://54.235.29.9/FacialAge/BNav_EC2/DepthDuration/v2_depth_duration_MTurk/v2_DepthDuration_HTML.html#50,50,1280,800,1280,800,8-21-2022,11-17-40,100,depth_duration_stimuli/000780_2014-06-08_22-28-29_260595134347_rgbf000126-resize_1/000780_2014-06-08_22-28-29_260595134347_rgbf000126-resize_1-target.png,125,3.3825,6,1940,138,feet,jsons/VE125_randls_53_rotated.json,728991,849625,48,Woman
100,979077,DepthScenes,duration_manipulation_targetAtFixation,jsons/VE125_randls_53_rotated.json,http://54.235.29.9/FacialAge/BNav_EC2/DepthDuration/v2_depth_duration_MTurk/v2_DepthDuration_HTML.html#50,50,1280,800,1280,800,8-21-2022,11-17-40,101,depth_duration_stimuli/002445_2014-06-28_20-32-16_260595134347_rgbf000029-resize_4/002445_2014-06-28_20-32-16_260595134347_rgbf000029-resize_4-target.png,125,2.5315,7,1691,144,feet,jsons/VE125_randls_53_rotated.json,728991,849625,48,Woman
101,979077,DepthScenes,duration_manipulation_targetAtFixation,jsons/VE125_randls_53_rotated.json,http://54.235.29.9/FacialAge/BNav_EC2/DepthDuration/v2_depth_duration_MTurk/v2_DepthDuration_HTML.html#50,50,1280,800,1280,800,8-21-2022,11-17-40,102,depth_duration_stimuli/002344_2014-06-28_20-06-29_260595134347_rgbf000030-resize_1/002344_2014-06-28_20-06-29_260595134347_rgbf000030-resize_1-target.png,125,1.5795,3,2906,75,feet,jsons/VE125_randls_53_rotated.json,728991,849625,48,Woman
102,979077,DepthScenes,duration_manipulation_targetAtFixation,jsons/VE125_randls_53_rotated.json,http://54.235.29.9/FacialAge/BNav_EC2/DepthDuration/v2_depth_duration_MTurk/v2_DepthDuration_HTML.html#50,50,1280,800,1280,800,8-21-2022,11-17-40,103,depth_duration_stimuli/002725_2014-06-22_11-47-51_094959634447_rgbf000070-resize_1/002725_2014-06-22_11-47-51_094959634447_rgbf000070-resize_1-target.png,125,2.195,5,1859,124,feet,jsons/VE125_randls_53_rotated.json,728991,849625,48,Woman
103,979077,DepthScenes,duration_manipulation_targetAtFixation,jsons/VE125_randls_53_rotated.json,http://54.235.29.9/FacialAge/BNav_EC2/DepthDuration/v2_depth_duration_MTurk/v2_DepthDuration_HTML.html#50,50,1280,800,1280,800,8-21-2022,11-17-40,104,depth_duration_stimuli/002414_2014-06-28_20-24-58_260595134347_rgbf000067-resize_4/002414_2014-06-28_20-24-58_260595134347_rgbf000067-resize_4-target.png,125,4.363,3,2162,129,feet,jsons/VE125_randls_53_rotated.json,728991,849625,48,Woman
104,979077,DepthScenes,duration_manipulation_targetAtFixation,jsons/VE125_randls_53_rotated.json,http://54.235.29.9/FacialAge/BNav_EC2/DepthDuration/v2_depth_duration_MTurk/v2_DepthDuration_HTML.html#50,50,1280,800,1280,800,8-21-2022,11-17-40,105,depth_duration_stimuli/000773_2014-06-08_22-24-54_260595134347_rgbf000093-resize_1/000773_2014-06-08_22-24-54_260595134347_rgbf000093-resize_1-target.png,125,4.973,5,2490,124,feet,jsons/VE125_randls_53_rotated.json,728991,849625,48,Woman
105,979077,DepthScenes,duration_manipulation_targetAtFixation,jsons/VE125_randls_53_rotated.json,http://54.235.29.9/FacialAge/BNav_EC2/DepthDuration/v2_depth_duration_MTurk/v2_DepthDuration_HTML.html#50,50,1280,800,1280,800,8-21-2022,11-17-40,106,depth_duration_stimuli/002805_2014-06-22_19-54-03_094959634447_rgbf000079-resize_1/002805_2014-06-22_19-54-03_094959634447_rgbf000079-resize_1-target.png,125,3.1439999999999997,7,6512,120,feet,jsons/VE125_randls_53_rotated.json,728991,849625,48,Woman
106,979077,DepthScenes,duration_manipulation_targetAtFixation,jsons/VE125_randls_53_rotated.json,http://54.235.29.9/FacialAge/BNav_EC2/DepthDuration/v2_depth_duration_MTurk/v2_DepthDuration_HTML.html#50,50,1280,800,1280,800,8-21-2022,11-17-40,107,depth_duration_stimuli/000906_2014-06-08_13-35-43_260595134347_rgbf000155-resize_1/000906_2014-06-08_13-35-43_260595134347_rgbf000155-resize_1-target.png,125,2.8489999999999998,6,2308,125,feet,jsons/VE125_randls_53_rotated.json,728991,849625,48,Woman
107,979077,DepthScenes,duration_manipulation_targetAtFixation,jsons/VE125_randls_53_rotated.json,http://54.235.29.9/FacialAge/BNav_EC2/DepthDuration/v2_depth_duration_MTurk/v2_DepthDuration_HTML.html#50,50,1280,800,1280,800,8-21-2022,11-17-40,108,depth_duration_stimuli/000409_2014-06-04_19-23-33_260595134347_rgbf000067-resize_0/000409_2014-06-04_19-23-33_260595134347_rgbf000067-resize_0-target.png,125,3.7335,4,2179,124,feet,jsons/VE125_randls_53_rotated.json,728991,849625,48,Woman
108,979077,DepthScenes,duration_manipulation_targetAtFixation,jsons/VE125_randls_53_rotated.json,http://54.235.29.9/FacialAge/BNav_EC2/DepthDuration/v2_depth_duration_MTurk/v2_DepthDuration_HTML.html#50,50,1280,800,1280,800,8-21-2022,11-17-40,109,depth_duration_stimuli/002663_2014-06-13_15-50-26_094959634447_rgbf000075-resize_1/002663_2014-06-13_15-50-26_094959634447_rgbf000075-resize_1-target.png,125,4.7495,6,2553,133,feet,jsons/VE125_randls_53_rotated.json,728991,849625,48,Woman
109,979077,DepthScenes,duration_manipulation_targetAtFixation,jsons/VE125_randls_53_rotated.json,http://54.235.29.9/FacialAge/BNav_EC2/DepthDuration/v2_depth_duration_MTurk/v2_DepthDuration_HTML.html#50,50,1280,800,1280,800,8-21-2022,11-17-40,110,depth_duration_stimuli/003423_2014-05-21_10-23-26_094959634447_rgbf002665-resize_2/003423_2014-05-21_10-23-26_094959634447_rgbf002665-resize_2-target.png,125,3.2575,7,1681,122,feet,jsons/VE125_randls_53_rotated.json,728991,849625,48,Woman
110,979077,DepthScenes,duration_manipulation_targetAtFixation,jsons/VE125_randls_53_rotated.json,http://54.235.29.9/FacialAge/BNav_EC2/DepthDuration/v2_depth_duration_MTurk/v2_DepthDuration_HTML.html#50,50,1280,800,1280,800,8-21-2022,11-17-40,111,depth_duration_stimuli/002905_2014-06-03_18-04-43_094959634447_rgbf000151-resize_2/002905_2014-06-03_18-04-43_094959634447_rgbf000151-resize_2-target.png,125,2.0295,7,2529,124,feet,jsons/VE125_randls_53_rotated.json,728991,849625,48,Woman
111,979077,DepthScenes,duration_manipulation_targetAtFixation,jsons/VE125_randls_53_rotated.json,http://54.235.29.9/FacialAge/BNav_EC2/DepthDuration/v2_depth_duration_MTurk/v2_DepthDuration_HTML.html#50,50,1280,800,1280,800,8-21-2022,11-17-40,112,depth_duration_stimuli/002639_2014-06-24_14-51-37_094959634447_rgbf000074-resize_4/002639_2014-06-24_14-51-37_094959634447_rgbf000074-resize_4-target.png,125,4.0375,5,1762,129,feet,jsons/VE125_randls_53_rotated.json,728991,849625,48,Woman
112,979077,DepthScenes,duration_manipulation_targetAtFixation,jsons/VE125_randls_53_rotated.json,http://54.235.29.9/FacialAge/BNav_EC2/DepthDuration/v2_depth_duration_MTurk/v2_DepthDuration_HTML.html#50,50,1280,800,1280,800,8-21-2022,11-17-40,113,depth_duration_stimuli/003292_2014-05-14_21-53-49_094959634447_rgbf000100-resize_2/003292_2014-05-14_21-53-49_094959634447_rgbf000100-resize_2-target.png,125,3.4815,4,2120,122,feet,jsons/VE125_randls_53_rotated.json,728991,849625,48,Woman
113,979077,DepthScenes,duration_manipulation_targetAtFixation,jsons/VE125_randls_53_rotated.json,http://54.235.29.9/FacialAge/BNav_EC2/DepthDuration/v2_depth_duration_MTurk/v2_DepthDuration_HTML.html#50,50,1280,800,1280,800,8-21-2022,11-17-40,114,depth_duration_stimuli/000943_2014-06-09_19-31-07_260595134347_rgbf000128-resize_1/000943_2014-06-09_19-31-07_260595134347_rgbf000128-resize_1-target.png,125,1.9765,3,1817,110,feet,jsons/VE125_randls_53_rotated.json,728991,849625,48,Woman
114,979077,DepthScenes,duration_manipulation_targetAtFixation,jsons/VE125_randls_53_rotated.json,http://54.235.29.9/FacialAge/BNav_EC2/DepthDuration/v2_depth_duration_MTurk/v2_DepthDuration_HTML.html#50,50,1280,800,1280,800,8-21-2022,11-17-40,115,depth_duration_stimuli/003070_2014-06-15_14-58-27_094959634447_rgbf000150-resize_3/003070_2014-06-15_14-58-27_094959634447_rgbf000150-resize_3-target.png,125,2.9415,3,5269,125,feet,jsons/VE125_randls_53_rotated.json,728991,849625,48,Woman
115,979077,DepthScenes,duration_manipulation_targetAtFixation,jsons/VE125_randls_53_rotated.json,http://54.235.29.9/FacialAge/BNav_EC2/DepthDuration/v2_depth_duration_MTurk/v2_DepthDuration_HTML.html#50,50,1280,800,1280,800,8-21-2022,11-17-40,116,depth_duration_stimuli/002750_2014-06-22_19-08-03_094959634447_rgbf000094-resize_4/002750_2014-06-22_19-08-03_094959634447_rgbf000094-resize_4-target.png,125,2.354,3,2392,105,feet,jsons/VE125_randls_53_rotated.json,728991,849625,48,Woman
116,979077,DepthScenes,duration_manipulation_targetAtFixation,jsons/VE125_randls_53_rotated.json,http://54.235.29.9/FacialAge/BNav_EC2/DepthDuration/v2_depth_duration_MTurk/v2_DepthDuration_HTML.html#50,50,1280,800,1280,800,8-21-2022,11-17-40,117,depth_duration_stimuli/002549_2014-06-24_13-41-39_094959634447_rgbf000022-resize_3/002549_2014-06-24_13-41-39_094959634447_rgbf000022-resize_3-target.png,125,1.476,3,2405,144,feet,jsons/VE125_randls_53_rotated.json,728991,849625,48,Woman
117,979077,DepthScenes,duration_manipulation_targetAtFixation,jsons/VE125_randls_53_rotated.json,http://54.235.29.9/FacialAge/BNav_EC2/DepthDuration/v2_depth_duration_MTurk/v2_DepthDuration_HTML.html#50,50,1280,800,1280,800,8-21-2022,11-17-40,118,depth_duration_stimuli/003010_2014-06-15_12-54-35_094959634447_rgbf000112-resize_0/003010_2014-06-15_12-54-35_094959634447_rgbf000112-resize_0-target.png,125,3.1185,2,2148,122,feet,jsons/VE125_randls_53_rotated.json,728991,849625,48,Woman
118,979077,DepthScenes,duration_manipulation_targetAtFixation,jsons/VE125_randls_53_rotated.json,http://54.235.29.9/FacialAge/BNav_EC2/DepthDuration/v2_depth_duration_MTurk/v2_DepthDuration_HTML.html#50,50,1280,800,1280,800,8-21-2022,11-17-40,119,depth_duration_stimuli/001810_2014-06-26_20-51-35_260595134347_rgbf000040-resize_3/001810_2014-06-26_20-51-35_260595134347_rgbf000040-resize_3-target.png,125,2.2525,5,11175,0,feet,jsons/VE125_randls_53_rotated.json,728991,849625,48,Woman
119,979077,DepthScenes,duration_manipulation_targetAtFixation,jsons/VE125_randls_53_rotated.json,http://54.235.29.9/FacialAge/BNav_EC2/DepthDuration/v2_depth_duration_MTurk/v2_DepthDuration_HTML.html#50,50,1280,800,1280,800,8-21-2022,11-17-40,120,depth_duration_stimuli/000787_2014-06-08_22-33-53_260595134347_rgbf000175-resize_1/000787_2014-06-08_22-33-53_260595134347_rgbf000175-resize-original.jpg,125,4.784,6,1864,116,feet,jsons/VE125_randls_53_rotated.json,728991,849625,48,Woman
120,979077,DepthScenes,duration_manipulation_targetAtFixation,jsons/VE125_randls_53_rotated.json,http://54.235.29.9/FacialAge/BNav_EC2/DepthDuration/v2_depth_duration_MTurk/v2_DepthDuration_HTML.html#50,50,1280,800,1280,800,8-21-2022,11-17-40,121,depth_duration_stimuli/001392_2014-06-19_16-07-59_260595134347_rgbf000046-resize_1/001392_2014-06-19_16-07-59_260595134347_rgbf000046-resize_1-target.png,125,4.135,7,1708,130,feet,jsons/VE125_randls_53_rotated.json,728991,849625,48,Woman
121,979077,DepthScenes,duration_manipulation_targetAtFixation,jsons/VE125_randls_53_rotated.json,http://54.235.29.9/FacialAge/BNav_EC2/DepthDuration/v2_depth_duration_MTurk/v2_DepthDuration_HTML.html#50,50,1280,800,1280,800,8-21-2022,11-17-40,122,depth_duration_stimuli/001570_2014-06-20_17-21-09_260595134347_rgbf000135-resize_4/001570_2014-06-20_17-21-09_260595134347_rgbf000135-resize_4-target.png,125,4.467,7,1624,125,feet,jsons/VE125_randls_53_rotated.json,728991,849625,48,Woman
122,979077,DepthScenes,duration_manipulation_targetAtFixation,jsons/VE125_randls_53_rotated.json,http://54.235.29.9/FacialAge/BNav_EC2/DepthDuration/v2_depth_duration_MTurk/v2_DepthDuration_HTML.html#50,50,1280,800,1280,800,8-21-2022,11-17-40,123,depth_duration_stimuli/000483_2014-06-09_20-41-45_260595134347_rgbf000116-resize_4/000483_2014-06-09_20-41-45_260595134347_rgbf000116-resize_4-target.png,125,1.337,8,1723,124,feet,jsons/VE125_randls_53_rotated.json,728991,849625,48,Woman
123,979077,DepthScenes,duration_manipulation_targetAtFixation,jsons/VE125_randls_53_rotated.json,http://54.235.29.9/FacialAge/BNav_EC2/DepthDuration/v2_depth_duration_MTurk/v2_DepthDuration_HTML.html#50,50,1280,800,1280,800,8-21-2022,11-17-40,124,depth_duration_stimuli/000469_2014-06-09_19-42-10_260595134347_rgbf000081-resize_1/000469_2014-06-09_19-42-10_260595134347_rgbf000081-resize_1-target.png,125,1.652,9,1990,128,feet,jsons/VE125_randls_53_rotated.json,728991,849625,48,Woman
124,979077,DepthScenes,duration_manipulation_targetAtFixation,jsons/VE125_randls_53_rotated.json,http://54.235.29.9/FacialAge/BNav_EC2/DepthDuration/v2_depth_duration_MTurk/v2_DepthDuration_HTML.html#50,50,1280,800,1280,800,8-21-2022,11-17-40,125,depth_duration_stimuli/000137_2014-05-20_17-04-49_260595134347_rgbf000120-resize_1/000137_2014-05-20_17-04-49_260595134347_rgbf000120-resize_1-target.png,125,3.786,6,1892,229,feet,jsons/VE125_randls_53_rotated.json,728991,849625,48,Woman
125,979077,DepthScenes,duration_manipulation_targetAtFixation,jsons/VE125_randls_53_rotated.json,http://54.235.29.9/FacialAge/BNav_EC2/DepthDuration/v2_depth_duration_MTurk/v2_DepthDuration_HTML.html#50,50,1280,800,1280,800,8-21-2022,11-17-40,126,depth_duration_stimuli/000736_2014-06-08_18-24-15_260595134347_rgbf000206-resize_3/000736_2014-06-08_18-24-15_260595134347_rgbf000206-resize_3-target.png,125,3.515,5,1688,125,feet,jsons/VE125_randls_53_rotated.json,728991,849625,48,Woman
126,979077,DepthScenes,duration_manipulation_targetAtFixation,jsons/VE125_randls_53_rotated.json,http://54.235.29.9/FacialAge/BNav_EC2/DepthDuration/v2_depth_duration_MTurk/v2_DepthDuration_HTML.html#50,50,1280,800,1280,800,8-21-2022,11-17-40,127,depth_duration_stimuli/002568_2014-06-24_13-59-21_094959634447_rgbf000062-resize_4/002568_2014-06-24_13-59-21_094959634447_rgbf000062-resize_4-target.png,125,3.015,4,1733,123,feet,jsons/VE125_randls_53_rotated.json,728991,849625,48,Woman
127,979077,DepthScenes,duration_manipulation_targetAtFixation,jsons/VE125_randls_53_rotated.json,http://54.235.29.9/FacialAge/BNav_EC2/DepthDuration/v2_depth_duration_MTurk/v2_DepthDuration_HTML.html#50,50,1280,800,1280,800,8-21-2022,11-17-40,128,depth_duration_stimuli/003492_2014-05-21_15-50-55_094959634447_rgbf000828-resize_1/003492_2014-05-21_15-50-55_094959634447_rgbf000828-resize_1-target.png,125,4.06875,4,2161,126,feet,jsons/VE125_randls_53_rotated.json,728991,849625,48,Woman
128,979077,DepthScenes,duration_manipulation_targetAtFixation,jsons/VE125_randls_53_rotated.json,http://54.235.29.9/FacialAge/BNav_EC2/DepthDuration/v2_depth_duration_MTurk/v2_DepthDuration_HTML.html#50,50,1280,800,1280,800,8-21-2022,11-17-40,129,depth_duration_stimuli/001235_2014-06-17_16-37-36_260595134347_rgbf000084-resize_4/001235_2014-06-17_16-37-36_260595134347_rgbf000084-resize_4-target.png,125,3.6605,9,13965,138,feet,jsons/VE125_randls_53_rotated.json,728991,849625,48,Woman
129,979077,DepthScenes,duration_manipulation_targetAtFixation,jsons/VE125_randls_53_rotated.json,http://54.235.29.9/FacialAge/BNav_EC2/DepthDuration/v2_depth_duration_MTurk/v2_DepthDuration_HTML.html#50,50,1280,800,1280,800,8-21-2022,11-17-40,130,depth_duration_stimuli/000788_2014-06-08_22-34-36_260595134347_rgbf000131-resize_1/000788_2014-06-08_22-34-36_260595134347_rgbf000131-resize_1-target.png,125,3.359,4,6387,118,feet,jsons/VE125_randls_53_rotated.json,728991,849625,48,Woman
130,979077,DepthScenes,duration_manipulation_targetAtFixation,jsons/VE125_randls_53_rotated.json,http://54.235.29.9/FacialAge/BNav_EC2/DepthDuration/v2_depth_duration_MTurk/v2_DepthDuration_HTML.html#50,50,1280,800,1280,800,8-21-2022,11-17-40,131,depth_duration_stimuli/000866_2014-06-09_20-45-42_260595134347_rgbf000139-resize_1/000866_2014-06-09_20-45-42_260595134347_rgbf000139-resize_1-target.png,125,3.2155,6,5059,92,feet,jsons/VE125_randls_53_rotated.json,728991,849625,48,Woman
131,979077,DepthScenes,duration_manipulation_targetAtFixation,jsons/VE125_randls_53_rotated.json,http://54.235.29.9/FacialAge/BNav_EC2/DepthDuration/v2_depth_duration_MTurk/v2_DepthDuration_HTML.html#50,50,1280,800,1280,800,8-21-2022,11-17-40,132,depth_duration_stimuli/002989_2014-06-15_12-25-03_094959634447_rgbf000150-resize_3/002989_2014-06-15_12-25-03_094959634447_rgbf000150-resize_3-target.png,125,4.1975,7,6863,123,feet,jsons/VE125_randls_53_rotated.json,728991,849625,48,Woman
132,979077,DepthScenes,duration_manipulation_targetAtFixation,jsons/VE125_randls_53_rotated.json,http://54.235.29.9/FacialAge/BNav_EC2/DepthDuration/v2_depth_duration_MTurk/v2_DepthDuration_HTML.html#50,50,1280,800,1280,800,8-21-2022,11-17-40,133,depth_duration_stimuli/002660_2014-06-13_15-44-18_094959634447_rgbf001878-resize_2/002660_2014-06-13_15-44-18_094959634447_rgbf001878-resize_2-target.png,125,3.576,8,5151,123,feet,jsons/VE125_randls_53_rotated.json,728991,849625,48,Woman
133,979077,DepthScenes,duration_manipulation_targetAtFixation,jsons/VE125_randls_53_rotated.json,http://54.235.29.9/FacialAge/BNav_EC2/DepthDuration/v2_depth_duration_MTurk/v2_DepthDuration_HTML.html#50,50,1280,800,1280,800,8-21-2022,11-17-40,134,depth_duration_stimuli/002153_2014-06-25_21-27-18_260595134347_rgbf000038-resize_5/002153_2014-06-25_21-27-18_260595134347_rgbf000038-resize_5-target.png,125,2.505,8,4111,123,feet,jsons/VE125_randls_53_rotated.json,728991,849625,48,Woman
134,979077,DepthScenes,duration_manipulation_targetAtFixation,jsons/VE125_randls_53_rotated.json,http://54.235.29.9/FacialAge/BNav_EC2/DepthDuration/v2_depth_duration_MTurk/v2_DepthDuration_HTML.html#50,50,1280,800,1280,800,8-21-2022,11-17-40,135,depth_duration_stimuli/000375_2014-06-08_11-17-29_260595134347_rgbf000133-resize_2/000375_2014-06-08_11-17-29_260595134347_rgbf000133-resize-original.jpg,125,4.718,1,2671,113,feet,jsons/VE125_randls_53_rotated.json,728991,849625,48,Woman
135,979077,DepthScenes,duration_manipulation_targetAtFixation,jsons/VE125_randls_53_rotated.json,http://54.235.29.9/FacialAge/BNav_EC2/DepthDuration/v2_depth_duration_MTurk/v2_DepthDuration_HTML.html#50,50,1280,800,1280,800,8-21-2022,11-17-40,136,depth_duration_stimuli/003338_2014-05-20_11-01-23_094959634447_rgbf000051-resize_6/003338_2014-05-20_11-01-23_094959634447_rgbf000051-resize_6-target.png,125,1.693,2,3938,124,feet,jsons/VE125_randls_53_rotated.json,728991,849625,48,Woman
136,979077,DepthScenes,duration_manipulation_targetAtFixation,jsons/VE125_randls_53_rotated.json,http://54.235.29.9/FacialAge/BNav_EC2/DepthDuration/v2_depth_duration_MTurk/v2_DepthDuration_HTML.html#50,50,1280,800,1280,800,8-21-2022,11-17-40,137,depth_duration_stimuli/002509_2014-06-24_13-19-22_094959634447_rgbf000077-resize_0/002509_2014-06-24_13-19-22_094959634447_rgbf000077-resize_0-target.png,125,1.3065,2,2009,116,feet,jsons/VE125_randls_53_rotated.json,728991,849625,48,Woman
137,979077,DepthScenes,duration_manipulation_targetAtFixation,jsons/VE125_randls_53_rotated.json,http://54.235.29.9/FacialAge/BNav_EC2/DepthDuration/v2_depth_duration_MTurk/v2_DepthDuration_HTML.html#50,50,1280,800,1280,800,8-21-2022,11-17-40,138,depth_duration_stimuli/003228_2014-05-14_13-42-35_094959634447_rgbf000101-resize_1/003228_2014-05-14_13-42-35_094959634447_rgbf000101-resize_1-target.png,125,1.9680000000000002,3,8187,124,feet,jsons/VE125_randls_53_rotated.json,728991,849625,48,Woman
138,979077,DepthScenes,duration_manipulation_targetAtFixation,jsons/VE125_randls_53_rotated.json,http://54.235.29.9/FacialAge/BNav_EC2/DepthDuration/v2_depth_duration_MTurk/v2_DepthDuration_HTML.html#50,50,1280,800,1280,800,8-21-2022,11-17-40,139,depth_duration_stimuli/002600_2014-06-24_14-27-04_094959634447_rgbf000074-resize_2/002600_2014-06-24_14-27-04_094959634447_rgbf000074-resize_2-target.png,125,2.7575,3,2096,120,feet,jsons/VE125_randls_53_rotated.json,728991,849625,48,Woman
139,979077,DepthScenes,duration_manipulation_targetAtFixation,jsons/VE125_randls_53_rotated.json,http://54.235.29.9/FacialAge/BNav_EC2/DepthDuration/v2_depth_duration_MTurk/v2_DepthDuration_HTML.html#50,50,1280,800,1280,800,8-21-2022,11-17-40,140,depth_duration_stimuli/001032_2014-06-08_13-23-17_260595134347_rgbf000021-resize_3/001032_2014-06-08_13-23-17_260595134347_rgbf000021-resize_3-target.png,125,3.2725,3,7626,123,feet,jsons/VE125_randls_53_rotated.json,728991,849625,48,Woman
140,979077,DepthScenes,duration_manipulation_targetAtFixation,jsons/VE125_randls_53_rotated.json,http://54.235.29.9/FacialAge/BNav_EC2/DepthDuration/v2_depth_duration_MTurk/v2_DepthDuration_HTML.html#50,50,1280,800,1280,800,8-21-2022,11-17-40,141,depth_duration_stimuli/001059_2014-06-08_21-53-27_260595134347_rgbf000061-resize_4/001059_2014-06-08_21-53-27_260595134347_rgbf000061-resize_4-target.png,125,2.4185,3,2180,122,feet,jsons/VE125_randls_53_rotated.json,728991,849625,48,Woman
141,979077,DepthScenes,duration_manipulation_targetAtFixation,jsons/VE125_randls_53_rotated.json,http://54.235.29.9/FacialAge/BNav_EC2/DepthDuration/v2_depth_duration_MTurk/v2_DepthDuration_HTML.html#50,50,1280,800,1280,800,8-21-2022,11-17-40,142,depth_duration_stimuli/001136_2014-06-17_15-19-41_260595134347_rgbf000076-resize_3/001136_2014-06-17_15-19-41_260595134347_rgbf000076-resize_3-target.png,125,1.8655,3,2080,122,feet,jsons/VE125_randls_53_rotated.json,728991,849625,48,Woman
142,979077,DepthScenes,duration_manipulation_targetAtFixation,jsons/VE125_randls_53_rotated.json,http://54.235.29.9/FacialAge/BNav_EC2/DepthDuration/v2_depth_duration_MTurk/v2_DepthDuration_HTML.html#50,50,1280,800,1280,800,8-21-2022,11-17-40,143,depth_duration_stimuli/001164_2014-06-17_15-35-46_260595134347_rgbf000085-resize_3/001164_2014-06-17_15-35-46_260595134347_rgbf000085-resize_3-target.png,125,2.354,3,1798,125,feet,jsons/VE125_randls_53_rotated.json,728991,849625,48,Woman
143,979077,DepthScenes,duration_manipulation_targetAtFixation,jsons/VE125_randls_53_rotated.json,http://54.235.29.9/FacialAge/BNav_EC2/DepthDuration/v2_depth_duration_MTurk/v2_DepthDuration_HTML.html#50,50,1280,800,1280,800,8-21-2022,11-17-40,144,depth_duration_stimuli/003048_2014-06-15_13-49-43_094959634447_rgbf000150-resize_1/003048_2014-06-15_13-49-43_094959634447_rgbf000150-resize_1-target.png,125,4.0035,4,1967,129,feet,jsons/VE125_randls_53_rotated.json,728991,849625,48,Woman
144,979077,DepthScenes,duration_manipulation_targetAtFixation,jsons/VE125_randls_53_rotated.json,http://54.235.29.9/FacialAge/BNav_EC2/DepthDuration/v2_depth_duration_MTurk/v2_DepthDuration_HTML.html#50,50,1280,800,1280,800,8-21-2022,11-17-40,145,depth_duration_stimuli/002043_2014-06-24_20-29-38_260595134347_rgbf000039-resize_4/002043_2014-06-24_20-29-38_260595134347_rgbf000039-resize_4-target.png,125,2.8435,6,1906,128,feet,jsons/VE125_randls_53_rotated.json,728991,849625,48,Woman
145,979077,DepthScenes,duration_manipulation_targetAtFixation,jsons/VE125_randls_53_rotated.json,http://54.235.29.9/FacialAge/BNav_EC2/DepthDuration/v2_depth_duration_MTurk/v2_DepthDuration_HTML.html#50,50,1280,800,1280,800,8-21-2022,11-17-40,146,depth_duration_stimuli/000927_2014-06-09_16-32-30_260595134347_rgbf000123-resize_3/000927_2014-06-09_16-32-30_260595134347_rgbf000123-resize_3-target.png,125,2.6785,7,2899,0,feet,jsons/VE125_randls_53_rotated.json,728991,849625,48,Woman
146,979077,DepthScenes,duration_manipulation_targetAtFixation,jsons/VE125_randls_53_rotated.json,http://54.235.29.9/FacialAge/BNav_EC2/DepthDuration/v2_depth_duration_MTurk/v2_DepthDuration_HTML.html#50,50,1280,800,1280,800,8-21-2022,11-17-40,147,depth_duration_stimuli/001110_2014-06-15_17-25-28_260595134347_rgbf000150-resize_1/001110_2014-06-15_17-25-28_260595134347_rgbf000150-resize_1-target.png,125,1.7115,7,1834,126,feet,jsons/VE125_randls_53_rotated.json,728991,849625,48,Woman
147,979077,DepthScenes,duration_manipulation_targetAtFixation,jsons/VE125_randls_53_rotated.json,http://54.235.29.9/FacialAge/BNav_EC2/DepthDuration/v2_depth_duration_MTurk/v2_DepthDuration_HTML.html#50,50,1280,800,1280,800,8-21-2022,11-17-40,148,depth_duration_stimuli/002875_2014-06-01_15-19-00_094959634447_rgbf000151-resize_1/002875_2014-06-01_15-19-00_094959634447_rgbf000151-resize_1-target.png,125,1.9675,7,1913,124,feet,jsons/VE125_randls_53_rotated.json,728991,849625,48,Woman
148,979077,DepthScenes,duration_manipulation_targetAtFixation,jsons/VE125_randls_53_rotated.json,http://54.235.29.9/FacialAge/BNav_EC2/DepthDuration/v2_depth_duration_MTurk/v2_DepthDuration_HTML.html#50,50,1280,800,1280,800,8-21-2022,11-17-40,149,depth_duration_stimuli/001011_2014-06-08_23-18-54_260595134347_rgbf000044-resize_4/001011_2014-06-08_23-18-54_260595134347_rgbf000044-resize_4-target.png,125,2.4730000000000003,7,1998,1,feet,jsons/VE125_randls_53_rotated.json,728991,849625,48,Woman
149,979077,DepthScenes,duration_manipulation_targetAtFixation,jsons/VE125_randls_53_rotated.json,http://54.235.29.9/FacialAge/BNav_EC2/DepthDuration/v2_depth_duration_MTurk/v2_DepthDuration_HTML.html#50,50,1280,800,1280,800,8-21-2022,11-17-40,150,depth_duration_stimuli/001132_2014-06-17_14-48-54_260595134347_rgbf000100-resize_2/001132_2014-06-17_14-48-54_260595134347_rgbf000100-resize_2-target.png,125,3.753,7,2938,125,feet,jsons/VE125_randls_53_rotated.json,728991,849625,48,Woman
150,979077,DepthScenes,duration_manipulation_targetAtFixation,jsons/VE125_randls_53_rotated.json,http://54.235.29.9/FacialAge/BNav_EC2/DepthDuration/v2_depth_duration_MTurk/v2_DepthDuration_HTML.html#50,50,1280,800,1280,800,8-21-2022,11-17-40,151,depth_duration_stimuli/001133_2014-06-17_14-49-16_260595134347_rgbf000100-resize_0/001133_2014-06-17_14-49-16_260595134347_rgbf000100-resize_0-target.png,125,4.2115,7,2606,123,feet,jsons/VE125_randls_53_rotated.json,728991,849625,48,Woman
151,979077,DepthScenes,duration_manipulation_targetAtFixation,jsons/VE125_randls_53_rotated.json,http://54.235.29.9/FacialAge/BNav_EC2/DepthDuration/v2_depth_duration_MTurk/v2_DepthDuration_HTML.html#50,50,1280,800,1280,800,8-21-2022,11-17-40,152,depth_duration_stimuli/000569_2014-06-09_22-51-47_260595134347_rgbf000141-resize_3/000569_2014-06-09_22-51-47_260595134347_rgbf000141-resize-original.jpg,125,4.512,7,2099,123,feet,jsons/VE125_randls_53_rotated.json,728991,849625,48,Woman
152,979077,DepthScenes,duration_manipulation_targetAtFixation,jsons/VE125_randls_53_rotated.json,http://54.235.29.9/FacialAge/BNav_EC2/DepthDuration/v2_depth_duration_MTurk/v2_DepthDuration_HTML.html#50,50,1280,800,1280,800,8-21-2022,11-17-40,153,depth_duration_stimuli/000691_2014-06-08_13-08-50_260595134347_rgbf000132-resize_3/000691_2014-06-08_13-08-50_260595134347_rgbf000132-resize_3-target.png,125,4.1530000000000005,6,2241,125,feet,jsons/VE125_randls_53_rotated.json,728991,849625,48,Woman
153,979077,DepthScenes,duration_manipulation_targetAtFixation,jsons/VE125_randls_53_rotated.json,http://54.235.29.9/FacialAge/BNav_EC2/DepthDuration/v2_depth_duration_MTurk/v2_DepthDuration_HTML.html#50,50,1280,800,1280,800,8-21-2022,11-17-40,154,depth_duration_stimuli/002213_2014-06-28_18-37-58_260595134347_rgbf000055-resize_1/002213_2014-06-28_18-37-58_260595134347_rgbf000055-resize_1-target.png,125,3.62,5,2147,115,feet,jsons/VE125_randls_53_rotated.json,728991,849625,48,Woman
154,979077,DepthScenes,duration_manipulation_targetAtFixation,jsons/VE125_randls_53_rotated.json,http://54.235.29.9/FacialAge/BNav_EC2/DepthDuration/v2_depth_duration_MTurk/v2_DepthDuration_HTML.html#50,50,1280,800,1280,800,8-21-2022,11-17-40,155,depth_duration_stimuli/000457_2014-06-08_16-52-43_260595134347_rgbf000199-resize_1/000457_2014-06-08_16-52-43_260595134347_rgbf000199-resize_1-target.png,125,3.6489999999999996,7,15298,126,feet,jsons/VE125_randls_53_rotated.json,728991,849625,48,Woman
155,979077,DepthScenes,duration_manipulation_targetAtFixation,jsons/VE125_randls_53_rotated.json,http://54.235.29.9/FacialAge/BNav_EC2/DepthDuration/v2_depth_duration_MTurk/v2_DepthDuration_HTML.html#50,50,1280,800,1280,800,8-21-2022,11-17-40,156,depth_duration_stimuli/000929_2014-06-09_16-33-19_260595134347_rgbf000139-resize_0/000929_2014-06-09_16-33-19_260595134347_rgbf000139-resize_0-target.png,125,2.8680000000000003,7,11878,116,feet,jsons/VE125_randls_53_rotated.json,728991,849625,48,Woman
156,979077,DepthScenes,duration_manipulation_targetAtFixation,jsons/VE125_randls_53_rotated.json,http://54.235.29.9/FacialAge/BNav_EC2/DepthDuration/v2_depth_duration_MTurk/v2_DepthDuration_HTML.html#50,50,1280,800,1280,800,8-21-2022,11-17-40,157,depth_duration_stimuli/002103_2014-06-25_20-00-40_260595134347_rgbf000049-resize_0/002103_2014-06-25_20-00-40_260595134347_rgbf000049-resize_0-target.png,125,4.105,7,10326,331,feet,jsons/VE125_randls_53_rotated.json,728991,849625,48,Woman
157,979077,DepthScenes,duration_manipulation_targetAtFixation,jsons/VE125_randls_53_rotated.json,http://54.235.29.9/FacialAge/BNav_EC2/DepthDuration/v2_depth_duration_MTurk/v2_DepthDuration_HTML.html#50,50,1280,800,1280,800,8-21-2022,11-17-40,158,depth_duration_stimuli/002039_2014-06-24_20-22-38_260595134347_rgbf000084-resize_1/002039_2014-06-24_20-22-38_260595134347_rgbf000084-resize_1-target.png,125,4.408,7,2088,123,feet,jsons/VE125_randls_53_rotated.json,728991,849625,48,Woman
158,979077,DepthScenes,duration_manipulation_targetAtFixation,jsons/VE125_randls_53_rotated.json,http://54.235.29.9/FacialAge/BNav_EC2/DepthDuration/v2_depth_duration_MTurk/v2_DepthDuration_HTML.html#50,50,1280,800,1280,800,8-21-2022,11-17-40,159,depth_duration_stimuli/001094_2014-06-15_17-36-00_260595134347_rgbf000205-resize_0/001094_2014-06-15_17-36-00_260595134347_rgbf000205-resize_0-target.png,125,4.2175,8,3024,25,feet,jsons/VE125_randls_53_rotated.json,728991,849625,48,Woman
159,979077,DepthScenes,duration_manipulation_targetAtFixation,jsons/VE125_randls_53_rotated.json,http://54.235.29.9/FacialAge/BNav_EC2/DepthDuration/v2_depth_duration_MTurk/v2_DepthDuration_HTML.html#50,50,1280,800,1280,800,8-21-2022,11-17-40,160,depth_duration_stimuli/000692_2014-06-08_13-09-42_260595134347_rgbf000199-resize_2/000692_2014-06-08_13-09-42_260595134347_rgbf000199-resize_2-target.png,125,3.661,9,1782,123,feet,jsons/VE125_randls_53_rotated.json,728991,849625,48,Woman
160,979077,DepthScenes,duration_manipulation_targetAtFixation,jsons/VE125_randls_53_rotated.json,http://54.235.29.9/FacialAge/BNav_EC2/DepthDuration/v2_depth_duration_MTurk/v2_DepthDuration_HTML.html#50,50,1280,800,1280,800,8-21-2022,11-17-40,161,depth_duration_stimuli/002953_2014-06-08_17-32-18_094959634447_rgbf000059-resize_5/002953_2014-06-08_17-32-18_094959634447_rgbf000059-resize_5-target.png,125,1.551,6,2137,120,feet,jsons/VE125_randls_53_rotated.json,728991,849625,48,Woman
161,979077,DepthScenes,duration_manipulation_targetAtFixation,jsons/VE125_randls_53_rotated.json,http://54.235.29.9/FacialAge/BNav_EC2/DepthDuration/v2_depth_duration_MTurk/v2_DepthDuration_HTML.html#50,50,1280,800,1280,800,8-21-2022,11-17-40,162,depth_duration_stimuli/000878_2014-06-08_22-52-45_260595134347_rgbf000045-resize_2/000878_2014-06-08_22-52-45_260595134347_rgbf000045-resize_2-target.png,125,2.092,5,2116,122,feet,jsons/VE125_randls_53_rotated.json,728991,849625,48,Woman
162,979077,DepthScenes,duration_manipulation_targetAtFixation,jsons/VE125_randls_53_rotated.json,http://54.235.29.9/FacialAge/BNav_EC2/DepthDuration/v2_depth_duration_MTurk/v2_DepthDuration_HTML.html#50,50,1280,800,1280,800,8-21-2022,11-17-40,163,depth_duration_stimuli/003495_2014-05-21_16-01-51_094959634447_rgbf000100-resize_3/003495_2014-05-21_16-01-51_094959634447_rgbf000100-resize_3-target.png,125,1.6255,4,2377,156,feet,jsons/VE125_randls_53_rotated.json,728991,849625,48,Woman
163,979077,DepthScenes,duration_manipulation_targetAtFixation,jsons/VE125_randls_53_rotated.json,http://54.235.29.9/FacialAge/BNav_EC2/DepthDuration/v2_depth_duration_MTurk/v2_DepthDuration_HTML.html#50,50,1280,800,1280,800,8-21-2022,11-17-40,164,depth_duration_stimuli/001244_2014-06-17_16-47-45_260595134347_rgbf000030-resize_4/001244_2014-06-17_16-47-45_260595134347_rgbf000030-resize_4-target.png,125,2.0425,7,2117,134,feet,jsons/VE125_randls_53_rotated.json,728991,849625,48,Woman
