,subjID,experimentName,versionName,sequenceName,url,selected_row,windowWidth,windowHeight,screenWidth,screenHeight,startDate,startTime,trial,stimulus,duration,actual_depth,depth_estimate,trial_RT,log_sceneDuration,unitSelection,seq_filepath,experimentTime,totalTime,age,gender
0,979291,DepthScenes,duration_manipulation_targetAtFixation,jsons/v1_VE1000_randls_9.json,http://54.235.29.9/FacialAge/BNav_EC2/DepthDuration/v2_depth_duration_MTurk/v2_DepthDuration_HTML.html#357,357,1366,768,1366,768,8-29-2022,10-41-8,1,depth_duration_stimuli/000470_2014-06-09_19-42-40_260595134347_rgbf000094-resize_1/000470_2014-06-09_19-42-40_260595134347_rgbf000094-resize_1-target.png,1000,1.831,1.0,6314,999,meters,jsons/v1_VE1000_randls_9.json,681454,2019151,25,Man
1,979291,DepthScenes,duration_manipulation_targetAtFixation,jsons/v1_VE1000_randls_9.json,http://54.235.29.9/FacialAge/BNav_EC2/DepthDuration/v2_depth_duration_MTurk/v2_DepthDuration_HTML.html#357,357,1366,768,1366,768,8-29-2022,10-41-8,2,depth_duration_stimuli/000109_2014-05-14_23-41-52_260595134347_rgbf000035-resize_9/000109_2014-05-14_23-41-52_260595134347_rgbf000035-resize_9-target.png,1000,1.3545,1.0,4465,1000,meters,jsons/v1_VE1000_randls_9.json,681454,2019151,25,Man
2,979291,DepthScenes,duration_manipulation_targetAtFixation,jsons/v1_VE1000_randls_9.json,http://54.235.29.9/FacialAge/BNav_EC2/DepthDuration/v2_depth_duration_MTurk/v2_DepthDuration_HTML.html#357,357,1366,768,1366,768,8-29-2022,10-41-8,3,depth_duration_stimuli/000758_2014-06-08_22-05-08_260595134347_rgbf000085-resize_0/000758_2014-06-08_22-05-08_260595134347_rgbf000085-resize_0-target.png,1000,3.3810000000000002,1.5,4131,999,meters,jsons/v1_VE1000_randls_9.json,681454,2019151,25,Man
3,979291,DepthScenes,duration_manipulation_targetAtFixation,jsons/v1_VE1000_randls_9.json,http://54.235.29.9/FacialAge/BNav_EC2/DepthDuration/v2_depth_duration_MTurk/v2_DepthDuration_HTML.html#357,357,1366,768,1366,768,8-29-2022,10-41-8,4,depth_duration_stimuli/000854_2014-06-09_19-43-13_260595134347_rgbf000066-resize_0/000854_2014-06-09_19-43-13_260595134347_rgbf000066-resize_0-target.png,1000,3.068,2.0,3707,1000,meters,jsons/v1_VE1000_randls_9.json,681454,2019151,25,Man
4,979291,DepthScenes,duration_manipulation_targetAtFixation,jsons/v1_VE1000_randls_9.json,http://54.235.29.9/FacialAge/BNav_EC2/DepthDuration/v2_depth_duration_MTurk/v2_DepthDuration_HTML.html#357,357,1366,768,1366,768,8-29-2022,10-41-8,5,depth_duration_stimuli/002905_2014-06-03_18-04-43_094959634447_rgbf000151-resize_2/002905_2014-06-03_18-04-43_094959634447_rgbf000151-resize_2-target.png,1000,2.0295,2.0,4003,1000,meters,jsons/v1_VE1000_randls_9.json,681454,2019151,25,Man
5,979291,DepthScenes,duration_manipulation_targetAtFixation,jsons/v1_VE1000_randls_9.json,http://54.235.29.9/FacialAge/BNav_EC2/DepthDuration/v2_depth_duration_MTurk/v2_DepthDuration_HTML.html#357,357,1366,768,1366,768,8-29-2022,10-41-8,6,depth_duration_stimuli/003423_2014-05-21_10-23-26_094959634447_rgbf002665-resize_2/003423_2014-05-21_10-23-26_094959634447_rgbf002665-resize_2-target.png,1000,3.2575,2.0,3921,1000,meters,jsons/v1_VE1000_randls_9.json,681454,2019151,25,Man
6,979291,DepthScenes,duration_manipulation_targetAtFixation,jsons/v1_VE1000_randls_9.json,http://54.235.29.9/FacialAge/BNav_EC2/DepthDuration/v2_depth_duration_MTurk/v2_DepthDuration_HTML.html#357,357,1366,768,1366,768,8-29-2022,10-41-8,7,depth_duration_stimuli/002118_2014-06-25_20-32-08_260595134347_rgbf000078-resize_1/002118_2014-06-25_20-32-08_260595134347_rgbf000078-resize_1-target.png,1000,2.6460000000000004,1.0,4778,1000,meters,jsons/v1_VE1000_randls_9.json,681454,2019151,25,Man
7,979291,DepthScenes,duration_manipulation_targetAtFixation,jsons/v1_VE1000_randls_9.json,http://54.235.29.9/FacialAge/BNav_EC2/DepthDuration/v2_depth_duration_MTurk/v2_DepthDuration_HTML.html#357,357,1366,768,1366,768,8-29-2022,10-41-8,8,depth_duration_stimuli/001516_2014-06-20_16-25-09_260595134347_rgbf000076-resize_2/001516_2014-06-20_16-25-09_260595134347_rgbf000076-resize_2-target.png,1000,1.7445,5.0,4745,998,meters,jsons/v1_VE1000_randls_9.json,681454,2019151,25,Man
8,979291,DepthScenes,duration_manipulation_targetAtFixation,jsons/v1_VE1000_randls_9.json,http://54.235.29.9/FacialAge/BNav_EC2/DepthDuration/v2_depth_duration_MTurk/v2_DepthDuration_HTML.html#357,357,1366,768,1366,768,8-29-2022,10-41-8,9,depth_duration_stimuli/002549_2014-06-24_13-41-39_094959634447_rgbf000022-resize_3/002549_2014-06-24_13-41-39_094959634447_rgbf000022-resize_3-target.png,1000,1.476,3.0,3563,998,meters,jsons/v1_VE1000_randls_9.json,681454,2019151,25,Man
9,979291,DepthScenes,duration_manipulation_targetAtFixation,jsons/v1_VE1000_randls_9.json,http://54.235.29.9/FacialAge/BNav_EC2/DepthDuration/v2_depth_duration_MTurk/v2_DepthDuration_HTML.html#357,357,1366,768,1366,768,8-29-2022,10-41-8,10,depth_duration_stimuli/002750_2014-06-22_19-08-03_094959634447_rgbf000094-resize_4/002750_2014-06-22_19-08-03_094959634447_rgbf000094-resize_4-target.png,1000,2.354,1.0,4090,1000,meters,jsons/v1_VE1000_randls_9.json,681454,2019151,25,Man
10,979291,DepthScenes,duration_manipulation_targetAtFixation,jsons/v1_VE1000_randls_9.json,http://54.235.29.9/FacialAge/BNav_EC2/DepthDuration/v2_depth_duration_MTurk/v2_DepthDuration_HTML.html#357,357,1366,768,1366,768,8-29-2022,10-41-8,11,depth_duration_stimuli/000469_2014-06-09_19-42-10_260595134347_rgbf000081-resize_1/000469_2014-06-09_19-42-10_260595134347_rgbf000081-resize_1-target.png,1000,1.652,1.0,3378,1000,meters,jsons/v1_VE1000_randls_9.json,681454,2019151,25,Man
11,979291,DepthScenes,duration_manipulation_targetAtFixation,jsons/v1_VE1000_randls_9.json,http://54.235.29.9/FacialAge/BNav_EC2/DepthDuration/v2_depth_duration_MTurk/v2_DepthDuration_HTML.html#357,357,1366,768,1366,768,8-29-2022,10-41-8,12,depth_duration_stimuli/000483_2014-06-09_20-41-45_260595134347_rgbf000116-resize_4/000483_2014-06-09_20-41-45_260595134347_rgbf000116-resize_4-target.png,1000,1.337,1.0,3485,1001,meters,jsons/v1_VE1000_randls_9.json,681454,2019151,25,Man
12,979291,DepthScenes,duration_manipulation_targetAtFixation,jsons/v1_VE1000_randls_9.json,http://54.235.29.9/FacialAge/BNav_EC2/DepthDuration/v2_depth_duration_MTurk/v2_DepthDuration_HTML.html#357,357,1366,768,1366,768,8-29-2022,10-41-8,13,depth_duration_stimuli/000569_2014-06-09_22-51-47_260595134347_rgbf000141-resize_3/000569_2014-06-09_22-51-47_260595134347_rgbf000141-resize-original.jpg,1000,4.512,0.0,3913,1001,meters,jsons/v1_VE1000_randls_9.json,681454,2019151,25,Man
13,979291,DepthScenes,duration_manipulation_targetAtFixation,jsons/v1_VE1000_randls_9.json,http://54.235.29.9/FacialAge/BNav_EC2/DepthDuration/v2_depth_duration_MTurk/v2_DepthDuration_HTML.html#357,357,1366,768,1366,768,8-29-2022,10-41-8,14,depth_duration_stimuli/002663_2014-06-13_15-50-26_094959634447_rgbf000075-resize_1/002663_2014-06-13_15-50-26_094959634447_rgbf000075-resize_1-target.png,1000,4.7495,2.0,3938,999,meters,jsons/v1_VE1000_randls_9.json,681454,2019151,25,Man
14,979291,DepthScenes,duration_manipulation_targetAtFixation,jsons/v1_VE1000_randls_9.json,http://54.235.29.9/FacialAge/BNav_EC2/DepthDuration/v2_depth_duration_MTurk/v2_DepthDuration_HTML.html#357,357,1366,768,1366,768,8-29-2022,10-41-8,15,depth_duration_stimuli/000409_2014-06-04_19-23-33_260595134347_rgbf000067-resize_0/000409_2014-06-04_19-23-33_260595134347_rgbf000067-resize_0-target.png,1000,3.7335,1.0,3307,999,meters,jsons/v1_VE1000_randls_9.json,681454,2019151,25,Man
15,979291,DepthScenes,duration_manipulation_targetAtFixation,jsons/v1_VE1000_randls_9.json,http://54.235.29.9/FacialAge/BNav_EC2/DepthDuration/v2_depth_duration_MTurk/v2_DepthDuration_HTML.html#357,357,1366,768,1366,768,8-29-2022,10-41-8,16,depth_duration_stimuli/002964_2014-06-08_17-46-11_094959634447_rgbf000091-resize_4/002964_2014-06-08_17-46-11_094959634447_rgbf000091-resize_4-target.png,1000,1.6909999999999998,2.0,3442,1000,meters,jsons/v1_VE1000_randls_9.json,681454,2019151,25,Man
16,979291,DepthScenes,duration_manipulation_targetAtFixation,jsons/v1_VE1000_randls_9.json,http://54.235.29.9/FacialAge/BNav_EC2/DepthDuration/v2_depth_duration_MTurk/v2_DepthDuration_HTML.html#357,357,1366,768,1366,768,8-29-2022,10-41-8,17,depth_duration_stimuli/002136_2014-06-25_21-18-03_260595134347_rgbf000109-resize_3/002136_2014-06-25_21-18-03_260595134347_rgbf000109-resize_3-target.png,1000,1.9569999999999999,2.0,3241,999,meters,jsons/v1_VE1000_randls_9.json,681454,2019151,25,Man
17,979291,DepthScenes,duration_manipulation_targetAtFixation,jsons/v1_VE1000_randls_9.json,http://54.235.29.9/FacialAge/BNav_EC2/DepthDuration/v2_depth_duration_MTurk/v2_DepthDuration_HTML.html#357,357,1366,768,1366,768,8-29-2022,10-41-8,18,depth_duration_stimuli/002763_2014-06-22_19-13-10_094959634447_rgbf000075-resize_4/002763_2014-06-22_19-13-10_094959634447_rgbf000075-resize_4-target.png,1000,1.68375,2.0,3546,999,meters,jsons/v1_VE1000_randls_9.json,681454,2019151,25,Man
18,979291,DepthScenes,duration_manipulation_targetAtFixation,jsons/v1_VE1000_randls_9.json,http://54.235.29.9/FacialAge/BNav_EC2/DepthDuration/v2_depth_duration_MTurk/v2_DepthDuration_HTML.html#357,357,1366,768,1366,768,8-29-2022,10-41-8,19,depth_duration_stimuli/002209_2014-06-28_18-36-10_260595134347_rgbf000051-resize_1/002209_2014-06-28_18-36-10_260595134347_rgbf000051-resize_1-target.png,1000,2.057,2.0,3339,1000,meters,jsons/v1_VE1000_randls_9.json,681454,2019151,25,Man
19,979291,DepthScenes,duration_manipulation_targetAtFixation,jsons/v1_VE1000_randls_9.json,http://54.235.29.9/FacialAge/BNav_EC2/DepthDuration/v2_depth_duration_MTurk/v2_DepthDuration_HTML.html#357,357,1366,768,1366,768,8-29-2022,10-41-8,20,depth_duration_stimuli/003534_2014-05-22_15-06-10_094959634447_rgbf000102-resize_4/003534_2014-05-22_15-06-10_094959634447_rgbf000102-resize_4-target.png,1000,1.426,1.0,3345,999,meters,jsons/v1_VE1000_randls_9.json,681454,2019151,25,Man
20,979291,DepthScenes,duration_manipulation_targetAtFixation,jsons/v1_VE1000_randls_9.json,http://54.235.29.9/FacialAge/BNav_EC2/DepthDuration/v2_depth_duration_MTurk/v2_DepthDuration_HTML.html#357,357,1366,768,1366,768,8-29-2022,10-41-8,21,depth_duration_stimuli/002637_2014-06-24_14-51-13_094959634447_rgbf000066-resize_4/002637_2014-06-24_14-51-13_094959634447_rgbf000066-resize_4-target.png,1000,1.9955,2.0,3849,998,meters,jsons/v1_VE1000_randls_9.json,681454,2019151,25,Man
21,979291,DepthScenes,duration_manipulation_targetAtFixation,jsons/v1_VE1000_randls_9.json,http://54.235.29.9/FacialAge/BNav_EC2/DepthDuration/v2_depth_duration_MTurk/v2_DepthDuration_HTML.html#357,357,1366,768,1366,768,8-29-2022,10-41-8,22,depth_duration_stimuli/001167_2014-06-17_15-38-07_260595134347_rgbf000108-resize_0/001167_2014-06-17_15-38-07_260595134347_rgbf000108-resize_0-target.png,1000,1.8505,1.0,2995,999,meters,jsons/v1_VE1000_randls_9.json,681454,2019151,25,Man
22,979291,DepthScenes,duration_manipulation_targetAtFixation,jsons/v1_VE1000_randls_9.json,http://54.235.29.9/FacialAge/BNav_EC2/DepthDuration/v2_depth_duration_MTurk/v2_DepthDuration_HTML.html#357,357,1366,768,1366,768,8-29-2022,10-41-8,23,depth_duration_stimuli/003587_2014-05-23_16-48-02_094959634447_rgbf002384-resize_2/003587_2014-05-23_16-48-02_094959634447_rgbf002384-resize_2-target.png,1000,1.357,1.0,3482,1000,meters,jsons/v1_VE1000_randls_9.json,681454,2019151,25,Man
23,979291,DepthScenes,duration_manipulation_targetAtFixation,jsons/v1_VE1000_randls_9.json,http://54.235.29.9/FacialAge/BNav_EC2/DepthDuration/v2_depth_duration_MTurk/v2_DepthDuration_HTML.html#357,357,1366,768,1366,768,8-29-2022,10-41-8,24,depth_duration_stimuli/000878_2014-06-08_22-52-45_260595134347_rgbf000045-resize_2/000878_2014-06-08_22-52-45_260595134347_rgbf000045-resize_2-target.png,1000,2.092,2.0,3530,999,meters,jsons/v1_VE1000_randls_9.json,681454,2019151,25,Man
24,979291,DepthScenes,duration_manipulation_targetAtFixation,jsons/v1_VE1000_randls_9.json,http://54.235.29.9/FacialAge/BNav_EC2/DepthDuration/v2_depth_duration_MTurk/v2_DepthDuration_HTML.html#357,357,1366,768,1366,768,8-29-2022,10-41-8,25,depth_duration_stimuli/002953_2014-06-08_17-32-18_094959634447_rgbf000059-resize_5/002953_2014-06-08_17-32-18_094959634447_rgbf000059-resize_5-target.png,1000,1.551,2.0,3396,999,meters,jsons/v1_VE1000_randls_9.json,681454,2019151,25,Man
25,979291,DepthScenes,duration_manipulation_targetAtFixation,jsons/v1_VE1000_randls_9.json,http://54.235.29.9/FacialAge/BNav_EC2/DepthDuration/v2_depth_duration_MTurk/v2_DepthDuration_HTML.html#357,357,1366,768,1366,768,8-29-2022,10-41-8,26,depth_duration_stimuli/001417_2014-06-19_16-25-36_260595134347_rgbf000115-resize_5/001417_2014-06-19_16-25-36_260595134347_rgbf000115-resize_5-target.png,1000,4.6255,2.0,3417,999,meters,jsons/v1_VE1000_randls_9.json,681454,2019151,25,Man
26,979291,DepthScenes,duration_manipulation_targetAtFixation,jsons/v1_VE1000_randls_9.json,http://54.235.29.9/FacialAge/BNav_EC2/DepthDuration/v2_depth_duration_MTurk/v2_DepthDuration_HTML.html#357,357,1366,768,1366,768,8-29-2022,10-41-8,27,depth_duration_stimuli/003081_2014-06-15_15-19-16_094959634447_rgbf000150-resize_1/003081_2014-06-15_15-19-16_094959634447_rgbf000150-resize_1-target.png,1000,3.9125,2.0,3491,1000,meters,jsons/v1_VE1000_randls_9.json,681454,2019151,25,Man
27,979291,DepthScenes,duration_manipulation_targetAtFixation,jsons/v1_VE1000_randls_9.json,http://54.235.29.9/FacialAge/BNav_EC2/DepthDuration/v2_depth_duration_MTurk/v2_DepthDuration_HTML.html#357,357,1366,768,1366,768,8-29-2022,10-41-8,28,depth_duration_stimuli/001092_2014-06-15_17-34-58_260595134347_rgbf000171-resize_3/001092_2014-06-15_17-34-58_260595134347_rgbf000171-resize_3-target.png,1000,2.6935,2.0,4124,998,meters,jsons/v1_VE1000_randls_9.json,681454,2019151,25,Man
28,979291,DepthScenes,duration_manipulation_targetAtFixation,jsons/v1_VE1000_randls_9.json,http://54.235.29.9/FacialAge/BNav_EC2/DepthDuration/v2_depth_duration_MTurk/v2_DepthDuration_HTML.html#357,357,1366,768,1366,768,8-29-2022,10-41-8,29,depth_duration_stimuli/002545_2014-06-24_13-38-53_094959634447_rgbf000080-resize_4/002545_2014-06-24_13-38-53_094959634447_rgbf000080-resize_4-target.png,1000,1.9205,2.0,4898,999,meters,jsons/v1_VE1000_randls_9.json,681454,2019151,25,Man
29,979291,DepthScenes,duration_manipulation_targetAtFixation,jsons/v1_VE1000_randls_9.json,http://54.235.29.9/FacialAge/BNav_EC2/DepthDuration/v2_depth_duration_MTurk/v2_DepthDuration_HTML.html#357,357,1366,768,1366,768,8-29-2022,10-41-8,30,depth_duration_stimuli/000375_2014-06-08_11-17-29_260595134347_rgbf000133-resize_2/000375_2014-06-08_11-17-29_260595134347_rgbf000133-resize-original.jpg,1000,4.718,1.0,8733,1001,meters,jsons/v1_VE1000_randls_9.json,681454,2019151,25,Man
30,979291,DepthScenes,duration_manipulation_targetAtFixation,jsons/v1_VE1000_randls_9.json,http://54.235.29.9/FacialAge/BNav_EC2/DepthDuration/v2_depth_duration_MTurk/v2_DepthDuration_HTML.html#357,357,1366,768,1366,768,8-29-2022,10-41-8,31,depth_duration_stimuli/003070_2014-06-15_14-58-27_094959634447_rgbf000150-resize_3/003070_2014-06-15_14-58-27_094959634447_rgbf000150-resize_3-target.png,1000,2.9415,2.0,3887,999,meters,jsons/v1_VE1000_randls_9.json,681454,2019151,25,Man
31,979291,DepthScenes,duration_manipulation_targetAtFixation,jsons/v1_VE1000_randls_9.json,http://54.235.29.9/FacialAge/BNav_EC2/DepthDuration/v2_depth_duration_MTurk/v2_DepthDuration_HTML.html#357,357,1366,768,1366,768,8-29-2022,10-41-8,32,depth_duration_stimuli/000943_2014-06-09_19-31-07_260595134347_rgbf000128-resize_1/000943_2014-06-09_19-31-07_260595134347_rgbf000128-resize_1-target.png,1000,1.9765,2.0,4155,999,meters,jsons/v1_VE1000_randls_9.json,681454,2019151,25,Man
32,979291,DepthScenes,duration_manipulation_targetAtFixation,jsons/v1_VE1000_randls_9.json,http://54.235.29.9/FacialAge/BNav_EC2/DepthDuration/v2_depth_duration_MTurk/v2_DepthDuration_HTML.html#357,357,1366,768,1366,768,8-29-2022,10-41-8,33,depth_duration_stimuli/001110_2014-06-15_17-25-28_260595134347_rgbf000150-resize_1/001110_2014-06-15_17-25-28_260595134347_rgbf000150-resize_1-target.png,1000,1.7115,2.0,3282,1000,meters,jsons/v1_VE1000_randls_9.json,681454,2019151,25,Man
33,979291,DepthScenes,duration_manipulation_targetAtFixation,jsons/v1_VE1000_randls_9.json,http://54.235.29.9/FacialAge/BNav_EC2/DepthDuration/v2_depth_duration_MTurk/v2_DepthDuration_HTML.html#357,357,1366,768,1366,768,8-29-2022,10-41-8,34,depth_duration_stimuli/000927_2014-06-09_16-32-30_260595134347_rgbf000123-resize_3/000927_2014-06-09_16-32-30_260595134347_rgbf000123-resize_3-target.png,1000,2.6785,2.0,4147,999,meters,jsons/v1_VE1000_randls_9.json,681454,2019151,25,Man
34,979291,DepthScenes,duration_manipulation_targetAtFixation,jsons/v1_VE1000_randls_9.json,http://54.235.29.9/FacialAge/BNav_EC2/DepthDuration/v2_depth_duration_MTurk/v2_DepthDuration_HTML.html#357,357,1366,768,1366,768,8-29-2022,10-41-8,35,depth_duration_stimuli/001244_2014-06-17_16-47-45_260595134347_rgbf000030-resize_4/001244_2014-06-17_16-47-45_260595134347_rgbf000030-resize_4-target.png,1000,2.0425,2.0,3162,1000,meters,jsons/v1_VE1000_randls_9.json,681454,2019151,25,Man
35,979291,DepthScenes,duration_manipulation_targetAtFixation,jsons/v1_VE1000_randls_9.json,http://54.235.29.9/FacialAge/BNav_EC2/DepthDuration/v2_depth_duration_MTurk/v2_DepthDuration_HTML.html#357,357,1366,768,1366,768,8-29-2022,10-41-8,36,depth_duration_stimuli/003495_2014-05-21_16-01-51_094959634447_rgbf000100-resize_3/003495_2014-05-21_16-01-51_094959634447_rgbf000100-resize_3-target.png,1000,1.6255,1.0,3122,1001,meters,jsons/v1_VE1000_randls_9.json,681454,2019151,25,Man
36,979291,DepthScenes,duration_manipulation_targetAtFixation,jsons/v1_VE1000_randls_9.json,http://54.235.29.9/FacialAge/BNav_EC2/DepthDuration/v2_depth_duration_MTurk/v2_DepthDuration_HTML.html#357,357,1366,768,1366,768,8-29-2022,10-41-8,37,depth_duration_stimuli/002039_2014-06-24_20-22-38_260595134347_rgbf000084-resize_1/002039_2014-06-24_20-22-38_260595134347_rgbf000084-resize_1-target.png,1000,4.408,3.0,3651,1000,meters,jsons/v1_VE1000_randls_9.json,681454,2019151,25,Man
37,979291,DepthScenes,duration_manipulation_targetAtFixation,jsons/v1_VE1000_randls_9.json,http://54.235.29.9/FacialAge/BNav_EC2/DepthDuration/v2_depth_duration_MTurk/v2_DepthDuration_HTML.html#357,357,1366,768,1366,768,8-29-2022,10-41-8,38,depth_duration_stimuli/002103_2014-06-25_20-00-40_260595134347_rgbf000049-resize_0/002103_2014-06-25_20-00-40_260595134347_rgbf000049-resize_0-target.png,1000,4.105,3.0,3459,999,meters,jsons/v1_VE1000_randls_9.json,681454,2019151,25,Man
38,979291,DepthScenes,duration_manipulation_targetAtFixation,jsons/v1_VE1000_randls_9.json,http://54.235.29.9/FacialAge/BNav_EC2/DepthDuration/v2_depth_duration_MTurk/v2_DepthDuration_HTML.html#357,357,1366,768,1366,768,8-29-2022,10-41-8,39,depth_duration_stimuli/001133_2014-06-17_14-49-16_260595134347_rgbf000100-resize_0/001133_2014-06-17_14-49-16_260595134347_rgbf000100-resize_0-target.png,1000,4.2115,2.0,3611,1001,meters,jsons/v1_VE1000_randls_9.json,681454,2019151,25,Man
39,979291,DepthScenes,duration_manipulation_targetAtFixation,jsons/v1_VE1000_randls_9.json,http://54.235.29.9/FacialAge/BNav_EC2/DepthDuration/v2_depth_duration_MTurk/v2_DepthDuration_HTML.html#357,357,1366,768,1366,768,8-29-2022,10-41-8,40,depth_duration_stimuli/001132_2014-06-17_14-48-54_260595134347_rgbf000100-resize_2/001132_2014-06-17_14-48-54_260595134347_rgbf000100-resize_2-target.png,1000,3.753,1.0,3074,999,meters,jsons/v1_VE1000_randls_9.json,681454,2019151,25,Man
40,979291,DepthScenes,duration_manipulation_targetAtFixation,jsons/v1_VE1000_randls_9.json,http://54.235.29.9/FacialAge/BNav_EC2/DepthDuration/v2_depth_duration_MTurk/v2_DepthDuration_HTML.html#357,357,1366,768,1366,768,8-29-2022,10-41-8,41,depth_duration_stimuli/003621_2014-05-23_18-06-08_094959634447_rgbf000101-resize_1/003621_2014-05-23_18-06-08_094959634447_rgbf000101-resize_1-target.png,1000,3.9835,3.0,3530,1000,meters,jsons/v1_VE1000_randls_9.json,681454,2019151,25,Man
41,979291,DepthScenes,duration_manipulation_targetAtFixation,jsons/v1_VE1000_randls_9.json,http://54.235.29.9/FacialAge/BNav_EC2/DepthDuration/v2_depth_duration_MTurk/v2_DepthDuration_HTML.html#357,357,1366,768,1366,768,8-29-2022,10-41-8,42,depth_duration_stimuli/001584_2014-06-20_11-07-43_260595134347_rgbf000002-resize_1/001584_2014-06-20_11-07-43_260595134347_rgbf000002-resize_1-target.png,1000,3.53,2.0,3531,1000,meters,jsons/v1_VE1000_randls_9.json,681454,2019151,25,Man
42,979291,DepthScenes,duration_manipulation_targetAtFixation,jsons/v1_VE1000_randls_9.json,http://54.235.29.9/FacialAge/BNav_EC2/DepthDuration/v2_depth_duration_MTurk/v2_DepthDuration_HTML.html#357,357,1366,768,1366,768,8-29-2022,10-41-8,43,depth_duration_stimuli/001808_2014-06-26_20-50-58_260595134347_rgbf000029-resize_1/001808_2014-06-26_20-50-58_260595134347_rgbf000029-resize_1-target.png,1000,4.249,2.0,3505,1000,meters,jsons/v1_VE1000_randls_9.json,681454,2019151,25,Man
43,979291,DepthScenes,duration_manipulation_targetAtFixation,jsons/v1_VE1000_randls_9.json,http://54.235.29.9/FacialAge/BNav_EC2/DepthDuration/v2_depth_duration_MTurk/v2_DepthDuration_HTML.html#357,357,1366,768,1366,768,8-29-2022,10-41-8,44,depth_duration_stimuli/001815_2014-06-26_20-52-55_260595134347_rgbf000020-resize_0/001815_2014-06-26_20-52-55_260595134347_rgbf000020-resize_0-target.png,1000,3.3865,2.0,3834,1000,meters,jsons/v1_VE1000_randls_9.json,681454,2019151,25,Man
44,979291,DepthScenes,duration_manipulation_targetAtFixation,jsons/v1_VE1000_randls_9.json,http://54.235.29.9/FacialAge/BNav_EC2/DepthDuration/v2_depth_duration_MTurk/v2_DepthDuration_HTML.html#357,357,1366,768,1366,768,8-29-2022,10-41-8,45,depth_duration_stimuli/000787_2014-06-08_22-33-53_260595134347_rgbf000175-resize_1/000787_2014-06-08_22-33-53_260595134347_rgbf000175-resize-original.jpg,1000,4.784,0.0,5668,999,meters,jsons/v1_VE1000_randls_9.json,681454,2019151,25,Man
45,979291,DepthScenes,duration_manipulation_targetAtFixation,jsons/v1_VE1000_randls_9.json,http://54.235.29.9/FacialAge/BNav_EC2/DepthDuration/v2_depth_duration_MTurk/v2_DepthDuration_HTML.html#357,357,1366,768,1366,768,8-29-2022,10-41-8,46,depth_duration_stimuli/001199_2014-06-17_16-03-48_260595134347_rgbf000077-resize_0/001199_2014-06-17_16-03-48_260595134347_rgbf000077-resize_0-target.png,1000,3.4375,2.0,3424,999,meters,jsons/v1_VE1000_randls_9.json,681454,2019151,25,Man
46,979291,DepthScenes,duration_manipulation_targetAtFixation,jsons/v1_VE1000_randls_9.json,http://54.235.29.9/FacialAge/BNav_EC2/DepthDuration/v2_depth_duration_MTurk/v2_DepthDuration_HTML.html#357,357,1366,768,1366,768,8-29-2022,10-41-8,47,depth_duration_stimuli/000502_2014-06-08_23-02-32_260595134347_rgbf000063-resize_4/000502_2014-06-08_23-02-32_260595134347_rgbf000063-resize_4-target.png,1000,2.431,1.0,3274,999,meters,jsons/v1_VE1000_randls_9.json,681454,2019151,25,Man
47,979291,DepthScenes,duration_manipulation_targetAtFixation,jsons/v1_VE1000_randls_9.json,http://54.235.29.9/FacialAge/BNav_EC2/DepthDuration/v2_depth_duration_MTurk/v2_DepthDuration_HTML.html#357,357,1366,768,1366,768,8-29-2022,10-41-8,48,depth_duration_stimuli/000788_2014-06-08_22-34-36_260595134347_rgbf000131-resize_1/000788_2014-06-08_22-34-36_260595134347_rgbf000131-resize_1-target.png,1000,3.359,3.0,3785,1000,meters,jsons/v1_VE1000_randls_9.json,681454,2019151,25,Man
48,979291,DepthScenes,duration_manipulation_targetAtFixation,jsons/v1_VE1000_randls_9.json,http://54.235.29.9/FacialAge/BNav_EC2/DepthDuration/v2_depth_duration_MTurk/v2_DepthDuration_HTML.html#357,357,1366,768,1366,768,8-29-2022,10-41-8,49,depth_duration_stimuli/001235_2014-06-17_16-37-36_260595134347_rgbf000084-resize_4/001235_2014-06-17_16-37-36_260595134347_rgbf000084-resize_4-target.png,1000,3.6605,1.0,3234,1000,meters,jsons/v1_VE1000_randls_9.json,681454,2019151,25,Man
49,979291,DepthScenes,duration_manipulation_targetAtFixation,jsons/v1_VE1000_randls_9.json,http://54.235.29.9/FacialAge/BNav_EC2/DepthDuration/v2_depth_duration_MTurk/v2_DepthDuration_HTML.html#357,357,1366,768,1366,768,8-29-2022,10-41-8,50,depth_duration_stimuli/000493_2014-06-09_21-01-18_260595134347_rgbf000196-resize_3/000493_2014-06-09_21-01-18_260595134347_rgbf000196-resize_3-target.png,1000,3.44,2.0,3492,1000,meters,jsons/v1_VE1000_randls_9.json,681454,2019151,25,Man
50,979291,DepthScenes,duration_manipulation_targetAtFixation,jsons/v1_VE1000_randls_9.json,http://54.235.29.9/FacialAge/BNav_EC2/DepthDuration/v2_depth_duration_MTurk/v2_DepthDuration_HTML.html#357,357,1366,768,1366,768,8-29-2022,10-41-8,51,depth_duration_stimuli/000191_2014-05-12_17-07-38_260595134347_rgbf000199-resize_0/000191_2014-05-12_17-07-38_260595134347_rgbf000199-resize_0-target.png,1000,3.7995,2.0,3162,1000,meters,jsons/v1_VE1000_randls_9.json,681454,2019151,25,Man
51,979291,DepthScenes,duration_manipulation_targetAtFixation,jsons/v1_VE1000_randls_9.json,http://54.235.29.9/FacialAge/BNav_EC2/DepthDuration/v2_depth_duration_MTurk/v2_DepthDuration_HTML.html#357,357,1366,768,1366,768,8-29-2022,10-41-8,52,depth_duration_stimuli/002748_2014-06-22_19-07-22_094959634447_rgbf000078-resize_1/002748_2014-06-22_19-07-22_094959634447_rgbf000078-resize_1-target.png,1000,4.6705,2.0,3930,1000,meters,jsons/v1_VE1000_randls_9.json,681454,2019151,25,Man
52,979291,DepthScenes,duration_manipulation_targetAtFixation,jsons/v1_VE1000_randls_9.json,http://54.235.29.9/FacialAge/BNav_EC2/DepthDuration/v2_depth_duration_MTurk/v2_DepthDuration_HTML.html#357,357,1366,768,1366,768,8-29-2022,10-41-8,53,depth_duration_stimuli/002995_2014-06-15_12-31-26_094959634447_rgbf000150-resize_1/002995_2014-06-15_12-31-26_094959634447_rgbf000150-resize_1-target.png,1000,3.8360000000000003,2.0,3251,1000,meters,jsons/v1_VE1000_randls_9.json,681454,2019151,25,Man
53,979291,DepthScenes,duration_manipulation_targetAtFixation,jsons/v1_VE1000_randls_9.json,http://54.235.29.9/FacialAge/BNav_EC2/DepthDuration/v2_depth_duration_MTurk/v2_DepthDuration_HTML.html#357,357,1366,768,1366,768,8-29-2022,10-41-8,54,depth_duration_stimuli/001059_2014-06-08_21-53-27_260595134347_rgbf000061-resize_4/001059_2014-06-08_21-53-27_260595134347_rgbf000061-resize_4-target.png,1000,2.4185,1.0,3107,1000,meters,jsons/v1_VE1000_randls_9.json,681454,2019151,25,Man
54,979291,DepthScenes,duration_manipulation_targetAtFixation,jsons/v1_VE1000_randls_9.json,http://54.235.29.9/FacialAge/BNav_EC2/DepthDuration/v2_depth_duration_MTurk/v2_DepthDuration_HTML.html#357,357,1366,768,1366,768,8-29-2022,10-41-8,55,depth_duration_stimuli/001032_2014-06-08_13-23-17_260595134347_rgbf000021-resize_3/001032_2014-06-08_13-23-17_260595134347_rgbf000021-resize_3-target.png,1000,3.2725,2.0,3368,999,meters,jsons/v1_VE1000_randls_9.json,681454,2019151,25,Man
55,979291,DepthScenes,duration_manipulation_targetAtFixation,jsons/v1_VE1000_randls_9.json,http://54.235.29.9/FacialAge/BNav_EC2/DepthDuration/v2_depth_duration_MTurk/v2_DepthDuration_HTML.html#357,357,1366,768,1366,768,8-29-2022,10-41-8,56,depth_duration_stimuli/002600_2014-06-24_14-27-04_094959634447_rgbf000074-resize_2/002600_2014-06-24_14-27-04_094959634447_rgbf000074-resize_2-target.png,1000,2.7575,1.0,3186,1000,meters,jsons/v1_VE1000_randls_9.json,681454,2019151,25,Man
56,979291,DepthScenes,duration_manipulation_targetAtFixation,jsons/v1_VE1000_randls_9.json,http://54.235.29.9/FacialAge/BNav_EC2/DepthDuration/v2_depth_duration_MTurk/v2_DepthDuration_HTML.html#357,357,1366,768,1366,768,8-29-2022,10-41-8,57,depth_duration_stimuli/003228_2014-05-14_13-42-35_094959634447_rgbf000101-resize_1/003228_2014-05-14_13-42-35_094959634447_rgbf000101-resize_1-target.png,1000,1.9680000000000002,1.0,3315,1001,meters,jsons/v1_VE1000_randls_9.json,681454,2019151,25,Man
57,979291,DepthScenes,duration_manipulation_targetAtFixation,jsons/v1_VE1000_randls_9.json,http://54.235.29.9/FacialAge/BNav_EC2/DepthDuration/v2_depth_duration_MTurk/v2_DepthDuration_HTML.html#357,357,1366,768,1366,768,8-29-2022,10-41-8,58,depth_duration_stimuli/001150_2014-06-17_15-27-34_260595134347_rgbf000108-resize_2/001150_2014-06-17_15-27-34_260595134347_rgbf000108-resize_2-target.png,1000,4.0325,2.0,3564,998,meters,jsons/v1_VE1000_randls_9.json,681454,2019151,25,Man
58,979291,DepthScenes,duration_manipulation_targetAtFixation,jsons/v1_VE1000_randls_9.json,http://54.235.29.9/FacialAge/BNav_EC2/DepthDuration/v2_depth_duration_MTurk/v2_DepthDuration_HTML.html#357,357,1366,768,1366,768,8-29-2022,10-41-8,59,depth_duration_stimuli/000665_2014-06-09_20-42-35_260595134347_rgbf000110-resize_1/000665_2014-06-09_20-42-35_260595134347_rgbf000110-resize_1-target.png,1000,3.057,2.0,3025,1000,meters,jsons/v1_VE1000_randls_9.json,681454,2019151,25,Man
59,979291,DepthScenes,duration_manipulation_targetAtFixation,jsons/v1_VE1000_randls_9.json,http://54.235.29.9/FacialAge/BNav_EC2/DepthDuration/v2_depth_duration_MTurk/v2_DepthDuration_HTML.html#357,357,1366,768,1366,768,8-29-2022,10-41-8,60,depth_duration_stimuli/002445_2014-06-28_20-32-16_260595134347_rgbf000029-resize_4/002445_2014-06-28_20-32-16_260595134347_rgbf000029-resize_4-target.png,1000,2.5315,2.0,3930,1000,meters,jsons/v1_VE1000_randls_9.json,681454,2019151,25,Man
60,979291,DepthScenes,duration_manipulation_targetAtFixation,jsons/v1_VE1000_randls_9.json,http://54.235.29.9/FacialAge/BNav_EC2/DepthDuration/v2_depth_duration_MTurk/v2_DepthDuration_HTML.html#357,357,1366,768,1366,768,8-29-2022,10-41-8,61,depth_duration_stimuli/000780_2014-06-08_22-28-29_260595134347_rgbf000126-resize_1/000780_2014-06-08_22-28-29_260595134347_rgbf000126-resize_1-target.png,1000,3.3825,3.0,3507,999,meters,jsons/v1_VE1000_randls_9.json,681454,2019151,25,Man
61,979291,DepthScenes,duration_manipulation_targetAtFixation,jsons/v1_VE1000_randls_9.json,http://54.235.29.9/FacialAge/BNav_EC2/DepthDuration/v2_depth_duration_MTurk/v2_DepthDuration_HTML.html#357,357,1366,768,1366,768,8-29-2022,10-41-8,62,depth_duration_stimuli/001164_2014-06-17_15-35-46_260595134347_rgbf000085-resize_3/001164_2014-06-17_15-35-46_260595134347_rgbf000085-resize_3-target.png,1000,2.354,1.0,3410,999,meters,jsons/v1_VE1000_randls_9.json,681454,2019151,25,Man
62,979291,DepthScenes,duration_manipulation_targetAtFixation,jsons/v1_VE1000_randls_9.json,http://54.235.29.9/FacialAge/BNav_EC2/DepthDuration/v2_depth_duration_MTurk/v2_DepthDuration_HTML.html#357,357,1366,768,1366,768,8-29-2022,10-41-8,63,depth_duration_stimuli/001136_2014-06-17_15-19-41_260595134347_rgbf000076-resize_3/001136_2014-06-17_15-19-41_260595134347_rgbf000076-resize_3-target.png,1000,1.8655,1.0,3338,999,meters,jsons/v1_VE1000_randls_9.json,681454,2019151,25,Man
63,979291,DepthScenes,duration_manipulation_targetAtFixation,jsons/v1_VE1000_randls_9.json,http://54.235.29.9/FacialAge/BNav_EC2/DepthDuration/v2_depth_duration_MTurk/v2_DepthDuration_HTML.html#357,357,1366,768,1366,768,8-29-2022,10-41-8,64,depth_duration_stimuli/002375_2014-06-28_20-13-44_260595134347_rgbf000032-resize_1/002375_2014-06-28_20-13-44_260595134347_rgbf000032-resize_1-target.png,1000,4.0175,2.0,3331,1000,meters,jsons/v1_VE1000_randls_9.json,681454,2019151,25,Man
64,979291,DepthScenes,duration_manipulation_targetAtFixation,jsons/v1_VE1000_randls_9.json,http://54.235.29.9/FacialAge/BNav_EC2/DepthDuration/v2_depth_duration_MTurk/v2_DepthDuration_HTML.html#357,357,1366,768,1366,768,8-29-2022,10-41-8,65,depth_duration_stimuli/002657_2014-06-13_15-29-54_094959634447_rgbf000150-resize_1/002657_2014-06-13_15-29-54_094959634447_rgbf000150-resize_1-target.png,1000,4.919,1.0,3146,999,meters,jsons/v1_VE1000_randls_9.json,681454,2019151,25,Man
65,979291,DepthScenes,duration_manipulation_targetAtFixation,jsons/v1_VE1000_randls_9.json,http://54.235.29.9/FacialAge/BNav_EC2/DepthDuration/v2_depth_duration_MTurk/v2_DepthDuration_HTML.html#357,357,1366,768,1366,768,8-29-2022,10-41-8,66,depth_duration_stimuli/001222_2014-06-17_16-24-06_260595134347_rgbf000073-resize_0/001222_2014-06-17_16-24-06_260595134347_rgbf000073-resize-original.jpg,1000,1.4385,0.0,3818,999,meters,jsons/v1_VE1000_randls_9.json,681454,2019151,25,Man
66,979291,DepthScenes,duration_manipulation_targetAtFixation,jsons/v1_VE1000_randls_9.json,http://54.235.29.9/FacialAge/BNav_EC2/DepthDuration/v2_depth_duration_MTurk/v2_DepthDuration_HTML.html#357,357,1366,768,1366,768,8-29-2022,10-41-8,67,depth_duration_stimuli/000692_2014-06-08_13-09-42_260595134347_rgbf000199-resize_2/000692_2014-06-08_13-09-42_260595134347_rgbf000199-resize_2-target.png,1000,3.661,2.0,3346,998,meters,jsons/v1_VE1000_randls_9.json,681454,2019151,25,Man
67,979291,DepthScenes,duration_manipulation_targetAtFixation,jsons/v1_VE1000_randls_9.json,http://54.235.29.9/FacialAge/BNav_EC2/DepthDuration/v2_depth_duration_MTurk/v2_DepthDuration_HTML.html#357,357,1366,768,1366,768,8-29-2022,10-41-8,68,depth_duration_stimuli/001094_2014-06-15_17-36-00_260595134347_rgbf000205-resize_0/001094_2014-06-15_17-36-00_260595134347_rgbf000205-resize_0-target.png,1000,4.2175,2.0,3371,1000,meters,jsons/v1_VE1000_randls_9.json,681454,2019151,25,Man
68,979291,DepthScenes,duration_manipulation_targetAtFixation,jsons/v1_VE1000_randls_9.json,http://54.235.29.9/FacialAge/BNav_EC2/DepthDuration/v2_depth_duration_MTurk/v2_DepthDuration_HTML.html#357,357,1366,768,1366,768,8-29-2022,10-41-8,69,depth_duration_stimuli/000486_2014-06-09_20-47-20_260595134347_rgbf000143-resize_2/000486_2014-06-09_20-47-20_260595134347_rgbf000143-resize_2-target.png,1000,4.8325,3.0,4050,1000,meters,jsons/v1_VE1000_randls_9.json,681454,2019151,25,Man
69,979291,DepthScenes,duration_manipulation_targetAtFixation,jsons/v1_VE1000_randls_9.json,http://54.235.29.9/FacialAge/BNav_EC2/DepthDuration/v2_depth_duration_MTurk/v2_DepthDuration_HTML.html#357,357,1366,768,1366,768,8-29-2022,10-41-8,70,depth_duration_stimuli/003083_2014-06-15_15-21-03_094959634447_rgbf000063-resize_1/003083_2014-06-15_15-21-03_094959634447_rgbf000063-resize_1-target.png,1000,4.1405,3.0,3722,1000,meters,jsons/v1_VE1000_randls_9.json,681454,2019151,25,Man
70,979291,DepthScenes,duration_manipulation_targetAtFixation,jsons/v1_VE1000_randls_9.json,http://54.235.29.9/FacialAge/BNav_EC2/DepthDuration/v2_depth_duration_MTurk/v2_DepthDuration_HTML.html#357,357,1366,768,1366,768,8-29-2022,10-41-8,71,depth_duration_stimuli/000522_2014-06-08_13-35-06_260595134347_rgbf000244-resize_1/000522_2014-06-08_13-35-06_260595134347_rgbf000244-resize_1-target.png,1000,2.3715,1.0,3263,1000,meters,jsons/v1_VE1000_randls_9.json,681454,2019151,25,Man
71,979291,DepthScenes,duration_manipulation_targetAtFixation,jsons/v1_VE1000_randls_9.json,http://54.235.29.9/FacialAge/BNav_EC2/DepthDuration/v2_depth_duration_MTurk/v2_DepthDuration_HTML.html#357,357,1366,768,1366,768,8-29-2022,10-41-8,72,depth_duration_stimuli/002949_2014-06-26_15-57-42_094959634447_rgbf000079-resize_1/002949_2014-06-26_15-57-42_094959634447_rgbf000079-resize_1-target.png,1000,1.8915,1.0,3383,999,meters,jsons/v1_VE1000_randls_9.json,681454,2019151,25,Man
72,979291,DepthScenes,duration_manipulation_targetAtFixation,jsons/v1_VE1000_randls_9.json,http://54.235.29.9/FacialAge/BNav_EC2/DepthDuration/v2_depth_duration_MTurk/v2_DepthDuration_HTML.html#357,357,1366,768,1366,768,8-29-2022,10-41-8,73,depth_duration_stimuli/003492_2014-05-21_15-50-55_094959634447_rgbf000828-resize_1/003492_2014-05-21_15-50-55_094959634447_rgbf000828-resize_1-target.png,1000,4.06875,1.0,3308,999,meters,jsons/v1_VE1000_randls_9.json,681454,2019151,25,Man
73,979291,DepthScenes,duration_manipulation_targetAtFixation,jsons/v1_VE1000_randls_9.json,http://54.235.29.9/FacialAge/BNav_EC2/DepthDuration/v2_depth_duration_MTurk/v2_DepthDuration_HTML.html#357,357,1366,768,1366,768,8-29-2022,10-41-8,74,depth_duration_stimuli/002568_2014-06-24_13-59-21_094959634447_rgbf000062-resize_4/002568_2014-06-24_13-59-21_094959634447_rgbf000062-resize_4-target.png,1000,3.015,1.0,3089,999,meters,jsons/v1_VE1000_randls_9.json,681454,2019151,25,Man
74,979291,DepthScenes,duration_manipulation_targetAtFixation,jsons/v1_VE1000_randls_9.json,http://54.235.29.9/FacialAge/BNav_EC2/DepthDuration/v2_depth_duration_MTurk/v2_DepthDuration_HTML.html#357,357,1366,768,1366,768,8-29-2022,10-41-8,75,depth_duration_stimuli/001029_2014-06-08_13-17-57_260595134347_rgbf000065-resize_1/001029_2014-06-08_13-17-57_260595134347_rgbf000065-resize_1-target.png,1000,3.0835,3.0,3507,1001,meters,jsons/v1_VE1000_randls_9.json,681454,2019151,25,Man
75,979291,DepthScenes,duration_manipulation_targetAtFixation,jsons/v1_VE1000_randls_9.json,http://54.235.29.9/FacialAge/BNav_EC2/DepthDuration/v2_depth_duration_MTurk/v2_DepthDuration_HTML.html#357,357,1366,768,1366,768,8-29-2022,10-41-8,76,depth_duration_stimuli/000677_2014-06-08_23-10-32_260595134347_rgbf000158-resize_6/000677_2014-06-08_23-10-32_260595134347_rgbf000158-resize_6-target.png,1000,3.556,1.0,3179,1000,meters,jsons/v1_VE1000_randls_9.json,681454,2019151,25,Man
76,979291,DepthScenes,duration_manipulation_targetAtFixation,jsons/v1_VE1000_randls_9.json,http://54.235.29.9/FacialAge/BNav_EC2/DepthDuration/v2_depth_duration_MTurk/v2_DepthDuration_HTML.html#357,357,1366,768,1366,768,8-29-2022,10-41-8,77,depth_duration_stimuli/002788_2014-06-22_19-36-03_094959634447_rgbf000088-resize_2/002788_2014-06-22_19-36-03_094959634447_rgbf000088-resize_2-target.png,1000,1.6465,1.0,3562,1000,meters,jsons/v1_VE1000_randls_9.json,681454,2019151,25,Man
77,979291,DepthScenes,duration_manipulation_targetAtFixation,jsons/v1_VE1000_randls_9.json,http://54.235.29.9/FacialAge/BNav_EC2/DepthDuration/v2_depth_duration_MTurk/v2_DepthDuration_HTML.html#357,357,1366,768,1366,768,8-29-2022,10-41-8,78,depth_duration_stimuli/000749_2014-06-08_21-55-06_260595134347_rgbf000070-resize_2/000749_2014-06-08_21-55-06_260595134347_rgbf000070-resize_2-target.png,1000,2.331,1.0,3282,999,meters,jsons/v1_VE1000_randls_9.json,681454,2019151,25,Man
78,979291,DepthScenes,duration_manipulation_targetAtFixation,jsons/v1_VE1000_randls_9.json,http://54.235.29.9/FacialAge/BNav_EC2/DepthDuration/v2_depth_duration_MTurk/v2_DepthDuration_HTML.html#357,357,1366,768,1366,768,8-29-2022,10-41-8,79,depth_duration_stimuli/002272_2014-06-28_18-53-56_260595134347_rgbf000067-resize_2/002272_2014-06-28_18-53-56_260595134347_rgbf000067-resize_2-target.png,1000,1.138,1.0,3122,1000,meters,jsons/v1_VE1000_randls_9.json,681454,2019151,25,Man
79,979291,DepthScenes,duration_manipulation_targetAtFixation,jsons/v1_VE1000_randls_9.json,http://54.235.29.9/FacialAge/BNav_EC2/DepthDuration/v2_depth_duration_MTurk/v2_DepthDuration_HTML.html#357,357,1366,768,1366,768,8-29-2022,10-41-8,80,depth_duration_stimuli/001571_2014-06-20_17-21-32_260595134347_rgbf000089-resize_1/001571_2014-06-20_17-21-32_260595134347_rgbf000089-resize_1-target.png,1000,1.86,2.0,3402,1000,meters,jsons/v1_VE1000_randls_9.json,681454,2019151,25,Man
80,979291,DepthScenes,duration_manipulation_targetAtFixation,jsons/v1_VE1000_randls_9.json,http://54.235.29.9/FacialAge/BNav_EC2/DepthDuration/v2_depth_duration_MTurk/v2_DepthDuration_HTML.html#357,357,1366,768,1366,768,8-29-2022,10-41-8,81,depth_duration_stimuli/001055_2014-06-08_18-45-35_260595134347_rgbf000111-resize_4/001055_2014-06-08_18-45-35_260595134347_rgbf000111-resize_4-target.png,1000,2.4290000000000003,3.0,3650,999,meters,jsons/v1_VE1000_randls_9.json,681454,2019151,25,Man
81,979291,DepthScenes,duration_manipulation_targetAtFixation,jsons/v1_VE1000_randls_9.json,http://54.235.29.9/FacialAge/BNav_EC2/DepthDuration/v2_depth_duration_MTurk/v2_DepthDuration_HTML.html#357,357,1366,768,1366,768,8-29-2022,10-41-8,82,depth_duration_stimuli/000549_2014-06-08_22-10-24_260595134347_rgbf000247-resize_3/000549_2014-06-08_22-10-24_260595134347_rgbf000247-resize_3-target.png,1000,1.841,1.0,3635,1000,meters,jsons/v1_VE1000_randls_9.json,681454,2019151,25,Man
82,979291,DepthScenes,duration_manipulation_targetAtFixation,jsons/v1_VE1000_randls_9.json,http://54.235.29.9/FacialAge/BNav_EC2/DepthDuration/v2_depth_duration_MTurk/v2_DepthDuration_HTML.html#357,357,1366,768,1366,768,8-29-2022,10-41-8,83,depth_duration_stimuli/002784_2014-06-22_19-26-30_094959634447_rgbf000083-resize_3/002784_2014-06-22_19-26-30_094959634447_rgbf000083-resize_3-target.png,1000,1.8046666666667,2.0,3594,999,meters,jsons/v1_VE1000_randls_9.json,681454,2019151,25,Man
83,979291,DepthScenes,duration_manipulation_targetAtFixation,jsons/v1_VE1000_randls_9.json,http://54.235.29.9/FacialAge/BNav_EC2/DepthDuration/v2_depth_duration_MTurk/v2_DepthDuration_HTML.html#357,357,1366,768,1366,768,8-29-2022,10-41-8,84,depth_duration_stimuli/001100_2014-06-15_17-46-26_260595134347_rgbf000225-resize_2/001100_2014-06-15_17-46-26_260595134347_rgbf000225-resize_2-target.png,1000,2.24,2.0,3259,998,meters,jsons/v1_VE1000_randls_9.json,681454,2019151,25,Man
84,979291,DepthScenes,duration_manipulation_targetAtFixation,jsons/v1_VE1000_randls_9.json,http://54.235.29.9/FacialAge/BNav_EC2/DepthDuration/v2_depth_duration_MTurk/v2_DepthDuration_HTML.html#357,357,1366,768,1366,768,8-29-2022,10-41-8,85,depth_duration_stimuli/001016_2014-06-09_16-16-10_260595134347_rgbf000112-resize_5/001016_2014-06-09_16-16-10_260595134347_rgbf000112-resize_5-target.png,1000,1.6565,1.0,3122,1000,meters,jsons/v1_VE1000_randls_9.json,681454,2019151,25,Man
85,979291,DepthScenes,duration_manipulation_targetAtFixation,jsons/v1_VE1000_randls_9.json,http://54.235.29.9/FacialAge/BNav_EC2/DepthDuration/v2_depth_duration_MTurk/v2_DepthDuration_HTML.html#357,357,1366,768,1366,768,8-29-2022,10-41-8,86,depth_duration_stimuli/002340_2014-06-28_20-05-46_260595134347_rgbf000113-resize_0/002340_2014-06-28_20-05-46_260595134347_rgbf000113-resize_0-target.png,1000,2.4735,2.0,3907,999,meters,jsons/v1_VE1000_randls_9.json,681454,2019151,25,Man
86,979291,DepthScenes,duration_manipulation_targetAtFixation,jsons/v1_VE1000_randls_9.json,http://54.235.29.9/FacialAge/BNav_EC2/DepthDuration/v2_depth_duration_MTurk/v2_DepthDuration_HTML.html#357,357,1366,768,1366,768,8-29-2022,10-41-8,87,depth_duration_stimuli/002043_2014-06-24_20-29-38_260595134347_rgbf000039-resize_4/002043_2014-06-24_20-29-38_260595134347_rgbf000039-resize_4-target.png,1000,2.8435,2.0,5131,1000,meters,jsons/v1_VE1000_randls_9.json,681454,2019151,25,Man
87,979291,DepthScenes,duration_manipulation_targetAtFixation,jsons/v1_VE1000_randls_9.json,http://54.235.29.9/FacialAge/BNav_EC2/DepthDuration/v2_depth_duration_MTurk/v2_DepthDuration_HTML.html#357,357,1366,768,1366,768,8-29-2022,10-41-8,88,depth_duration_stimuli/003048_2014-06-15_13-49-43_094959634447_rgbf000150-resize_1/003048_2014-06-15_13-49-43_094959634447_rgbf000150-resize_1-target.png,1000,4.0035,1.0,4081,999,meters,jsons/v1_VE1000_randls_9.json,681454,2019151,25,Man
88,979291,DepthScenes,duration_manipulation_targetAtFixation,jsons/v1_VE1000_randls_9.json,http://54.235.29.9/FacialAge/BNav_EC2/DepthDuration/v2_depth_duration_MTurk/v2_DepthDuration_HTML.html#357,357,1366,768,1366,768,8-29-2022,10-41-8,89,depth_duration_stimuli/002570_2014-06-24_13-59-54_094959634447_rgbf000059-resize_0/002570_2014-06-24_13-59-54_094959634447_rgbf000059-resize_0-target.png,1000,4.037,2.0,3755,1000,meters,jsons/v1_VE1000_randls_9.json,681454,2019151,25,Man
89,979291,DepthScenes,duration_manipulation_targetAtFixation,jsons/v1_VE1000_randls_9.json,http://54.235.29.9/FacialAge/BNav_EC2/DepthDuration/v2_depth_duration_MTurk/v2_DepthDuration_HTML.html#357,357,1366,768,1366,768,8-29-2022,10-41-8,90,depth_duration_stimuli/002467_2014-06-28_20-38-07_260595134347_rgbf000026-resize_2/002467_2014-06-28_20-38-07_260595134347_rgbf000026-resize_2-target.png,1000,4.742,2.0,3186,999,meters,jsons/v1_VE1000_randls_9.json,681454,2019151,25,Man
90,979291,DepthScenes,duration_manipulation_targetAtFixation,jsons/v1_VE1000_randls_9.json,http://54.235.29.9/FacialAge/BNav_EC2/DepthDuration/v2_depth_duration_MTurk/v2_DepthDuration_HTML.html#357,357,1366,768,1366,768,8-29-2022,10-41-8,91,depth_duration_stimuli/000736_2014-06-08_18-24-15_260595134347_rgbf000206-resize_3/000736_2014-06-08_18-24-15_260595134347_rgbf000206-resize_3-target.png,1000,3.515,1.0,3083,1001,meters,jsons/v1_VE1000_randls_9.json,681454,2019151,25,Man
91,979291,DepthScenes,duration_manipulation_targetAtFixation,jsons/v1_VE1000_randls_9.json,http://54.235.29.9/FacialAge/BNav_EC2/DepthDuration/v2_depth_duration_MTurk/v2_DepthDuration_HTML.html#357,357,1366,768,1366,768,8-29-2022,10-41-8,92,depth_duration_stimuli/000137_2014-05-20_17-04-49_260595134347_rgbf000120-resize_1/000137_2014-05-20_17-04-49_260595134347_rgbf000120-resize_1-target.png,1000,3.786,1.0,3314,1001,meters,jsons/v1_VE1000_randls_9.json,681454,2019151,25,Man
92,979291,DepthScenes,duration_manipulation_targetAtFixation,jsons/v1_VE1000_randls_9.json,http://54.235.29.9/FacialAge/BNav_EC2/DepthDuration/v2_depth_duration_MTurk/v2_DepthDuration_HTML.html#357,357,1366,768,1366,768,8-29-2022,10-41-8,93,depth_duration_stimuli/001806_2014-06-26_20-50-20_260595134347_rgbf000091-resize_1/001806_2014-06-26_20-50-20_260595134347_rgbf000091-resize_1-target.png,1000,2.7305,1.0,3147,1000,meters,jsons/v1_VE1000_randls_9.json,681454,2019151,25,Man
93,979291,DepthScenes,duration_manipulation_targetAtFixation,jsons/v1_VE1000_randls_9.json,http://54.235.29.9/FacialAge/BNav_EC2/DepthDuration/v2_depth_duration_MTurk/v2_DepthDuration_HTML.html#357,357,1366,768,1366,768,8-29-2022,10-41-8,94,depth_duration_stimuli/001617_2014-06-20_11-35-32_260595134347_rgbf000066-resize_1/001617_2014-06-20_11-35-32_260595134347_rgbf000066-resize_1-target.png,1000,3.7910000000000004,2.0,2907,999,meters,jsons/v1_VE1000_randls_9.json,681454,2019151,25,Man
94,979291,DepthScenes,duration_manipulation_targetAtFixation,jsons/v1_VE1000_randls_9.json,http://54.235.29.9/FacialAge/BNav_EC2/DepthDuration/v2_depth_duration_MTurk/v2_DepthDuration_HTML.html#357,357,1366,768,1366,768,8-29-2022,10-41-8,95,depth_duration_stimuli/001810_2014-06-26_20-51-35_260595134347_rgbf000040-resize_3/001810_2014-06-26_20-51-35_260595134347_rgbf000040-resize_3-target.png,1000,2.2525,2.0,3114,999,meters,jsons/v1_VE1000_randls_9.json,681454,2019151,25,Man
95,979291,DepthScenes,duration_manipulation_targetAtFixation,jsons/v1_VE1000_randls_9.json,http://54.235.29.9/FacialAge/BNav_EC2/DepthDuration/v2_depth_duration_MTurk/v2_DepthDuration_HTML.html#357,357,1366,768,1366,768,8-29-2022,10-41-8,96,depth_duration_stimuli/003010_2014-06-15_12-54-35_094959634447_rgbf000112-resize_0/003010_2014-06-15_12-54-35_094959634447_rgbf000112-resize_0-target.png,1000,3.1185,2.0,3409,1000,meters,jsons/v1_VE1000_randls_9.json,681454,2019151,25,Man
96,979291,DepthScenes,duration_manipulation_targetAtFixation,jsons/v1_VE1000_randls_9.json,http://54.235.29.9/FacialAge/BNav_EC2/DepthDuration/v2_depth_duration_MTurk/v2_DepthDuration_HTML.html#357,357,1366,768,1366,768,8-29-2022,10-41-8,97,depth_duration_stimuli/000009_2014-05-26_14-32-05_260595134347_rgbf000034-resize_3/000009_2014-05-26_14-32-05_260595134347_rgbf000034-resize_3-target.png,1000,3.8715,2.0,3225,999,meters,jsons/v1_VE1000_randls_9.json,681454,2019151,25,Man
97,979291,DepthScenes,duration_manipulation_targetAtFixation,jsons/v1_VE1000_randls_9.json,http://54.235.29.9/FacialAge/BNav_EC2/DepthDuration/v2_depth_duration_MTurk/v2_DepthDuration_HTML.html#357,357,1366,768,1366,768,8-29-2022,10-41-8,98,depth_duration_stimuli/001828_2014-06-26_21-40-03_260595134347_rgbf000024-resize_0/001828_2014-06-26_21-40-03_260595134347_rgbf000024-resize_0-target.png,1000,4.8260000000000005,2.0,3306,999,meters,jsons/v1_VE1000_randls_9.json,681454,2019151,25,Man
98,979291,DepthScenes,duration_manipulation_targetAtFixation,jsons/v1_VE1000_randls_9.json,http://54.235.29.9/FacialAge/BNav_EC2/DepthDuration/v2_depth_duration_MTurk/v2_DepthDuration_HTML.html#357,357,1366,768,1366,768,8-29-2022,10-41-8,99,depth_duration_stimuli/001540_2014-06-20_17-01-05_260595134347_rgbf000086-resize_2/001540_2014-06-20_17-01-05_260595134347_rgbf000086-resize-original.jpg,1000,1.459,0.0,4206,1000,meters,jsons/v1_VE1000_randls_9.json,681454,2019151,25,Man
99,979291,DepthScenes,duration_manipulation_targetAtFixation,jsons/v1_VE1000_randls_9.json,http://54.235.29.9/FacialAge/BNav_EC2/DepthDuration/v2_depth_duration_MTurk/v2_DepthDuration_HTML.html#357,357,1366,768,1366,768,8-29-2022,10-41-8,100,depth_duration_stimuli/000917_2014-06-09_22-45-29_260595134347_rgbf000149-resize_3/000917_2014-06-09_22-45-29_260595134347_rgbf000149-resize_3-target.png,1000,4.1865,2.0,4239,999,meters,jsons/v1_VE1000_randls_9.json,681454,2019151,25,Man
100,979291,DepthScenes,duration_manipulation_targetAtFixation,jsons/v1_VE1000_randls_9.json,http://54.235.29.9/FacialAge/BNav_EC2/DepthDuration/v2_depth_duration_MTurk/v2_DepthDuration_HTML.html#357,357,1366,768,1366,768,8-29-2022,10-41-8,101,depth_duration_stimuli/002323_2014-06-28_20-01-54_260595134347_rgbf000051-resize_4/002323_2014-06-28_20-01-54_260595134347_rgbf000051-resize_4-target.png,1000,3.7310000000000003,2.0,3221,998,meters,jsons/v1_VE1000_randls_9.json,681454,2019151,25,Man
101,979291,DepthScenes,duration_manipulation_targetAtFixation,jsons/v1_VE1000_randls_9.json,http://54.235.29.9/FacialAge/BNav_EC2/DepthDuration/v2_depth_duration_MTurk/v2_DepthDuration_HTML.html#357,357,1366,768,1366,768,8-29-2022,10-41-8,102,depth_duration_stimuli/002509_2014-06-24_13-19-22_094959634447_rgbf000077-resize_0/002509_2014-06-24_13-19-22_094959634447_rgbf000077-resize_0-target.png,1000,1.3065,1.0,3695,998,meters,jsons/v1_VE1000_randls_9.json,681454,2019151,25,Man
102,979291,DepthScenes,duration_manipulation_targetAtFixation,jsons/v1_VE1000_randls_9.json,http://54.235.29.9/FacialAge/BNav_EC2/DepthDuration/v2_depth_duration_MTurk/v2_DepthDuration_HTML.html#357,357,1366,768,1366,768,8-29-2022,10-41-8,103,depth_duration_stimuli/003338_2014-05-20_11-01-23_094959634447_rgbf000051-resize_6/003338_2014-05-20_11-01-23_094959634447_rgbf000051-resize_6-target.png,1000,1.693,1.0,3420,1000,meters,jsons/v1_VE1000_randls_9.json,681454,2019151,25,Man
103,979291,DepthScenes,duration_manipulation_targetAtFixation,jsons/v1_VE1000_randls_9.json,http://54.235.29.9/FacialAge/BNav_EC2/DepthDuration/v2_depth_duration_MTurk/v2_DepthDuration_HTML.html#357,357,1366,768,1366,768,8-29-2022,10-41-8,104,depth_duration_stimuli/002988_2014-06-15_12-24-20_094959634447_rgbf000150-resize_1/002988_2014-06-15_12-24-20_094959634447_rgbf000150-resize_1-target.png,1000,4.7669999999999995,2.0,5161,999,meters,jsons/v1_VE1000_randls_9.json,681454,2019151,25,Man
104,979291,DepthScenes,duration_manipulation_targetAtFixation,jsons/v1_VE1000_randls_9.json,http://54.235.29.9/FacialAge/BNav_EC2/DepthDuration/v2_depth_duration_MTurk/v2_DepthDuration_HTML.html#357,357,1366,768,1366,768,8-29-2022,10-41-8,105,depth_duration_stimuli/001052_2014-06-08_18-24-54_260595134347_rgbf000130-resize_1/001052_2014-06-08_18-24-54_260595134347_rgbf000130-resize_1-target.png,1000,4.1045,3.0,4010,1000,meters,jsons/v1_VE1000_randls_9.json,681454,2019151,25,Man
105,979291,DepthScenes,duration_manipulation_targetAtFixation,jsons/v1_VE1000_randls_9.json,http://54.235.29.9/FacialAge/BNav_EC2/DepthDuration/v2_depth_duration_MTurk/v2_DepthDuration_HTML.html#357,357,1366,768,1366,768,8-29-2022,10-41-8,106,depth_duration_stimuli/001555_2014-06-20_17-12-10_260595134347_rgbf000065-resize_4/001555_2014-06-20_17-12-10_260595134347_rgbf000065-resize_4-target.png,1000,1.633,2.0,3682,1000,meters,jsons/v1_VE1000_randls_9.json,681454,2019151,25,Man
106,979291,DepthScenes,duration_manipulation_targetAtFixation,jsons/v1_VE1000_randls_9.json,http://54.235.29.9/FacialAge/BNav_EC2/DepthDuration/v2_depth_duration_MTurk/v2_DepthDuration_HTML.html#357,357,1366,768,1366,768,8-29-2022,10-41-8,107,depth_duration_stimuli/000103_2014-05-14_22-01-17_260595134347_rgbf000152-resize_5/000103_2014-05-14_22-01-17_260595134347_rgbf000152-resize_5-target.png,1000,1.993,1.0,3034,999,meters,jsons/v1_VE1000_randls_9.json,681454,2019151,25,Man
107,979291,DepthScenes,duration_manipulation_targetAtFixation,jsons/v1_VE1000_randls_9.json,http://54.235.29.9/FacialAge/BNav_EC2/DepthDuration/v2_depth_duration_MTurk/v2_DepthDuration_HTML.html#357,357,1366,768,1366,768,8-29-2022,10-41-8,108,depth_duration_stimuli/000929_2014-06-09_16-33-19_260595134347_rgbf000139-resize_0/000929_2014-06-09_16-33-19_260595134347_rgbf000139-resize_0-target.png,1000,2.8680000000000003,1.0,3283,1000,meters,jsons/v1_VE1000_randls_9.json,681454,2019151,25,Man
108,979291,DepthScenes,duration_manipulation_targetAtFixation,jsons/v1_VE1000_randls_9.json,http://54.235.29.9/FacialAge/BNav_EC2/DepthDuration/v2_depth_duration_MTurk/v2_DepthDuration_HTML.html#357,357,1366,768,1366,768,8-29-2022,10-41-8,109,depth_duration_stimuli/000457_2014-06-08_16-52-43_260595134347_rgbf000199-resize_1/000457_2014-06-08_16-52-43_260595134347_rgbf000199-resize_1-target.png,1000,3.6489999999999996,2.0,3442,1000,meters,jsons/v1_VE1000_randls_9.json,681454,2019151,25,Man
109,979291,DepthScenes,duration_manipulation_targetAtFixation,jsons/v1_VE1000_randls_9.json,http://54.235.29.9/FacialAge/BNav_EC2/DepthDuration/v2_depth_duration_MTurk/v2_DepthDuration_HTML.html#357,357,1366,768,1366,768,8-29-2022,10-41-8,110,depth_duration_stimuli/002213_2014-06-28_18-37-58_260595134347_rgbf000055-resize_1/002213_2014-06-28_18-37-58_260595134347_rgbf000055-resize_1-target.png,1000,3.62,2.0,3843,1000,meters,jsons/v1_VE1000_randls_9.json,681454,2019151,25,Man
110,979291,DepthScenes,duration_manipulation_targetAtFixation,jsons/v1_VE1000_randls_9.json,http://54.235.29.9/FacialAge/BNav_EC2/DepthDuration/v2_depth_duration_MTurk/v2_DepthDuration_HTML.html#357,357,1366,768,1366,768,8-29-2022,10-41-8,111,depth_duration_stimuli/000691_2014-06-08_13-08-50_260595134347_rgbf000132-resize_3/000691_2014-06-08_13-08-50_260595134347_rgbf000132-resize_3-target.png,1000,4.1530000000000005,2.0,2993,999,meters,jsons/v1_VE1000_randls_9.json,681454,2019151,25,Man
111,979291,DepthScenes,duration_manipulation_targetAtFixation,jsons/v1_VE1000_randls_9.json,http://54.235.29.9/FacialAge/BNav_EC2/DepthDuration/v2_depth_duration_MTurk/v2_DepthDuration_HTML.html#357,357,1366,768,1366,768,8-29-2022,10-41-8,112,depth_duration_stimuli/002153_2014-06-25_21-27-18_260595134347_rgbf000038-resize_5/002153_2014-06-25_21-27-18_260595134347_rgbf000038-resize_5-target.png,1000,2.505,1.0,3777,999,meters,jsons/v1_VE1000_randls_9.json,681454,2019151,25,Man
112,979291,DepthScenes,duration_manipulation_targetAtFixation,jsons/v1_VE1000_randls_9.json,http://54.235.29.9/FacialAge/BNav_EC2/DepthDuration/v2_depth_duration_MTurk/v2_DepthDuration_HTML.html#357,357,1366,768,1366,768,8-29-2022,10-41-8,113,depth_duration_stimuli/002660_2014-06-13_15-44-18_094959634447_rgbf001878-resize_2/002660_2014-06-13_15-44-18_094959634447_rgbf001878-resize_2-target.png,1000,3.576,2.0,3185,998,meters,jsons/v1_VE1000_randls_9.json,681454,2019151,25,Man
113,979291,DepthScenes,duration_manipulation_targetAtFixation,jsons/v1_VE1000_randls_9.json,http://54.235.29.9/FacialAge/BNav_EC2/DepthDuration/v2_depth_duration_MTurk/v2_DepthDuration_HTML.html#357,357,1366,768,1366,768,8-29-2022,10-41-8,114,depth_duration_stimuli/000810_2014-06-08_17-20-01_260595134347_rgbf000105-resize_0/000810_2014-06-08_17-20-01_260595134347_rgbf000105-resize_0-target.png,1000,1.4865,2.0,3330,1000,meters,jsons/v1_VE1000_randls_9.json,681454,2019151,25,Man
114,979291,DepthScenes,duration_manipulation_targetAtFixation,jsons/v1_VE1000_randls_9.json,http://54.235.29.9/FacialAge/BNav_EC2/DepthDuration/v2_depth_duration_MTurk/v2_DepthDuration_HTML.html#357,357,1366,768,1366,768,8-29-2022,10-41-8,115,depth_duration_stimuli/001214_2014-06-17_16-13-55_260595134347_rgbf000111-resize_0/001214_2014-06-17_16-13-55_260595134347_rgbf000111-resize_0-target.png,1000,2.6505,2.0,3538,999,meters,jsons/v1_VE1000_randls_9.json,681454,2019151,25,Man
115,979291,DepthScenes,duration_manipulation_targetAtFixation,jsons/v1_VE1000_randls_9.json,http://54.235.29.9/FacialAge/BNav_EC2/DepthDuration/v2_depth_duration_MTurk/v2_DepthDuration_HTML.html#357,357,1366,768,1366,768,8-29-2022,10-41-8,116,depth_duration_stimuli/001170_2014-06-17_15-43-44_260595134347_rgbf000096-resize_6/001170_2014-06-17_15-43-44_260595134347_rgbf000096-resize-original.jpg,1000,1.1909999999999998,0.0,3907,1001,meters,jsons/v1_VE1000_randls_9.json,681454,2019151,25,Man
116,979291,DepthScenes,duration_manipulation_targetAtFixation,jsons/v1_VE1000_randls_9.json,http://54.235.29.9/FacialAge/BNav_EC2/DepthDuration/v2_depth_duration_MTurk/v2_DepthDuration_HTML.html#357,357,1366,768,1366,768,8-29-2022,10-41-8,117,depth_duration_stimuli/000642_2014-06-08_16-59-25_260595134347_rgbf000098-resize_2/000642_2014-06-08_16-59-25_260595134347_rgbf000098-resize_2-target.png,1000,2.8815,1.0,3954,1000,meters,jsons/v1_VE1000_randls_9.json,681454,2019151,25,Man
117,979291,DepthScenes,duration_manipulation_targetAtFixation,jsons/v1_VE1000_randls_9.json,http://54.235.29.9/FacialAge/BNav_EC2/DepthDuration/v2_depth_duration_MTurk/v2_DepthDuration_HTML.html#357,357,1366,768,1366,768,8-29-2022,10-41-8,118,depth_duration_stimuli/002425_2014-06-28_20-27-29_260595134347_rgbf000031-resize_8/002425_2014-06-28_20-27-29_260595134347_rgbf000031-resize_8-target.png,1000,3.8960000000000004,2.0,3738,999,meters,jsons/v1_VE1000_randls_9.json,681454,2019151,25,Man
118,979291,DepthScenes,duration_manipulation_targetAtFixation,jsons/v1_VE1000_randls_9.json,http://54.235.29.9/FacialAge/BNav_EC2/DepthDuration/v2_depth_duration_MTurk/v2_DepthDuration_HTML.html#357,357,1366,768,1366,768,8-29-2022,10-41-8,119,depth_duration_stimuli/002057_2014-06-24_21-00-13_260595134347_rgbf000120-resize_1/002057_2014-06-24_21-00-13_260595134347_rgbf000120-resize_1-target.png,1000,2.967,2.0,3770,999,meters,jsons/v1_VE1000_randls_9.json,681454,2019151,25,Man
119,979291,DepthScenes,duration_manipulation_targetAtFixation,jsons/v1_VE1000_randls_9.json,http://54.235.29.9/FacialAge/BNav_EC2/DepthDuration/v2_depth_duration_MTurk/v2_DepthDuration_HTML.html#357,357,1366,768,1366,768,8-29-2022,10-41-8,120,depth_duration_stimuli/000709_2014-06-08_13-51-55_260595134347_rgbf000068-resize_3/000709_2014-06-08_13-51-55_260595134347_rgbf000068-resize_3-target.png,1000,1.8030000000000002,1.0,3291,1000,meters,jsons/v1_VE1000_randls_9.json,681454,2019151,25,Man
120,979291,DepthScenes,duration_manipulation_targetAtFixation,jsons/v1_VE1000_randls_9.json,http://54.235.29.9/FacialAge/BNav_EC2/DepthDuration/v2_depth_duration_MTurk/v2_DepthDuration_HTML.html#357,357,1366,768,1366,768,8-29-2022,10-41-8,121,depth_duration_stimuli/001011_2014-06-08_23-18-54_260595134347_rgbf000044-resize_4/001011_2014-06-08_23-18-54_260595134347_rgbf000044-resize_4-target.png,1000,2.4730000000000003,2.0,3697,999,meters,jsons/v1_VE1000_randls_9.json,681454,2019151,25,Man
121,979291,DepthScenes,duration_manipulation_targetAtFixation,jsons/v1_VE1000_randls_9.json,http://54.235.29.9/FacialAge/BNav_EC2/DepthDuration/v2_depth_duration_MTurk/v2_DepthDuration_HTML.html#357,357,1366,768,1366,768,8-29-2022,10-41-8,122,depth_duration_stimuli/002875_2014-06-01_15-19-00_094959634447_rgbf000151-resize_1/002875_2014-06-01_15-19-00_094959634447_rgbf000151-resize_1-target.png,1000,1.9675,1.0,3162,1000,meters,jsons/v1_VE1000_randls_9.json,681454,2019151,25,Man
122,979291,DepthScenes,duration_manipulation_targetAtFixation,jsons/v1_VE1000_randls_9.json,http://54.235.29.9/FacialAge/BNav_EC2/DepthDuration/v2_depth_duration_MTurk/v2_DepthDuration_HTML.html#357,357,1366,768,1366,768,8-29-2022,10-41-8,123,depth_duration_stimuli/001056_2014-06-08_18-46-44_260595134347_rgbf000068-resize_0/001056_2014-06-08_18-46-44_260595134347_rgbf000068-resize_0-target.png,1000,2.6625,1.0,3058,1000,meters,jsons/v1_VE1000_randls_9.json,681454,2019151,25,Man
123,979291,DepthScenes,duration_manipulation_targetAtFixation,jsons/v1_VE1000_randls_9.json,http://54.235.29.9/FacialAge/BNav_EC2/DepthDuration/v2_depth_duration_MTurk/v2_DepthDuration_HTML.html#357,357,1366,768,1366,768,8-29-2022,10-41-8,124,depth_duration_stimuli/002199_2014-06-28_18-33-56_260595134347_rgbf000074-resize_0/002199_2014-06-28_18-33-56_260595134347_rgbf000074-resize_0-target.png,1000,1.996,2.0,3361,999,meters,jsons/v1_VE1000_randls_9.json,681454,2019151,25,Man
124,979291,DepthScenes,duration_manipulation_targetAtFixation,jsons/v1_VE1000_randls_9.json,http://54.235.29.9/FacialAge/BNav_EC2/DepthDuration/v2_depth_duration_MTurk/v2_DepthDuration_HTML.html#357,357,1366,768,1366,768,8-29-2022,10-41-8,125,depth_duration_stimuli/000436_2014-06-09_22-25-11_260595134347_rgbf000137-resize_1/000436_2014-06-09_22-25-11_260595134347_rgbf000137-resize_1-target.png,1000,4.0705,2.0,3890,999,meters,jsons/v1_VE1000_randls_9.json,681454,2019151,25,Man
125,979291,DepthScenes,duration_manipulation_targetAtFixation,jsons/v1_VE1000_randls_9.json,http://54.235.29.9/FacialAge/BNav_EC2/DepthDuration/v2_depth_duration_MTurk/v2_DepthDuration_HTML.html#357,357,1366,768,1366,768,8-29-2022,10-41-8,126,depth_duration_stimuli/002444_2014-06-28_20-32-08_260595134347_rgbf000027-resize_0/002444_2014-06-28_20-32-08_260595134347_rgbf000027-resize_0-target.png,1000,4.388999999999999,1.0,3002,999,meters,jsons/v1_VE1000_randls_9.json,681454,2019151,25,Man
126,979291,DepthScenes,duration_manipulation_targetAtFixation,jsons/v1_VE1000_randls_9.json,http://54.235.29.9/FacialAge/BNav_EC2/DepthDuration/v2_depth_duration_MTurk/v2_DepthDuration_HTML.html#357,357,1366,768,1366,768,8-29-2022,10-41-8,127,depth_duration_stimuli/000739_2014-06-08_18-45-58_260595134347_rgbf000068-resize_1/000739_2014-06-08_18-45-58_260595134347_rgbf000068-resize_1-target.png,1000,3.534,2.0,3380,1000,meters,jsons/v1_VE1000_randls_9.json,681454,2019151,25,Man
127,979291,DepthScenes,duration_manipulation_targetAtFixation,jsons/v1_VE1000_randls_9.json,http://54.235.29.9/FacialAge/BNav_EC2/DepthDuration/v2_depth_duration_MTurk/v2_DepthDuration_HTML.html#357,357,1366,768,1366,768,8-29-2022,10-41-8,128,depth_duration_stimuli/000734_2014-06-08_17-39-11_260595134347_rgbf000128-resize_2/000734_2014-06-08_17-39-11_260595134347_rgbf000128-resize_2-target.png,1000,4.098,2.0,3321,999,meters,jsons/v1_VE1000_randls_9.json,681454,2019151,25,Man
128,979291,DepthScenes,duration_manipulation_targetAtFixation,jsons/v1_VE1000_randls_9.json,http://54.235.29.9/FacialAge/BNav_EC2/DepthDuration/v2_depth_duration_MTurk/v2_DepthDuration_HTML.html#357,357,1366,768,1366,768,8-29-2022,10-41-8,129,depth_duration_stimuli/001066_2014-06-08_22-03-20_260595134347_rgbf000066-resize_4/001066_2014-06-08_22-03-20_260595134347_rgbf000066-resize_4-target.png,1000,4.2330000000000005,2.0,3602,999,meters,jsons/v1_VE1000_randls_9.json,681454,2019151,25,Man
129,979291,DepthScenes,duration_manipulation_targetAtFixation,jsons/v1_VE1000_randls_9.json,http://54.235.29.9/FacialAge/BNav_EC2/DepthDuration/v2_depth_duration_MTurk/v2_DepthDuration_HTML.html#357,357,1366,768,1366,768,8-29-2022,10-41-8,130,depth_duration_stimuli/000742_2014-06-08_18-48-09_260595134347_rgbf000164-resize_4/000742_2014-06-08_18-48-09_260595134347_rgbf000164-resize_4-target.png,1000,4.632,1.0,2954,1000,meters,jsons/v1_VE1000_randls_9.json,681454,2019151,25,Man
130,979291,DepthScenes,duration_manipulation_targetAtFixation,jsons/v1_VE1000_randls_9.json,http://54.235.29.9/FacialAge/BNav_EC2/DepthDuration/v2_depth_duration_MTurk/v2_DepthDuration_HTML.html#357,357,1366,768,1366,768,8-29-2022,10-41-8,131,depth_duration_stimuli/000368_2014-06-09_15-53-01_260595134347_rgbf000155-resize_2/000368_2014-06-09_15-53-01_260595134347_rgbf000155-resize_2-target.png,1000,2.4859999999999998,1.0,3020,1000,meters,jsons/v1_VE1000_randls_9.json,681454,2019151,25,Man
131,979291,DepthScenes,duration_manipulation_targetAtFixation,jsons/v1_VE1000_randls_9.json,http://54.235.29.9/FacialAge/BNav_EC2/DepthDuration/v2_depth_duration_MTurk/v2_DepthDuration_HTML.html#357,357,1366,768,1366,768,8-29-2022,10-41-8,132,depth_duration_stimuli/002678_2014-06-13_16-15-32_094959634447_rgbf000151-resize_6/002678_2014-06-13_16-15-32_094959634447_rgbf000151-resize_6-target.png,1000,2.1830000000000003,2.0,3210,1000,meters,jsons/v1_VE1000_randls_9.json,681454,2019151,25,Man
132,979291,DepthScenes,duration_manipulation_targetAtFixation,jsons/v1_VE1000_randls_9.json,http://54.235.29.9/FacialAge/BNav_EC2/DepthDuration/v2_depth_duration_MTurk/v2_DepthDuration_HTML.html#357,357,1366,768,1366,768,8-29-2022,10-41-8,133,depth_duration_stimuli/000682_2014-06-08_23-14-58_260595134347_rgbf000041-resize_5/000682_2014-06-08_23-14-58_260595134347_rgbf000041-resize_5-target.png,1000,2.7239999999999998,1.0,3074,1001,meters,jsons/v1_VE1000_randls_9.json,681454,2019151,25,Man
133,979291,DepthScenes,duration_manipulation_targetAtFixation,jsons/v1_VE1000_randls_9.json,http://54.235.29.9/FacialAge/BNav_EC2/DepthDuration/v2_depth_duration_MTurk/v2_DepthDuration_HTML.html#357,357,1366,768,1366,768,8-29-2022,10-41-8,134,depth_duration_stimuli/001650_2014-06-20_12-09-00_260595134347_rgbf000087-resize_3/001650_2014-06-20_12-09-00_260595134347_rgbf000087-resize_3-target.png,1000,1.9505,2.0,3282,999,meters,jsons/v1_VE1000_randls_9.json,681454,2019151,25,Man
134,979291,DepthScenes,duration_manipulation_targetAtFixation,jsons/v1_VE1000_randls_9.json,http://54.235.29.9/FacialAge/BNav_EC2/DepthDuration/v2_depth_duration_MTurk/v2_DepthDuration_HTML.html#357,357,1366,768,1366,768,8-29-2022,10-41-8,135,depth_duration_stimuli/002072_2014-06-24_21-48-06_260595134347_rgbf000115-resize_0/002072_2014-06-24_21-48-06_260595134347_rgbf000115-resize-original.jpg,1000,4.702,0.0,3649,999,meters,jsons/v1_VE1000_randls_9.json,681454,2019151,25,Man
135,979291,DepthScenes,duration_manipulation_targetAtFixation,jsons/v1_VE1000_randls_9.json,http://54.235.29.9/FacialAge/BNav_EC2/DepthDuration/v2_depth_duration_MTurk/v2_DepthDuration_HTML.html#357,357,1366,768,1366,768,8-29-2022,10-41-8,136,depth_duration_stimuli/001158_2014-06-17_15-32-16_260595134347_rgbf000138-resize_2/001158_2014-06-17_15-32-16_260595134347_rgbf000138-resize_2-target.png,1000,4.5315,1.0,3291,999,meters,jsons/v1_VE1000_randls_9.json,681454,2019151,25,Man
136,979291,DepthScenes,duration_manipulation_targetAtFixation,jsons/v1_VE1000_randls_9.json,http://54.235.29.9/FacialAge/BNav_EC2/DepthDuration/v2_depth_duration_MTurk/v2_DepthDuration_HTML.html#357,357,1366,768,1366,768,8-29-2022,10-41-8,137,depth_duration_stimuli/000556_2014-06-09_22-42-56_260595134347_rgbf000214-resize_1/000556_2014-06-09_22-42-56_260595134347_rgbf000214-resize_1-target.png,1000,4.8415,2.0,3778,1001,meters,jsons/v1_VE1000_randls_9.json,681454,2019151,25,Man
137,979291,DepthScenes,duration_manipulation_targetAtFixation,jsons/v1_VE1000_randls_9.json,http://54.235.29.9/FacialAge/BNav_EC2/DepthDuration/v2_depth_duration_MTurk/v2_DepthDuration_HTML.html#357,357,1366,768,1366,768,8-29-2022,10-41-8,138,depth_duration_stimuli/002279_2014-06-28_18-55-32_260595134347_rgbf000040-resize_5/002279_2014-06-28_18-55-32_260595134347_rgbf000040-resize_5-target.png,1000,1.5043333333333,2.0,4210,999,meters,jsons/v1_VE1000_randls_9.json,681454,2019151,25,Man
138,979291,DepthScenes,duration_manipulation_targetAtFixation,jsons/v1_VE1000_randls_9.json,http://54.235.29.9/FacialAge/BNav_EC2/DepthDuration/v2_depth_duration_MTurk/v2_DepthDuration_HTML.html#357,357,1366,768,1366,768,8-29-2022,10-41-8,139,depth_duration_stimuli/000635_2014-06-08_16-38-42_260595134347_rgbf000106-resize_1/000635_2014-06-08_16-38-42_260595134347_rgbf000106-resize_1-target.png,1000,2.074,1.0,3323,1001,meters,jsons/v1_VE1000_randls_9.json,681454,2019151,25,Man
139,979291,DepthScenes,duration_manipulation_targetAtFixation,jsons/v1_VE1000_randls_9.json,http://54.235.29.9/FacialAge/BNav_EC2/DepthDuration/v2_depth_duration_MTurk/v2_DepthDuration_HTML.html#357,357,1366,768,1366,768,8-29-2022,10-41-8,140,depth_duration_stimuli/000906_2014-06-08_13-35-43_260595134347_rgbf000155-resize_1/000906_2014-06-08_13-35-43_260595134347_rgbf000155-resize_1-target.png,1000,2.8489999999999998,2.0,3338,1000,meters,jsons/v1_VE1000_randls_9.json,681454,2019151,25,Man
140,979291,DepthScenes,duration_manipulation_targetAtFixation,jsons/v1_VE1000_randls_9.json,http://54.235.29.9/FacialAge/BNav_EC2/DepthDuration/v2_depth_duration_MTurk/v2_DepthDuration_HTML.html#357,357,1366,768,1366,768,8-29-2022,10-41-8,141,depth_duration_stimuli/002805_2014-06-22_19-54-03_094959634447_rgbf000079-resize_1/002805_2014-06-22_19-54-03_094959634447_rgbf000079-resize_1-target.png,1000,3.1439999999999997,1.0,3226,1000,meters,jsons/v1_VE1000_randls_9.json,681454,2019151,25,Man
141,979291,DepthScenes,duration_manipulation_targetAtFixation,jsons/v1_VE1000_randls_9.json,http://54.235.29.9/FacialAge/BNav_EC2/DepthDuration/v2_depth_duration_MTurk/v2_DepthDuration_HTML.html#357,357,1366,768,1366,768,8-29-2022,10-41-8,142,depth_duration_stimuli/003292_2014-05-14_21-53-49_094959634447_rgbf000100-resize_2/003292_2014-05-14_21-53-49_094959634447_rgbf000100-resize_2-target.png,1000,3.4815,1.0,2979,1001,meters,jsons/v1_VE1000_randls_9.json,681454,2019151,25,Man
142,979291,DepthScenes,duration_manipulation_targetAtFixation,jsons/v1_VE1000_randls_9.json,http://54.235.29.9/FacialAge/BNav_EC2/DepthDuration/v2_depth_duration_MTurk/v2_DepthDuration_HTML.html#357,357,1366,768,1366,768,8-29-2022,10-41-8,143,depth_duration_stimuli/002639_2014-06-24_14-51-37_094959634447_rgbf000074-resize_4/002639_2014-06-24_14-51-37_094959634447_rgbf000074-resize_4-target.png,1000,4.0375,1.0,3634,1000,meters,jsons/v1_VE1000_randls_9.json,681454,2019151,25,Man
143,979291,DepthScenes,duration_manipulation_targetAtFixation,jsons/v1_VE1000_randls_9.json,http://54.235.29.9/FacialAge/BNav_EC2/DepthDuration/v2_depth_duration_MTurk/v2_DepthDuration_HTML.html#357,357,1366,768,1366,768,8-29-2022,10-41-8,144,depth_duration_stimuli/001570_2014-06-20_17-21-09_260595134347_rgbf000135-resize_4/001570_2014-06-20_17-21-09_260595134347_rgbf000135-resize_4-target.png,1000,4.467,2.0,3635,1000,meters,jsons/v1_VE1000_randls_9.json,681454,2019151,25,Man
144,979291,DepthScenes,duration_manipulation_targetAtFixation,jsons/v1_VE1000_randls_9.json,http://54.235.29.9/FacialAge/BNav_EC2/DepthDuration/v2_depth_duration_MTurk/v2_DepthDuration_HTML.html#357,357,1366,768,1366,768,8-29-2022,10-41-8,145,depth_duration_stimuli/001392_2014-06-19_16-07-59_260595134347_rgbf000046-resize_1/001392_2014-06-19_16-07-59_260595134347_rgbf000046-resize_1-target.png,1000,4.135,2.0,3130,999,meters,jsons/v1_VE1000_randls_9.json,681454,2019151,25,Man
145,979291,DepthScenes,duration_manipulation_targetAtFixation,jsons/v1_VE1000_randls_9.json,http://54.235.29.9/FacialAge/BNav_EC2/DepthDuration/v2_depth_duration_MTurk/v2_DepthDuration_HTML.html#357,357,1366,768,1366,768,8-29-2022,10-41-8,146,depth_duration_stimuli/001498_2014-06-19_17-45-14_260595134347_rgbf000129-resize_4/001498_2014-06-19_17-45-14_260595134347_rgbf000129-resize-original.jpg,1000,1.4075,0.0,3907,1000,meters,jsons/v1_VE1000_randls_9.json,681454,2019151,25,Man
146,979291,DepthScenes,duration_manipulation_targetAtFixation,jsons/v1_VE1000_randls_9.json,http://54.235.29.9/FacialAge/BNav_EC2/DepthDuration/v2_depth_duration_MTurk/v2_DepthDuration_HTML.html#357,357,1366,768,1366,768,8-29-2022,10-41-8,147,depth_duration_stimuli/002989_2014-06-15_12-25-03_094959634447_rgbf000150-resize_3/002989_2014-06-15_12-25-03_094959634447_rgbf000150-resize_3-target.png,1000,4.1975,3.0,4242,999,meters,jsons/v1_VE1000_randls_9.json,681454,2019151,25,Man
147,979291,DepthScenes,duration_manipulation_targetAtFixation,jsons/v1_VE1000_randls_9.json,http://54.235.29.9/FacialAge/BNav_EC2/DepthDuration/v2_depth_duration_MTurk/v2_DepthDuration_HTML.html#357,357,1366,768,1366,768,8-29-2022,10-41-8,148,depth_duration_stimuli/000866_2014-06-09_20-45-42_260595134347_rgbf000139-resize_1/000866_2014-06-09_20-45-42_260595134347_rgbf000139-resize_1-target.png,1000,3.2155,3.0,3762,1000,meters,jsons/v1_VE1000_randls_9.json,681454,2019151,25,Man
148,979291,DepthScenes,duration_manipulation_targetAtFixation,jsons/v1_VE1000_randls_9.json,http://54.235.29.9/FacialAge/BNav_EC2/DepthDuration/v2_depth_duration_MTurk/v2_DepthDuration_HTML.html#357,357,1366,768,1366,768,8-29-2022,10-41-8,149,depth_duration_stimuli/000506_2014-06-08_23-21-00_260595134347_rgbf000070-resize_7/000506_2014-06-08_23-21-00_260595134347_rgbf000070-resize_7-target.png,1000,4.0585,2.0,3811,999,meters,jsons/v1_VE1000_randls_9.json,681454,2019151,25,Man
149,979291,DepthScenes,duration_manipulation_targetAtFixation,jsons/v1_VE1000_randls_9.json,http://54.235.29.9/FacialAge/BNav_EC2/DepthDuration/v2_depth_duration_MTurk/v2_DepthDuration_HTML.html#357,357,1366,768,1366,768,8-29-2022,10-41-8,150,depth_duration_stimuli/003079_2014-06-15_15-18-20_094959634447_rgbf000152-resize_8/003079_2014-06-15_15-18-20_094959634447_rgbf000152-resize_8-target.png,1000,2.8775,1.0,3882,999,meters,jsons/v1_VE1000_randls_9.json,681454,2019151,25,Man
150,979291,DepthScenes,duration_manipulation_targetAtFixation,jsons/v1_VE1000_randls_9.json,http://54.235.29.9/FacialAge/BNav_EC2/DepthDuration/v2_depth_duration_MTurk/v2_DepthDuration_HTML.html#357,357,1366,768,1366,768,8-29-2022,10-41-8,151,depth_duration_stimuli/001449_2014-06-19_17-01-27_260595134347_rgbf000116-resize_2/001449_2014-06-19_17-01-27_260595134347_rgbf000116-resize_2-target.png,1000,3.452,1.0,3746,1000,meters,jsons/v1_VE1000_randls_9.json,681454,2019151,25,Man
151,979291,DepthScenes,duration_manipulation_targetAtFixation,jsons/v1_VE1000_randls_9.json,http://54.235.29.9/FacialAge/BNav_EC2/DepthDuration/v2_depth_duration_MTurk/v2_DepthDuration_HTML.html#357,357,1366,768,1366,768,8-29-2022,10-41-8,152,depth_duration_stimuli/001450_2014-06-19_17-02-03_260595134347_rgbf000203-resize_4/001450_2014-06-19_17-02-03_260595134347_rgbf000203-resize_4-target.png,1000,4.0106666666667,1.0,3266,999,meters,jsons/v1_VE1000_randls_9.json,681454,2019151,25,Man
152,979291,DepthScenes,duration_manipulation_targetAtFixation,jsons/v1_VE1000_randls_9.json,http://54.235.29.9/FacialAge/BNav_EC2/DepthDuration/v2_depth_duration_MTurk/v2_DepthDuration_HTML.html#357,357,1366,768,1366,768,8-29-2022,10-41-8,153,depth_duration_stimuli/000773_2014-06-08_22-24-54_260595134347_rgbf000093-resize_1/000773_2014-06-08_22-24-54_260595134347_rgbf000093-resize_1-target.png,1000,4.973,1.0,3418,999,meters,jsons/v1_VE1000_randls_9.json,681454,2019151,25,Man
153,979291,DepthScenes,duration_manipulation_targetAtFixation,jsons/v1_VE1000_randls_9.json,http://54.235.29.9/FacialAge/BNav_EC2/DepthDuration/v2_depth_duration_MTurk/v2_DepthDuration_HTML.html#357,357,1366,768,1366,768,8-29-2022,10-41-8,154,depth_duration_stimuli/002414_2014-06-28_20-24-58_260595134347_rgbf000067-resize_4/002414_2014-06-28_20-24-58_260595134347_rgbf000067-resize_4-target.png,1000,4.363,1.0,3298,999,meters,jsons/v1_VE1000_randls_9.json,681454,2019151,25,Man
154,979291,DepthScenes,duration_manipulation_targetAtFixation,jsons/v1_VE1000_randls_9.json,http://54.235.29.9/FacialAge/BNav_EC2/DepthDuration/v2_depth_duration_MTurk/v2_DepthDuration_HTML.html#357,357,1366,768,1366,768,8-29-2022,10-41-8,155,depth_duration_stimuli/002630_2014-06-24_14-47-50_094959634447_rgbf000055-resize_1/002630_2014-06-24_14-47-50_094959634447_rgbf000055-resize_1-target.png,1000,3.0095,1.0,3074,1001,meters,jsons/v1_VE1000_randls_9.json,681454,2019151,25,Man
155,979291,DepthScenes,duration_manipulation_targetAtFixation,jsons/v1_VE1000_randls_9.json,http://54.235.29.9/FacialAge/BNav_EC2/DepthDuration/v2_depth_duration_MTurk/v2_DepthDuration_HTML.html#357,357,1366,768,1366,768,8-29-2022,10-41-8,156,depth_duration_stimuli/002758_2014-06-22_19-11-20_094959634447_rgbf000128-resize_1/002758_2014-06-22_19-11-20_094959634447_rgbf000128-resize_1-target.png,1000,2.555,1.0,2937,999,meters,jsons/v1_VE1000_randls_9.json,681454,2019151,25,Man
156,979291,DepthScenes,duration_manipulation_targetAtFixation,jsons/v1_VE1000_randls_9.json,http://54.235.29.9/FacialAge/BNav_EC2/DepthDuration/v2_depth_duration_MTurk/v2_DepthDuration_HTML.html#357,357,1366,768,1366,768,8-29-2022,10-41-8,157,depth_duration_stimuli/000447_2014-06-08_16-15-46_260595134347_rgbf000130-resize_1/000447_2014-06-08_16-15-46_260595134347_rgbf000130-resize_1-target.png,1000,4.479,2.0,3289,999,meters,jsons/v1_VE1000_randls_9.json,681454,2019151,25,Man
157,979291,DepthScenes,duration_manipulation_targetAtFixation,jsons/v1_VE1000_randls_9.json,http://54.235.29.9/FacialAge/BNav_EC2/DepthDuration/v2_depth_duration_MTurk/v2_DepthDuration_HTML.html#357,357,1366,768,1366,768,8-29-2022,10-41-8,158,depth_duration_stimuli/001447_2014-06-19_17-00-32_260595134347_rgbf000082-resize_5/001447_2014-06-19_17-00-32_260595134347_rgbf000082-resize_5-target.png,1000,4.13775,1.0,3099,1000,meters,jsons/v1_VE1000_randls_9.json,681454,2019151,25,Man
158,979291,DepthScenes,duration_manipulation_targetAtFixation,jsons/v1_VE1000_randls_9.json,http://54.235.29.9/FacialAge/BNav_EC2/DepthDuration/v2_depth_duration_MTurk/v2_DepthDuration_HTML.html#357,357,1366,768,1366,768,8-29-2022,10-41-8,159,depth_duration_stimuli/000414_2014-06-04_19-49-13_260595134347_rgbf000044-resize_0/000414_2014-06-04_19-49-13_260595134347_rgbf000044-resize_0-target.png,1000,4.329,2.0,6339,999,meters,jsons/v1_VE1000_randls_9.json,681454,2019151,25,Man
159,979291,DepthScenes,duration_manipulation_targetAtFixation,jsons/v1_VE1000_randls_9.json,http://54.235.29.9/FacialAge/BNav_EC2/DepthDuration/v2_depth_duration_MTurk/v2_DepthDuration_HTML.html#357,357,1366,768,1366,768,8-29-2022,10-41-8,160,depth_duration_stimuli/003129_2014-05-12_10-48-10_094959634447_rgbf000100-resize_0/003129_2014-05-12_10-48-10_094959634447_rgbf000100-resize_0-target.png,1000,4.9305,1.0,3506,1001,meters,jsons/v1_VE1000_randls_9.json,681454,2019151,25,Man
160,979291,DepthScenes,duration_manipulation_targetAtFixation,jsons/v1_VE1000_randls_9.json,http://54.235.29.9/FacialAge/BNav_EC2/DepthDuration/v2_depth_duration_MTurk/v2_DepthDuration_HTML.html#357,357,1366,768,1366,768,8-29-2022,10-41-8,161,depth_duration_stimuli/002725_2014-06-22_11-47-51_094959634447_rgbf000070-resize_1/002725_2014-06-22_11-47-51_094959634447_rgbf000070-resize_1-target.png,1000,2.195,1.0,3786,1000,meters,jsons/v1_VE1000_randls_9.json,681454,2019151,25,Man
161,979291,DepthScenes,duration_manipulation_targetAtFixation,jsons/v1_VE1000_randls_9.json,http://54.235.29.9/FacialAge/BNav_EC2/DepthDuration/v2_depth_duration_MTurk/v2_DepthDuration_HTML.html#357,357,1366,768,1366,768,8-29-2022,10-41-8,162,depth_duration_stimuli/002344_2014-06-28_20-06-29_260595134347_rgbf000030-resize_1/002344_2014-06-28_20-06-29_260595134347_rgbf000030-resize_1-target.png,1000,1.5795,1.0,3658,999,meters,jsons/v1_VE1000_randls_9.json,681454,2019151,25,Man
162,979291,DepthScenes,duration_manipulation_targetAtFixation,jsons/v1_VE1000_randls_9.json,http://54.235.29.9/FacialAge/BNav_EC2/DepthDuration/v2_depth_duration_MTurk/v2_DepthDuration_HTML.html#357,357,1366,625,1366,768,8-29-2022,10-41-8,163,depth_duration_stimuli/001175_2014-06-17_15-45-55_260595134347_rgbf000129-resize_4/001175_2014-06-17_15-45-55_260595134347_rgbf000129-resize_4-target.png,1000,4.255,2.0,8554,999,meters,jsons/v1_VE1000_randls_9.json,681454,2019151,25,Man
163,979291,DepthScenes,duration_manipulation_targetAtFixation,jsons/v1_VE1000_randls_9.json,http://54.235.29.9/FacialAge/BNav_EC2/DepthDuration/v2_depth_duration_MTurk/v2_DepthDuration_HTML.html#357,357,1366,768,1366,768,8-29-2022,10-41-8,164,depth_duration_stimuli/003490_2014-05-21_15-50-11_094959634447_rgbf000101-resize_3/003490_2014-05-21_15-50-11_094959634447_rgbf000101-resize_3-target.png,1000,3.6445,1.0,4466,999,meters,jsons/v1_VE1000_randls_9.json,681454,2019151,25,Man
