,subjID,experimentName,versionName,sequenceName,url,selected_row,windowWidth,windowHeight,screenWidth,screenHeight,startDate,startTime,trial,stimulus,duration,actual_depth,depth_estimate,trial_RT,log_sceneDuration,unitSelection,seq_filepath,experimentTime,totalTime,age,gender
0,980305,DepthScenes,duration_manipulation_targetAtFixation,jsons/VE125_randls_57_rotated.json,http://54.235.29.9/FacialAge/BNav_EC2/DepthDuration/v2_depth_duration_MTurk/v2_DepthDuration_HTML.html#306,306,984,800,1440,900,8-29-2022,13-29-37,1,depth_duration_stimuli/003048_2014-06-15_13-49-43_094959634447_rgbf000150-resize_1/003048_2014-06-15_13-49-43_094959634447_rgbf000150-resize_1-target.png,125,4.0035,6,2263,124,feet,jsons/VE125_randls_57_rotated.json,548592,633196,28,Man
1,980305,DepthScenes,duration_manipulation_targetAtFixation,jsons/VE125_randls_57_rotated.json,http://54.235.29.9/FacialAge/BNav_EC2/DepthDuration/v2_depth_duration_MTurk/v2_DepthDuration_HTML.html#306,306,984,800,1440,900,8-29-2022,13-29-37,2,depth_duration_stimuli/002043_2014-06-24_20-29-38_260595134347_rgbf000039-resize_4/002043_2014-06-24_20-29-38_260595134347_rgbf000039-resize_4-target.png,125,2.8435,3,2000,121,feet,jsons/VE125_randls_57_rotated.json,548592,633196,28,Man
2,980305,DepthScenes,duration_manipulation_targetAtFixation,jsons/VE125_randls_57_rotated.json,http://54.235.29.9/FacialAge/BNav_EC2/DepthDuration/v2_depth_duration_MTurk/v2_DepthDuration_HTML.html#306,306,984,800,1440,900,8-29-2022,13-29-37,3,depth_duration_stimuli/002323_2014-06-28_20-01-54_260595134347_rgbf000051-resize_4/002323_2014-06-28_20-01-54_260595134347_rgbf000051-resize_4-target.png,125,3.7310000000000003,5,1856,125,feet,jsons/VE125_randls_57_rotated.json,548592,633196,28,Man
3,980305,DepthScenes,duration_manipulation_targetAtFixation,jsons/VE125_randls_57_rotated.json,http://54.235.29.9/FacialAge/BNav_EC2/DepthDuration/v2_depth_duration_MTurk/v2_DepthDuration_HTML.html#306,306,984,800,1440,900,8-29-2022,13-29-37,4,depth_duration_stimuli/000917_2014-06-09_22-45-29_260595134347_rgbf000149-resize_3/000917_2014-06-09_22-45-29_260595134347_rgbf000149-resize_3-target.png,125,4.1865,6,1938,123,feet,jsons/VE125_randls_57_rotated.json,548592,633196,28,Man
4,980305,DepthScenes,duration_manipulation_targetAtFixation,jsons/VE125_randls_57_rotated.json,http://54.235.29.9/FacialAge/BNav_EC2/DepthDuration/v2_depth_duration_MTurk/v2_DepthDuration_HTML.html#306,306,984,800,1440,900,8-29-2022,13-29-37,5,depth_duration_stimuli/002136_2014-06-25_21-18-03_260595134347_rgbf000109-resize_3/002136_2014-06-25_21-18-03_260595134347_rgbf000109-resize_3-target.png,125,1.9569999999999999,3,1738,123,feet,jsons/VE125_randls_57_rotated.json,548592,633196,28,Man
5,980305,DepthScenes,duration_manipulation_targetAtFixation,jsons/VE125_randls_57_rotated.json,http://54.235.29.9/FacialAge/BNav_EC2/DepthDuration/v2_depth_duration_MTurk/v2_DepthDuration_HTML.html#306,306,984,800,1440,900,8-29-2022,13-29-37,6,depth_duration_stimuli/002964_2014-06-08_17-46-11_094959634447_rgbf000091-resize_4/002964_2014-06-08_17-46-11_094959634447_rgbf000091-resize_4-target.png,125,1.6909999999999998,3,1486,124,feet,jsons/VE125_randls_57_rotated.json,548592,633196,28,Man
6,980305,DepthScenes,duration_manipulation_targetAtFixation,jsons/VE125_randls_57_rotated.json,http://54.235.29.9/FacialAge/BNav_EC2/DepthDuration/v2_depth_duration_MTurk/v2_DepthDuration_HTML.html#306,306,984,800,1440,900,8-29-2022,13-29-37,7,depth_duration_stimuli/000691_2014-06-08_13-08-50_260595134347_rgbf000132-resize_3/000691_2014-06-08_13-08-50_260595134347_rgbf000132-resize_3-target.png,125,4.1530000000000005,6,2081,123,feet,jsons/VE125_randls_57_rotated.json,548592,633196,28,Man
7,980305,DepthScenes,duration_manipulation_targetAtFixation,jsons/VE125_randls_57_rotated.json,http://54.235.29.9/FacialAge/BNav_EC2/DepthDuration/v2_depth_duration_MTurk/v2_DepthDuration_HTML.html#306,306,984,800,1440,900,8-29-2022,13-29-37,8,depth_duration_stimuli/002213_2014-06-28_18-37-58_260595134347_rgbf000055-resize_1/002213_2014-06-28_18-37-58_260595134347_rgbf000055-resize_1-target.png,125,3.62,7,1760,125,feet,jsons/VE125_randls_57_rotated.json,548592,633196,28,Man
8,980305,DepthScenes,duration_manipulation_targetAtFixation,jsons/VE125_randls_57_rotated.json,http://54.235.29.9/FacialAge/BNav_EC2/DepthDuration/v2_depth_duration_MTurk/v2_DepthDuration_HTML.html#306,306,984,800,1440,900,8-29-2022,13-29-37,9,depth_duration_stimuli/000137_2014-05-20_17-04-49_260595134347_rgbf000120-resize_1/000137_2014-05-20_17-04-49_260595134347_rgbf000120-resize_1-target.png,125,3.786,5,1992,124,feet,jsons/VE125_randls_57_rotated.json,548592,633196,28,Man
9,980305,DepthScenes,duration_manipulation_targetAtFixation,jsons/VE125_randls_57_rotated.json,http://54.235.29.9/FacialAge/BNav_EC2/DepthDuration/v2_depth_duration_MTurk/v2_DepthDuration_HTML.html#306,306,984,800,1440,900,8-29-2022,13-29-37,10,depth_duration_stimuli/000736_2014-06-08_18-24-15_260595134347_rgbf000206-resize_3/000736_2014-06-08_18-24-15_260595134347_rgbf000206-resize_3-target.png,125,3.515,5,1763,126,feet,jsons/VE125_randls_57_rotated.json,548592,633196,28,Man
10,980305,DepthScenes,duration_manipulation_targetAtFixation,jsons/VE125_randls_57_rotated.json,http://54.235.29.9/FacialAge/BNav_EC2/DepthDuration/v2_depth_duration_MTurk/v2_DepthDuration_HTML.html#306,306,984,800,1440,900,8-29-2022,13-29-37,11,depth_duration_stimuli/000854_2014-06-09_19-43-13_260595134347_rgbf000066-resize_0/000854_2014-06-09_19-43-13_260595134347_rgbf000066-resize_0-target.png,125,3.068,5,1701,127,feet,jsons/VE125_randls_57_rotated.json,548592,633196,28,Man
11,980305,DepthScenes,duration_manipulation_targetAtFixation,jsons/VE125_randls_57_rotated.json,http://54.235.29.9/FacialAge/BNav_EC2/DepthDuration/v2_depth_duration_MTurk/v2_DepthDuration_HTML.html#306,306,984,800,1440,900,8-29-2022,13-29-37,12,depth_duration_stimuli/000758_2014-06-08_22-05-08_260595134347_rgbf000085-resize_0/000758_2014-06-08_22-05-08_260595134347_rgbf000085-resize_0-target.png,125,3.3810000000000002,8,3674,126,feet,jsons/VE125_randls_57_rotated.json,548592,633196,28,Man
12,980305,DepthScenes,duration_manipulation_targetAtFixation,jsons/VE125_randls_57_rotated.json,http://54.235.29.9/FacialAge/BNav_EC2/DepthDuration/v2_depth_duration_MTurk/v2_DepthDuration_HTML.html#306,306,984,800,1440,900,8-29-2022,13-29-37,13,depth_duration_stimuli/000866_2014-06-09_20-45-42_260595134347_rgbf000139-resize_1/000866_2014-06-09_20-45-42_260595134347_rgbf000139-resize_1-target.png,125,3.2155,4,1932,125,feet,jsons/VE125_randls_57_rotated.json,548592,633196,28,Man
13,980305,DepthScenes,duration_manipulation_targetAtFixation,jsons/VE125_randls_57_rotated.json,http://54.235.29.9/FacialAge/BNav_EC2/DepthDuration/v2_depth_duration_MTurk/v2_DepthDuration_HTML.html#306,306,984,800,1440,900,8-29-2022,13-29-37,14,depth_duration_stimuli/002989_2014-06-15_12-25-03_094959634447_rgbf000150-resize_3/002989_2014-06-15_12-25-03_094959634447_rgbf000150-resize_3-target.png,125,4.1975,10,2317,122,feet,jsons/VE125_randls_57_rotated.json,548592,633196,28,Man
14,980305,DepthScenes,duration_manipulation_targetAtFixation,jsons/VE125_randls_57_rotated.json,http://54.235.29.9/FacialAge/BNav_EC2/DepthDuration/v2_depth_duration_MTurk/v2_DepthDuration_HTML.html#306,306,984,800,1440,900,8-29-2022,13-29-37,15,depth_duration_stimuli/002425_2014-06-28_20-27-29_260595134347_rgbf000031-resize_8/002425_2014-06-28_20-27-29_260595134347_rgbf000031-resize_8-target.png,125,3.8960000000000004,8,3102,121,feet,jsons/VE125_randls_57_rotated.json,548592,633196,28,Man
15,980305,DepthScenes,duration_manipulation_targetAtFixation,jsons/VE125_randls_57_rotated.json,http://54.235.29.9/FacialAge/BNav_EC2/DepthDuration/v2_depth_duration_MTurk/v2_DepthDuration_HTML.html#306,306,984,800,1440,900,8-29-2022,13-29-37,16,depth_duration_stimuli/000642_2014-06-08_16-59-25_260595134347_rgbf000098-resize_2/000642_2014-06-08_16-59-25_260595134347_rgbf000098-resize_2-target.png,125,2.8815,3,4915,125,feet,jsons/VE125_randls_57_rotated.json,548592,633196,28,Man
16,980305,DepthScenes,duration_manipulation_targetAtFixation,jsons/VE125_randls_57_rotated.json,http://54.235.29.9/FacialAge/BNav_EC2/DepthDuration/v2_depth_duration_MTurk/v2_DepthDuration_HTML.html#306,306,984,800,1440,900,8-29-2022,13-29-37,17,depth_duration_stimuli/001094_2014-06-15_17-36-00_260595134347_rgbf000205-resize_0/001094_2014-06-15_17-36-00_260595134347_rgbf000205-resize_0-target.png,125,4.2175,4,4650,124,feet,jsons/VE125_randls_57_rotated.json,548592,633196,28,Man
17,980305,DepthScenes,duration_manipulation_targetAtFixation,jsons/VE125_randls_57_rotated.json,http://54.235.29.9/FacialAge/BNav_EC2/DepthDuration/v2_depth_duration_MTurk/v2_DepthDuration_HTML.html#306,306,984,800,1440,900,8-29-2022,13-29-37,18,depth_duration_stimuli/000692_2014-06-08_13-09-42_260595134347_rgbf000199-resize_2/000692_2014-06-08_13-09-42_260595134347_rgbf000199-resize_2-target.png,125,3.661,5,6981,125,feet,jsons/VE125_randls_57_rotated.json,548592,633196,28,Man
18,980305,DepthScenes,duration_manipulation_targetAtFixation,jsons/VE125_randls_57_rotated.json,http://54.235.29.9/FacialAge/BNav_EC2/DepthDuration/v2_depth_duration_MTurk/v2_DepthDuration_HTML.html#306,306,984,800,1440,900,8-29-2022,13-29-37,19,depth_duration_stimuli/001498_2014-06-19_17-45-14_260595134347_rgbf000129-resize_4/001498_2014-06-19_17-45-14_260595134347_rgbf000129-resize-original.jpg,125,1.4075,0,2280,124,feet,jsons/VE125_randls_57_rotated.json,548592,633196,28,Man
19,980305,DepthScenes,duration_manipulation_targetAtFixation,jsons/VE125_randls_57_rotated.json,http://54.235.29.9/FacialAge/BNav_EC2/DepthDuration/v2_depth_duration_MTurk/v2_DepthDuration_HTML.html#306,306,984,800,1440,900,8-29-2022,13-29-37,20,depth_duration_stimuli/001132_2014-06-17_14-48-54_260595134347_rgbf000100-resize_2/001132_2014-06-17_14-48-54_260595134347_rgbf000100-resize_2-target.png,125,3.753,5,11147,126,feet,jsons/VE125_randls_57_rotated.json,548592,633196,28,Man
20,980305,DepthScenes,duration_manipulation_targetAtFixation,jsons/VE125_randls_57_rotated.json,http://54.235.29.9/FacialAge/BNav_EC2/DepthDuration/v2_depth_duration_MTurk/v2_DepthDuration_HTML.html#306,306,984,800,1440,900,8-29-2022,13-29-37,21,depth_duration_stimuli/001133_2014-06-17_14-49-16_260595134347_rgbf000100-resize_0/001133_2014-06-17_14-49-16_260595134347_rgbf000100-resize_0-target.png,125,4.2115,6,2260,124,feet,jsons/VE125_randls_57_rotated.json,548592,633196,28,Man
21,980305,DepthScenes,duration_manipulation_targetAtFixation,jsons/VE125_randls_57_rotated.json,http://54.235.29.9/FacialAge/BNav_EC2/DepthDuration/v2_depth_duration_MTurk/v2_DepthDuration_HTML.html#306,306,984,800,1440,900,8-29-2022,13-29-37,22,depth_duration_stimuli/001450_2014-06-19_17-02-03_260595134347_rgbf000203-resize_4/001450_2014-06-19_17-02-03_260595134347_rgbf000203-resize_4-target.png,125,4.0106666666667,6,1954,125,feet,jsons/VE125_randls_57_rotated.json,548592,633196,28,Man
22,980305,DepthScenes,duration_manipulation_targetAtFixation,jsons/VE125_randls_57_rotated.json,http://54.235.29.9/FacialAge/BNav_EC2/DepthDuration/v2_depth_duration_MTurk/v2_DepthDuration_HTML.html#306,306,984,800,1440,900,8-29-2022,13-29-37,23,depth_duration_stimuli/001449_2014-06-19_17-01-27_260595134347_rgbf000116-resize_2/001449_2014-06-19_17-01-27_260595134347_rgbf000116-resize_2-target.png,125,3.452,0,2995,128,feet,jsons/VE125_randls_57_rotated.json,548592,633196,28,Man
23,980305,DepthScenes,duration_manipulation_targetAtFixation,jsons/VE125_randls_57_rotated.json,http://54.235.29.9/FacialAge/BNav_EC2/DepthDuration/v2_depth_duration_MTurk/v2_DepthDuration_HTML.html#306,306,984,800,1440,900,8-29-2022,13-29-37,24,depth_duration_stimuli/001584_2014-06-20_11-07-43_260595134347_rgbf000002-resize_1/001584_2014-06-20_11-07-43_260595134347_rgbf000002-resize_1-target.png,125,3.53,0,2316,124,feet,jsons/VE125_randls_57_rotated.json,548592,633196,28,Man
24,980305,DepthScenes,duration_manipulation_targetAtFixation,jsons/VE125_randls_57_rotated.json,http://54.235.29.9/FacialAge/BNav_EC2/DepthDuration/v2_depth_duration_MTurk/v2_DepthDuration_HTML.html#306,306,984,800,1440,900,8-29-2022,13-29-37,25,depth_duration_stimuli/003621_2014-05-23_18-06-08_094959634447_rgbf000101-resize_1/003621_2014-05-23_18-06-08_094959634447_rgbf000101-resize_1-target.png,125,3.9835,8,2069,124,feet,jsons/VE125_randls_57_rotated.json,548592,633196,28,Man
25,980305,DepthScenes,duration_manipulation_targetAtFixation,jsons/VE125_randls_57_rotated.json,http://54.235.29.9/FacialAge/BNav_EC2/DepthDuration/v2_depth_duration_MTurk/v2_DepthDuration_HTML.html#306,306,984,800,1440,900,8-29-2022,13-29-37,26,depth_duration_stimuli/000742_2014-06-08_18-48-09_260595134347_rgbf000164-resize_4/000742_2014-06-08_18-48-09_260595134347_rgbf000164-resize_4-target.png,125,4.632,6,2100,124,feet,jsons/VE125_randls_57_rotated.json,548592,633196,28,Man
26,980305,DepthScenes,duration_manipulation_targetAtFixation,jsons/VE125_randls_57_rotated.json,http://54.235.29.9/FacialAge/BNav_EC2/DepthDuration/v2_depth_duration_MTurk/v2_DepthDuration_HTML.html#306,306,984,800,1440,900,8-29-2022,13-29-37,27,depth_duration_stimuli/001066_2014-06-08_22-03-20_260595134347_rgbf000066-resize_4/001066_2014-06-08_22-03-20_260595134347_rgbf000066-resize_4-target.png,125,4.2330000000000005,8,2389,121,feet,jsons/VE125_randls_57_rotated.json,548592,633196,28,Man
27,980305,DepthScenes,duration_manipulation_targetAtFixation,jsons/VE125_randls_57_rotated.json,http://54.235.29.9/FacialAge/BNav_EC2/DepthDuration/v2_depth_duration_MTurk/v2_DepthDuration_HTML.html#306,306,984,800,1440,900,8-29-2022,13-29-37,28,depth_duration_stimuli/001136_2014-06-17_15-19-41_260595134347_rgbf000076-resize_3/001136_2014-06-17_15-19-41_260595134347_rgbf000076-resize_3-target.png,125,1.8655,0,1963,128,feet,jsons/VE125_randls_57_rotated.json,548592,633196,28,Man
28,980305,DepthScenes,duration_manipulation_targetAtFixation,jsons/VE125_randls_57_rotated.json,http://54.235.29.9/FacialAge/BNav_EC2/DepthDuration/v2_depth_duration_MTurk/v2_DepthDuration_HTML.html#306,306,984,800,1440,900,8-29-2022,13-29-37,29,depth_duration_stimuli/001164_2014-06-17_15-35-46_260595134347_rgbf000085-resize_3/001164_2014-06-17_15-35-46_260595134347_rgbf000085-resize_3-target.png,125,2.354,5,2157,125,feet,jsons/VE125_randls_57_rotated.json,548592,633196,28,Man
29,980305,DepthScenes,duration_manipulation_targetAtFixation,jsons/VE125_randls_57_rotated.json,http://54.235.29.9/FacialAge/BNav_EC2/DepthDuration/v2_depth_duration_MTurk/v2_DepthDuration_HTML.html#306,306,984,800,1440,900,8-29-2022,13-29-37,30,depth_duration_stimuli/002072_2014-06-24_21-48-06_260595134347_rgbf000115-resize_0/002072_2014-06-24_21-48-06_260595134347_rgbf000115-resize-original.jpg,125,4.702,0,1941,123,feet,jsons/VE125_randls_57_rotated.json,548592,633196,28,Man
30,980305,DepthScenes,duration_manipulation_targetAtFixation,jsons/VE125_randls_57_rotated.json,http://54.235.29.9/FacialAge/BNav_EC2/DepthDuration/v2_depth_duration_MTurk/v2_DepthDuration_HTML.html#306,306,984,800,1440,900,8-29-2022,13-29-37,31,depth_duration_stimuli/003587_2014-05-23_16-48-02_094959634447_rgbf002384-resize_2/003587_2014-05-23_16-48-02_094959634447_rgbf002384-resize_2-target.png,125,1.357,2,2112,120,feet,jsons/VE125_randls_57_rotated.json,548592,633196,28,Man
31,980305,DepthScenes,duration_manipulation_targetAtFixation,jsons/VE125_randls_57_rotated.json,http://54.235.29.9/FacialAge/BNav_EC2/DepthDuration/v2_depth_duration_MTurk/v2_DepthDuration_HTML.html#306,306,984,800,1440,900,8-29-2022,13-29-37,32,depth_duration_stimuli/001167_2014-06-17_15-38-07_260595134347_rgbf000108-resize_0/001167_2014-06-17_15-38-07_260595134347_rgbf000108-resize_0-target.png,125,1.8505,2,1452,129,feet,jsons/VE125_randls_57_rotated.json,548592,633196,28,Man
32,980305,DepthScenes,duration_manipulation_targetAtFixation,jsons/VE125_randls_57_rotated.json,http://54.235.29.9/FacialAge/BNav_EC2/DepthDuration/v2_depth_duration_MTurk/v2_DepthDuration_HTML.html#306,306,984,800,1440,900,8-29-2022,13-29-37,33,depth_duration_stimuli/002344_2014-06-28_20-06-29_260595134347_rgbf000030-resize_1/002344_2014-06-28_20-06-29_260595134347_rgbf000030-resize_1-target.png,125,1.5795,1,1468,124,feet,jsons/VE125_randls_57_rotated.json,548592,633196,28,Man
33,980305,DepthScenes,duration_manipulation_targetAtFixation,jsons/VE125_randls_57_rotated.json,http://54.235.29.9/FacialAge/BNav_EC2/DepthDuration/v2_depth_duration_MTurk/v2_DepthDuration_HTML.html#306,306,984,800,1440,900,8-29-2022,13-29-37,34,depth_duration_stimuli/002725_2014-06-22_11-47-51_094959634447_rgbf000070-resize_1/002725_2014-06-22_11-47-51_094959634447_rgbf000070-resize_1-target.png,125,2.195,3,1660,121,feet,jsons/VE125_randls_57_rotated.json,548592,633196,28,Man
34,980305,DepthScenes,duration_manipulation_targetAtFixation,jsons/VE125_randls_57_rotated.json,http://54.235.29.9/FacialAge/BNav_EC2/DepthDuration/v2_depth_duration_MTurk/v2_DepthDuration_HTML.html#306,306,984,800,1440,900,8-29-2022,13-29-37,35,depth_duration_stimuli/000749_2014-06-08_21-55-06_260595134347_rgbf000070-resize_2/000749_2014-06-08_21-55-06_260595134347_rgbf000070-resize_2-target.png,125,2.331,4,1772,120,feet,jsons/VE125_randls_57_rotated.json,548592,633196,28,Man
35,980305,DepthScenes,duration_manipulation_targetAtFixation,jsons/VE125_randls_57_rotated.json,http://54.235.29.9/FacialAge/BNav_EC2/DepthDuration/v2_depth_duration_MTurk/v2_DepthDuration_HTML.html#306,306,984,800,1440,900,8-29-2022,13-29-37,36,depth_duration_stimuli/002788_2014-06-22_19-36-03_094959634447_rgbf000088-resize_2/002788_2014-06-22_19-36-03_094959634447_rgbf000088-resize_2-target.png,125,1.6465,5,1618,126,feet,jsons/VE125_randls_57_rotated.json,548592,633196,28,Man
36,980305,DepthScenes,duration_manipulation_targetAtFixation,jsons/VE125_randls_57_rotated.json,http://54.235.29.9/FacialAge/BNav_EC2/DepthDuration/v2_depth_duration_MTurk/v2_DepthDuration_HTML.html#306,306,984,800,1440,900,8-29-2022,13-29-37,37,depth_duration_stimuli/002545_2014-06-24_13-38-53_094959634447_rgbf000080-resize_4/002545_2014-06-24_13-38-53_094959634447_rgbf000080-resize_4-target.png,125,1.9205,4,4460,123,feet,jsons/VE125_randls_57_rotated.json,548592,633196,28,Man
37,980305,DepthScenes,duration_manipulation_targetAtFixation,jsons/VE125_randls_57_rotated.json,http://54.235.29.9/FacialAge/BNav_EC2/DepthDuration/v2_depth_duration_MTurk/v2_DepthDuration_HTML.html#306,306,984,800,1440,900,8-29-2022,13-29-37,38,depth_duration_stimuli/001092_2014-06-15_17-34-58_260595134347_rgbf000171-resize_3/001092_2014-06-15_17-34-58_260595134347_rgbf000171-resize_3-target.png,125,2.6935,5,2702,126,feet,jsons/VE125_randls_57_rotated.json,548592,633196,28,Man
38,980305,DepthScenes,duration_manipulation_targetAtFixation,jsons/VE125_randls_57_rotated.json,http://54.235.29.9/FacialAge/BNav_EC2/DepthDuration/v2_depth_duration_MTurk/v2_DepthDuration_HTML.html#306,306,984,800,1440,900,8-29-2022,13-29-37,39,depth_duration_stimuli/002199_2014-06-28_18-33-56_260595134347_rgbf000074-resize_0/002199_2014-06-28_18-33-56_260595134347_rgbf000074-resize_0-target.png,125,1.996,1,1546,121,feet,jsons/VE125_randls_57_rotated.json,548592,633196,28,Man
39,980305,DepthScenes,duration_manipulation_targetAtFixation,jsons/VE125_randls_57_rotated.json,http://54.235.29.9/FacialAge/BNav_EC2/DepthDuration/v2_depth_duration_MTurk/v2_DepthDuration_HTML.html#306,306,984,800,1440,900,8-29-2022,13-29-37,40,depth_duration_stimuli/001056_2014-06-08_18-46-44_260595134347_rgbf000068-resize_0/001056_2014-06-08_18-46-44_260595134347_rgbf000068-resize_0-target.png,125,2.6625,1,1812,124,feet,jsons/VE125_randls_57_rotated.json,548592,633196,28,Man
40,980305,DepthScenes,duration_manipulation_targetAtFixation,jsons/VE125_randls_57_rotated.json,http://54.235.29.9/FacialAge/BNav_EC2/DepthDuration/v2_depth_duration_MTurk/v2_DepthDuration_HTML.html#306,306,984,800,1440,900,8-29-2022,13-29-37,41,depth_duration_stimuli/003495_2014-05-21_16-01-51_094959634447_rgbf000100-resize_3/003495_2014-05-21_16-01-51_094959634447_rgbf000100-resize_3-target.png,125,1.6255,2,1387,124,feet,jsons/VE125_randls_57_rotated.json,548592,633196,28,Man
41,980305,DepthScenes,duration_manipulation_targetAtFixation,jsons/VE125_randls_57_rotated.json,http://54.235.29.9/FacialAge/BNav_EC2/DepthDuration/v2_depth_duration_MTurk/v2_DepthDuration_HTML.html#306,306,984,800,1440,900,8-29-2022,13-29-37,42,depth_duration_stimuli/001244_2014-06-17_16-47-45_260595134347_rgbf000030-resize_4/001244_2014-06-17_16-47-45_260595134347_rgbf000030-resize_4-target.png,125,2.0425,3,1430,126,feet,jsons/VE125_randls_57_rotated.json,548592,633196,28,Man
42,980305,DepthScenes,duration_manipulation_targetAtFixation,jsons/VE125_randls_57_rotated.json,http://54.235.29.9/FacialAge/BNav_EC2/DepthDuration/v2_depth_duration_MTurk/v2_DepthDuration_HTML.html#306,306,984,800,1440,900,8-29-2022,13-29-37,43,depth_duration_stimuli/000483_2014-06-09_20-41-45_260595134347_rgbf000116-resize_4/000483_2014-06-09_20-41-45_260595134347_rgbf000116-resize_4-target.png,125,1.337,2,1686,123,feet,jsons/VE125_randls_57_rotated.json,548592,633196,28,Man
43,980305,DepthScenes,duration_manipulation_targetAtFixation,jsons/VE125_randls_57_rotated.json,http://54.235.29.9/FacialAge/BNav_EC2/DepthDuration/v2_depth_duration_MTurk/v2_DepthDuration_HTML.html#306,306,984,800,1440,900,8-29-2022,13-29-37,44,depth_duration_stimuli/000469_2014-06-09_19-42-10_260595134347_rgbf000081-resize_1/000469_2014-06-09_19-42-10_260595134347_rgbf000081-resize_1-target.png,125,1.652,2,1347,125,feet,jsons/VE125_randls_57_rotated.json,548592,633196,28,Man
44,980305,DepthScenes,duration_manipulation_targetAtFixation,jsons/VE125_randls_57_rotated.json,http://54.235.29.9/FacialAge/BNav_EC2/DepthDuration/v2_depth_duration_MTurk/v2_DepthDuration_HTML.html#306,306,984,800,1440,900,8-29-2022,13-29-37,45,depth_duration_stimuli/002750_2014-06-22_19-08-03_094959634447_rgbf000094-resize_4/002750_2014-06-22_19-08-03_094959634447_rgbf000094-resize_4-target.png,125,2.354,4,1629,128,feet,jsons/VE125_randls_57_rotated.json,548592,633196,28,Man
45,980305,DepthScenes,duration_manipulation_targetAtFixation,jsons/VE125_randls_57_rotated.json,http://54.235.29.9/FacialAge/BNav_EC2/DepthDuration/v2_depth_duration_MTurk/v2_DepthDuration_HTML.html#306,306,984,800,1440,900,8-29-2022,13-29-37,46,depth_duration_stimuli/002549_2014-06-24_13-41-39_094959634447_rgbf000022-resize_3/002549_2014-06-24_13-41-39_094959634447_rgbf000022-resize_3-target.png,125,1.476,4,5422,126,feet,jsons/VE125_randls_57_rotated.json,548592,633196,28,Man
46,980305,DepthScenes,duration_manipulation_targetAtFixation,jsons/VE125_randls_57_rotated.json,http://54.235.29.9/FacialAge/BNav_EC2/DepthDuration/v2_depth_duration_MTurk/v2_DepthDuration_HTML.html#306,306,984,800,1440,900,8-29-2022,13-29-37,47,depth_duration_stimuli/002467_2014-06-28_20-38-07_260595134347_rgbf000026-resize_2/002467_2014-06-28_20-38-07_260595134347_rgbf000026-resize_2-target.png,125,4.742,3,1678,125,feet,jsons/VE125_randls_57_rotated.json,548592,633196,28,Man
47,980305,DepthScenes,duration_manipulation_targetAtFixation,jsons/VE125_randls_57_rotated.json,http://54.235.29.9/FacialAge/BNav_EC2/DepthDuration/v2_depth_duration_MTurk/v2_DepthDuration_HTML.html#306,306,984,800,1440,900,8-29-2022,13-29-37,48,depth_duration_stimuli/002570_2014-06-24_13-59-54_094959634447_rgbf000059-resize_0/002570_2014-06-24_13-59-54_094959634447_rgbf000059-resize_0-target.png,125,4.037,4,15664,122,feet,jsons/VE125_randls_57_rotated.json,548592,633196,28,Man
48,980305,DepthScenes,duration_manipulation_targetAtFixation,jsons/VE125_randls_57_rotated.json,http://54.235.29.9/FacialAge/BNav_EC2/DepthDuration/v2_depth_duration_MTurk/v2_DepthDuration_HTML.html#306,306,882,800,1440,900,8-29-2022,13-29-37,49,depth_duration_stimuli/001170_2014-06-17_15-43-44_260595134347_rgbf000096-resize_6/001170_2014-06-17_15-43-44_260595134347_rgbf000096-resize-original.jpg,125,1.1909999999999998,4,4678,125,feet,jsons/VE125_randls_57_rotated.json,548592,633196,28,Man
49,980305,DepthScenes,duration_manipulation_targetAtFixation,jsons/VE125_randls_57_rotated.json,http://54.235.29.9/FacialAge/BNav_EC2/DepthDuration/v2_depth_duration_MTurk/v2_DepthDuration_HTML.html#306,306,882,800,1440,900,8-29-2022,13-29-37,50,depth_duration_stimuli/000780_2014-06-08_22-28-29_260595134347_rgbf000126-resize_1/000780_2014-06-08_22-28-29_260595134347_rgbf000126-resize_1-target.png,125,3.3825,5,2627,124,feet,jsons/VE125_randls_57_rotated.json,548592,633196,28,Man
50,980305,DepthScenes,duration_manipulation_targetAtFixation,jsons/VE125_randls_57_rotated.json,http://54.235.29.9/FacialAge/BNav_EC2/DepthDuration/v2_depth_duration_MTurk/v2_DepthDuration_HTML.html#306,306,882,800,1440,900,8-29-2022,13-29-37,51,depth_duration_stimuli/002445_2014-06-28_20-32-16_260595134347_rgbf000029-resize_4/002445_2014-06-28_20-32-16_260595134347_rgbf000029-resize_4-target.png,125,2.5315,4,2042,125,feet,jsons/VE125_randls_57_rotated.json,548592,633196,28,Man
51,980305,DepthScenes,duration_manipulation_targetAtFixation,jsons/VE125_randls_57_rotated.json,http://54.235.29.9/FacialAge/BNav_EC2/DepthDuration/v2_depth_duration_MTurk/v2_DepthDuration_HTML.html#306,306,882,800,1440,900,8-29-2022,13-29-37,52,depth_duration_stimuli/001235_2014-06-17_16-37-36_260595134347_rgbf000084-resize_4/001235_2014-06-17_16-37-36_260595134347_rgbf000084-resize_4-target.png,125,3.6605,5,2541,128,feet,jsons/VE125_randls_57_rotated.json,548592,633196,28,Man
52,980305,DepthScenes,duration_manipulation_targetAtFixation,jsons/VE125_randls_57_rotated.json,http://54.235.29.9/FacialAge/BNav_EC2/DepthDuration/v2_depth_duration_MTurk/v2_DepthDuration_HTML.html#306,306,882,800,1440,900,8-29-2022,13-29-37,53,depth_duration_stimuli/000788_2014-06-08_22-34-36_260595134347_rgbf000131-resize_1/000788_2014-06-08_22-34-36_260595134347_rgbf000131-resize_1-target.png,125,3.359,6,1851,121,feet,jsons/VE125_randls_57_rotated.json,548592,633196,28,Man
53,980305,DepthScenes,duration_manipulation_targetAtFixation,jsons/VE125_randls_57_rotated.json,http://54.235.29.9/FacialAge/BNav_EC2/DepthDuration/v2_depth_duration_MTurk/v2_DepthDuration_HTML.html#306,306,882,800,1440,900,8-29-2022,13-29-37,54,depth_duration_stimuli/000943_2014-06-09_19-31-07_260595134347_rgbf000128-resize_1/000943_2014-06-09_19-31-07_260595134347_rgbf000128-resize_1-target.png,125,1.9765,5,2029,127,feet,jsons/VE125_randls_57_rotated.json,548592,633196,28,Man
54,980305,DepthScenes,duration_manipulation_targetAtFixation,jsons/VE125_randls_57_rotated.json,http://54.235.29.9/FacialAge/BNav_EC2/DepthDuration/v2_depth_duration_MTurk/v2_DepthDuration_HTML.html#306,306,882,800,1440,900,8-29-2022,13-29-37,55,depth_duration_stimuli/003070_2014-06-15_14-58-27_094959634447_rgbf000150-resize_3/003070_2014-06-15_14-58-27_094959634447_rgbf000150-resize_3-target.png,125,2.9415,0,2036,122,feet,jsons/VE125_randls_57_rotated.json,548592,633196,28,Man
55,980305,DepthScenes,duration_manipulation_targetAtFixation,jsons/VE125_randls_57_rotated.json,http://54.235.29.9/FacialAge/BNav_EC2/DepthDuration/v2_depth_duration_MTurk/v2_DepthDuration_HTML.html#306,306,882,800,1440,900,8-29-2022,13-29-37,56,depth_duration_stimuli/003081_2014-06-15_15-19-16_094959634447_rgbf000150-resize_1/003081_2014-06-15_15-19-16_094959634447_rgbf000150-resize_1-target.png,125,3.9125,7,2077,125,feet,jsons/VE125_randls_57_rotated.json,548592,633196,28,Man
56,980305,DepthScenes,duration_manipulation_targetAtFixation,jsons/VE125_randls_57_rotated.json,http://54.235.29.9/FacialAge/BNav_EC2/DepthDuration/v2_depth_duration_MTurk/v2_DepthDuration_HTML.html#306,306,882,800,1440,900,8-29-2022,13-29-37,57,depth_duration_stimuli/001417_2014-06-19_16-25-36_260595134347_rgbf000115-resize_5/001417_2014-06-19_16-25-36_260595134347_rgbf000115-resize_5-target.png,125,4.6255,0,2468,126,feet,jsons/VE125_randls_57_rotated.json,548592,633196,28,Man
57,980305,DepthScenes,duration_manipulation_targetAtFixation,jsons/VE125_randls_57_rotated.json,http://54.235.29.9/FacialAge/BNav_EC2/DepthDuration/v2_depth_duration_MTurk/v2_DepthDuration_HTML.html#306,306,882,800,1440,900,8-29-2022,13-29-37,58,depth_duration_stimuli/002875_2014-06-01_15-19-00_094959634447_rgbf000151-resize_1/002875_2014-06-01_15-19-00_094959634447_rgbf000151-resize_1-target.png,125,1.9675,8,2323,126,feet,jsons/VE125_randls_57_rotated.json,548592,633196,28,Man
58,980305,DepthScenes,duration_manipulation_targetAtFixation,jsons/VE125_randls_57_rotated.json,http://54.235.29.9/FacialAge/BNav_EC2/DepthDuration/v2_depth_duration_MTurk/v2_DepthDuration_HTML.html#306,306,882,800,1440,900,8-29-2022,13-29-37,59,depth_duration_stimuli/001011_2014-06-08_23-18-54_260595134347_rgbf000044-resize_4/001011_2014-06-08_23-18-54_260595134347_rgbf000044-resize_4-target.png,125,2.4730000000000003,8,2334,125,feet,jsons/VE125_randls_57_rotated.json,548592,633196,28,Man
59,980305,DepthScenes,duration_manipulation_targetAtFixation,jsons/VE125_randls_57_rotated.json,http://54.235.29.9/FacialAge/BNav_EC2/DepthDuration/v2_depth_duration_MTurk/v2_DepthDuration_HTML.html#306,306,882,800,1440,900,8-29-2022,13-29-37,60,depth_duration_stimuli/003228_2014-05-14_13-42-35_094959634447_rgbf000101-resize_1/003228_2014-05-14_13-42-35_094959634447_rgbf000101-resize_1-target.png,125,1.9680000000000002,6,2169,122,feet,jsons/VE125_randls_57_rotated.json,548592,633196,28,Man
60,980305,DepthScenes,duration_manipulation_targetAtFixation,jsons/VE125_randls_57_rotated.json,http://54.235.29.9/FacialAge/BNav_EC2/DepthDuration/v2_depth_duration_MTurk/v2_DepthDuration_HTML.html#306,306,882,800,1440,900,8-29-2022,13-29-37,61,depth_duration_stimuli/002600_2014-06-24_14-27-04_094959634447_rgbf000074-resize_2/002600_2014-06-24_14-27-04_094959634447_rgbf000074-resize_2-target.png,125,2.7575,6,1943,125,feet,jsons/VE125_randls_57_rotated.json,548592,633196,28,Man
61,980305,DepthScenes,duration_manipulation_targetAtFixation,jsons/VE125_randls_57_rotated.json,http://54.235.29.9/FacialAge/BNav_EC2/DepthDuration/v2_depth_duration_MTurk/v2_DepthDuration_HTML.html#306,306,882,800,1440,900,8-29-2022,13-29-37,62,depth_duration_stimuli/002660_2014-06-13_15-44-18_094959634447_rgbf001878-resize_2/002660_2014-06-13_15-44-18_094959634447_rgbf001878-resize_2-target.png,125,3.576,7,2094,122,feet,jsons/VE125_randls_57_rotated.json,548592,633196,28,Man
62,980305,DepthScenes,duration_manipulation_targetAtFixation,jsons/VE125_randls_57_rotated.json,http://54.235.29.9/FacialAge/BNav_EC2/DepthDuration/v2_depth_duration_MTurk/v2_DepthDuration_HTML.html#306,306,882,800,1440,900,8-29-2022,13-29-37,63,depth_duration_stimuli/002153_2014-06-25_21-27-18_260595134347_rgbf000038-resize_5/002153_2014-06-25_21-27-18_260595134347_rgbf000038-resize_5-target.png,125,2.505,6,3500,126,feet,jsons/VE125_randls_57_rotated.json,548592,633196,28,Man
63,980305,DepthScenes,duration_manipulation_targetAtFixation,jsons/VE125_randls_57_rotated.json,http://54.235.29.9/FacialAge/BNav_EC2/DepthDuration/v2_depth_duration_MTurk/v2_DepthDuration_HTML.html#306,306,882,800,1440,900,8-29-2022,13-29-37,64,depth_duration_stimuli/002637_2014-06-24_14-51-13_094959634447_rgbf000066-resize_4/002637_2014-06-24_14-51-13_094959634447_rgbf000066-resize_4-target.png,125,1.9955,9,2224,124,feet,jsons/VE125_randls_57_rotated.json,548592,633196,28,Man
64,980305,DepthScenes,duration_manipulation_targetAtFixation,jsons/VE125_randls_57_rotated.json,http://54.235.29.9/FacialAge/BNav_EC2/DepthDuration/v2_depth_duration_MTurk/v2_DepthDuration_HTML.html#306,306,882,800,1440,900,8-29-2022,13-29-37,65,depth_duration_stimuli/003534_2014-05-22_15-06-10_094959634447_rgbf000102-resize_4/003534_2014-05-22_15-06-10_094959634447_rgbf000102-resize_4-target.png,125,1.426,5,3844,124,feet,jsons/VE125_randls_57_rotated.json,548592,633196,28,Man
65,980305,DepthScenes,duration_manipulation_targetAtFixation,jsons/VE125_randls_57_rotated.json,http://54.235.29.9/FacialAge/BNav_EC2/DepthDuration/v2_depth_duration_MTurk/v2_DepthDuration_HTML.html#306,306,882,800,1440,900,8-29-2022,13-29-37,66,depth_duration_stimuli/001540_2014-06-20_17-01-05_260595134347_rgbf000086-resize_2/001540_2014-06-20_17-01-05_260595134347_rgbf000086-resize-original.jpg,125,1.459,0,2085,124,feet,jsons/VE125_randls_57_rotated.json,548592,633196,28,Man
66,980305,DepthScenes,duration_manipulation_targetAtFixation,jsons/VE125_randls_57_rotated.json,http://54.235.29.9/FacialAge/BNav_EC2/DepthDuration/v2_depth_duration_MTurk/v2_DepthDuration_HTML.html#306,306,882,800,1440,900,8-29-2022,13-29-37,67,depth_duration_stimuli/000677_2014-06-08_23-10-32_260595134347_rgbf000158-resize_6/000677_2014-06-08_23-10-32_260595134347_rgbf000158-resize_6-target.png,125,3.556,0,2210,126,feet,jsons/VE125_randls_57_rotated.json,548592,633196,28,Man
67,980305,DepthScenes,duration_manipulation_targetAtFixation,jsons/VE125_randls_57_rotated.json,http://54.235.29.9/FacialAge/BNav_EC2/DepthDuration/v2_depth_duration_MTurk/v2_DepthDuration_HTML.html#306,306,882,800,1440,900,8-29-2022,13-29-37,68,depth_duration_stimuli/001029_2014-06-08_13-17-57_260595134347_rgbf000065-resize_1/001029_2014-06-08_13-17-57_260595134347_rgbf000065-resize_1-target.png,125,3.0835,3,2212,127,feet,jsons/VE125_randls_57_rotated.json,548592,633196,28,Man
68,980305,DepthScenes,duration_manipulation_targetAtFixation,jsons/VE125_randls_57_rotated.json,http://54.235.29.9/FacialAge/BNav_EC2/DepthDuration/v2_depth_duration_MTurk/v2_DepthDuration_HTML.html#306,306,882,800,1440,900,8-29-2022,13-29-37,69,depth_duration_stimuli/002340_2014-06-28_20-05-46_260595134347_rgbf000113-resize_0/002340_2014-06-28_20-05-46_260595134347_rgbf000113-resize_0-target.png,125,2.4735,3,3993,124,feet,jsons/VE125_randls_57_rotated.json,548592,633196,28,Man
69,980305,DepthScenes,duration_manipulation_targetAtFixation,jsons/VE125_randls_57_rotated.json,http://54.235.29.9/FacialAge/BNav_EC2/DepthDuration/v2_depth_duration_MTurk/v2_DepthDuration_HTML.html#306,306,882,800,1440,900,8-29-2022,13-29-37,70,depth_duration_stimuli/001016_2014-06-09_16-16-10_260595134347_rgbf000112-resize_5/001016_2014-06-09_16-16-10_260595134347_rgbf000112-resize_5-target.png,125,1.6565,5,1893,124,feet,jsons/VE125_randls_57_rotated.json,548592,633196,28,Man
70,980305,DepthScenes,duration_manipulation_targetAtFixation,jsons/VE125_randls_57_rotated.json,http://54.235.29.9/FacialAge/BNav_EC2/DepthDuration/v2_depth_duration_MTurk/v2_DepthDuration_HTML.html#306,306,882,800,1440,900,8-29-2022,13-29-37,71,depth_duration_stimuli/000191_2014-05-12_17-07-38_260595134347_rgbf000199-resize_0/000191_2014-05-12_17-07-38_260595134347_rgbf000199-resize_0-target.png,125,3.7995,0,2503,122,feet,jsons/VE125_randls_57_rotated.json,548592,633196,28,Man
71,980305,DepthScenes,duration_manipulation_targetAtFixation,jsons/VE125_randls_57_rotated.json,http://54.235.29.9/FacialAge/BNav_EC2/DepthDuration/v2_depth_duration_MTurk/v2_DepthDuration_HTML.html#306,306,882,800,1440,900,8-29-2022,13-29-37,72,depth_duration_stimuli/000493_2014-06-09_21-01-18_260595134347_rgbf000196-resize_3/000493_2014-06-09_21-01-18_260595134347_rgbf000196-resize_3-target.png,125,3.44,0,2155,126,feet,jsons/VE125_randls_57_rotated.json,548592,633196,28,Man
72,980305,DepthScenes,duration_manipulation_targetAtFixation,jsons/VE125_randls_57_rotated.json,http://54.235.29.9/FacialAge/BNav_EC2/DepthDuration/v2_depth_duration_MTurk/v2_DepthDuration_HTML.html#306,306,882,800,1440,900,8-29-2022,13-29-37,73,depth_duration_stimuli/003423_2014-05-21_10-23-26_094959634447_rgbf002665-resize_2/003423_2014-05-21_10-23-26_094959634447_rgbf002665-resize_2-target.png,125,3.2575,7,2103,124,feet,jsons/VE125_randls_57_rotated.json,548592,633196,28,Man
73,980305,DepthScenes,duration_manipulation_targetAtFixation,jsons/VE125_randls_57_rotated.json,http://54.235.29.9/FacialAge/BNav_EC2/DepthDuration/v2_depth_duration_MTurk/v2_DepthDuration_HTML.html#306,306,882,800,1440,900,8-29-2022,13-29-37,74,depth_duration_stimuli/002905_2014-06-03_18-04-43_094959634447_rgbf000151-resize_2/002905_2014-06-03_18-04-43_094959634447_rgbf000151-resize_2-target.png,125,2.0295,5,2729,127,feet,jsons/VE125_randls_57_rotated.json,548592,633196,28,Man
74,980305,DepthScenes,duration_manipulation_targetAtFixation,jsons/VE125_randls_57_rotated.json,http://54.235.29.9/FacialAge/BNav_EC2/DepthDuration/v2_depth_duration_MTurk/v2_DepthDuration_HTML.html#306,306,882,800,1440,900,8-29-2022,13-29-37,75,depth_duration_stimuli/001815_2014-06-26_20-52-55_260595134347_rgbf000020-resize_0/001815_2014-06-26_20-52-55_260595134347_rgbf000020-resize_0-target.png,125,3.3865,0,2746,120,feet,jsons/VE125_randls_57_rotated.json,548592,633196,28,Man
75,980305,DepthScenes,duration_manipulation_targetAtFixation,jsons/VE125_randls_57_rotated.json,http://54.235.29.9/FacialAge/BNav_EC2/DepthDuration/v2_depth_duration_MTurk/v2_DepthDuration_HTML.html#306,306,882,800,1440,900,8-29-2022,13-29-37,76,depth_duration_stimuli/001808_2014-06-26_20-50-58_260595134347_rgbf000029-resize_1/001808_2014-06-26_20-50-58_260595134347_rgbf000029-resize_1-target.png,125,4.249,8,1913,125,feet,jsons/VE125_randls_57_rotated.json,548592,633196,28,Man
76,980305,DepthScenes,duration_manipulation_targetAtFixation,jsons/VE125_randls_57_rotated.json,http://54.235.29.9/FacialAge/BNav_EC2/DepthDuration/v2_depth_duration_MTurk/v2_DepthDuration_HTML.html#306,306,882,800,1440,900,8-29-2022,13-29-37,77,depth_duration_stimuli/003490_2014-05-21_15-50-11_094959634447_rgbf000101-resize_3/003490_2014-05-21_15-50-11_094959634447_rgbf000101-resize_3-target.png,125,3.6445,0,2187,126,feet,jsons/VE125_randls_57_rotated.json,548592,633196,28,Man
77,980305,DepthScenes,duration_manipulation_targetAtFixation,jsons/VE125_randls_57_rotated.json,http://54.235.29.9/FacialAge/BNav_EC2/DepthDuration/v2_depth_duration_MTurk/v2_DepthDuration_HTML.html#306,306,882,800,1440,900,8-29-2022,13-29-37,78,depth_duration_stimuli/001175_2014-06-17_15-45-55_260595134347_rgbf000129-resize_4/001175_2014-06-17_15-45-55_260595134347_rgbf000129-resize_4-target.png,125,4.255,0,2570,126,feet,jsons/VE125_randls_57_rotated.json,548592,633196,28,Man
78,980305,DepthScenes,duration_manipulation_targetAtFixation,jsons/VE125_randls_57_rotated.json,http://54.235.29.9/FacialAge/BNav_EC2/DepthDuration/v2_depth_duration_MTurk/v2_DepthDuration_HTML.html#306,306,882,800,1440,900,8-29-2022,13-29-37,79,depth_duration_stimuli/000709_2014-06-08_13-51-55_260595134347_rgbf000068-resize_3/000709_2014-06-08_13-51-55_260595134347_rgbf000068-resize_3-target.png,125,1.8030000000000002,0,2840,126,feet,jsons/VE125_randls_57_rotated.json,548592,633196,28,Man
79,980305,DepthScenes,duration_manipulation_targetAtFixation,jsons/VE125_randls_57_rotated.json,http://54.235.29.9/FacialAge/BNav_EC2/DepthDuration/v2_depth_duration_MTurk/v2_DepthDuration_HTML.html#306,306,882,800,1440,900,8-29-2022,13-29-37,80,depth_duration_stimuli/002057_2014-06-24_21-00-13_260595134347_rgbf000120-resize_1/002057_2014-06-24_21-00-13_260595134347_rgbf000120-resize_1-target.png,125,2.967,6,1782,126,feet,jsons/VE125_randls_57_rotated.json,548592,633196,28,Man
80,980305,DepthScenes,duration_manipulation_targetAtFixation,jsons/VE125_randls_57_rotated.json,http://54.235.29.9/FacialAge/BNav_EC2/DepthDuration/v2_depth_duration_MTurk/v2_DepthDuration_HTML.html#306,306,882,800,1440,900,8-29-2022,13-29-37,81,depth_duration_stimuli/000457_2014-06-08_16-52-43_260595134347_rgbf000199-resize_1/000457_2014-06-08_16-52-43_260595134347_rgbf000199-resize_1-target.png,125,3.6489999999999996,5,3337,126,feet,jsons/VE125_randls_57_rotated.json,548592,633196,28,Man
81,980305,DepthScenes,duration_manipulation_targetAtFixation,jsons/VE125_randls_57_rotated.json,http://54.235.29.9/FacialAge/BNav_EC2/DepthDuration/v2_depth_duration_MTurk/v2_DepthDuration_HTML.html#306,306,882,800,1440,900,8-29-2022,13-29-37,82,depth_duration_stimuli/000929_2014-06-09_16-33-19_260595134347_rgbf000139-resize_0/000929_2014-06-09_16-33-19_260595134347_rgbf000139-resize_0-target.png,125,2.8680000000000003,4,2096,128,feet,jsons/VE125_randls_57_rotated.json,548592,633196,28,Man
82,980305,DepthScenes,duration_manipulation_targetAtFixation,jsons/VE125_randls_57_rotated.json,http://54.235.29.9/FacialAge/BNav_EC2/DepthDuration/v2_depth_duration_MTurk/v2_DepthDuration_HTML.html#306,306,882,800,1440,900,8-29-2022,13-29-37,83,depth_duration_stimuli/003010_2014-06-15_12-54-35_094959634447_rgbf000112-resize_0/003010_2014-06-15_12-54-35_094959634447_rgbf000112-resize_0-target.png,125,3.1185,5,3301,125,feet,jsons/VE125_randls_57_rotated.json,548592,633196,28,Man
83,980305,DepthScenes,duration_manipulation_targetAtFixation,jsons/VE125_randls_57_rotated.json,http://54.235.29.9/FacialAge/BNav_EC2/DepthDuration/v2_depth_duration_MTurk/v2_DepthDuration_HTML.html#306,306,882,800,1440,900,8-29-2022,13-29-37,84,depth_duration_stimuli/001810_2014-06-26_20-51-35_260595134347_rgbf000040-resize_3/001810_2014-06-26_20-51-35_260595134347_rgbf000040-resize_3-target.png,125,2.2525,5,2494,125,feet,jsons/VE125_randls_57_rotated.json,548592,633196,28,Man
84,980305,DepthScenes,duration_manipulation_targetAtFixation,jsons/VE125_randls_57_rotated.json,http://54.235.29.9/FacialAge/BNav_EC2/DepthDuration/v2_depth_duration_MTurk/v2_DepthDuration_HTML.html#306,306,882,800,1440,900,8-29-2022,13-29-37,85,depth_duration_stimuli/000927_2014-06-09_16-32-30_260595134347_rgbf000123-resize_3/000927_2014-06-09_16-32-30_260595134347_rgbf000123-resize_3-target.png,125,2.6785,6,3051,122,feet,jsons/VE125_randls_57_rotated.json,548592,633196,28,Man
85,980305,DepthScenes,duration_manipulation_targetAtFixation,jsons/VE125_randls_57_rotated.json,http://54.235.29.9/FacialAge/BNav_EC2/DepthDuration/v2_depth_duration_MTurk/v2_DepthDuration_HTML.html#306,306,882,800,1440,900,8-29-2022,13-29-37,86,depth_duration_stimuli/001110_2014-06-15_17-25-28_260595134347_rgbf000150-resize_1/001110_2014-06-15_17-25-28_260595134347_rgbf000150-resize_1-target.png,125,1.7115,5,2143,121,feet,jsons/VE125_randls_57_rotated.json,548592,633196,28,Man
86,980305,DepthScenes,duration_manipulation_targetAtFixation,jsons/VE125_randls_57_rotated.json,http://54.235.29.9/FacialAge/BNav_EC2/DepthDuration/v2_depth_duration_MTurk/v2_DepthDuration_HTML.html#306,306,882,800,1440,900,8-29-2022,13-29-37,87,depth_duration_stimuli/002949_2014-06-26_15-57-42_094959634447_rgbf000079-resize_1/002949_2014-06-26_15-57-42_094959634447_rgbf000079-resize_1-target.png,125,1.8915,6,4614,124,feet,jsons/VE125_randls_57_rotated.json,548592,633196,28,Man
87,980305,DepthScenes,duration_manipulation_targetAtFixation,jsons/VE125_randls_57_rotated.json,http://54.235.29.9/FacialAge/BNav_EC2/DepthDuration/v2_depth_duration_MTurk/v2_DepthDuration_HTML.html#306,306,882,800,1440,900,8-29-2022,13-29-37,88,depth_duration_stimuli/000522_2014-06-08_13-35-06_260595134347_rgbf000244-resize_1/000522_2014-06-08_13-35-06_260595134347_rgbf000244-resize_1-target.png,125,2.3715,0,2441,121,feet,jsons/VE125_randls_57_rotated.json,548592,633196,28,Man
88,980305,DepthScenes,duration_manipulation_targetAtFixation,jsons/VE125_randls_57_rotated.json,http://54.235.29.9/FacialAge/BNav_EC2/DepthDuration/v2_depth_duration_MTurk/v2_DepthDuration_HTML.html#306,306,882,800,1440,900,8-29-2022,13-29-37,89,depth_duration_stimuli/001032_2014-06-08_13-23-17_260595134347_rgbf000021-resize_3/001032_2014-06-08_13-23-17_260595134347_rgbf000021-resize_3-target.png,125,3.2725,5,4190,124,feet,jsons/VE125_randls_57_rotated.json,548592,633196,28,Man
89,980305,DepthScenes,duration_manipulation_targetAtFixation,jsons/VE125_randls_57_rotated.json,http://54.235.29.9/FacialAge/BNav_EC2/DepthDuration/v2_depth_duration_MTurk/v2_DepthDuration_HTML.html#306,306,882,800,1440,900,8-29-2022,13-29-37,90,depth_duration_stimuli/001059_2014-06-08_21-53-27_260595134347_rgbf000061-resize_4/001059_2014-06-08_21-53-27_260595134347_rgbf000061-resize_4-target.png,125,2.4185,4,1977,124,feet,jsons/VE125_randls_57_rotated.json,548592,633196,28,Man
90,980305,DepthScenes,duration_manipulation_targetAtFixation,jsons/VE125_randls_57_rotated.json,http://54.235.29.9/FacialAge/BNav_EC2/DepthDuration/v2_depth_duration_MTurk/v2_DepthDuration_HTML.html#306,306,882,800,1440,900,8-29-2022,13-29-37,91,depth_duration_stimuli/001650_2014-06-20_12-09-00_260595134347_rgbf000087-resize_3/001650_2014-06-20_12-09-00_260595134347_rgbf000087-resize_3-target.png,125,1.9505,3,1737,122,feet,jsons/VE125_randls_57_rotated.json,548592,633196,28,Man
91,980305,DepthScenes,duration_manipulation_targetAtFixation,jsons/VE125_randls_57_rotated.json,http://54.235.29.9/FacialAge/BNav_EC2/DepthDuration/v2_depth_duration_MTurk/v2_DepthDuration_HTML.html#306,306,882,800,1440,900,8-29-2022,13-29-37,92,depth_duration_stimuli/000682_2014-06-08_23-14-58_260595134347_rgbf000041-resize_5/000682_2014-06-08_23-14-58_260595134347_rgbf000041-resize_5-target.png,125,2.7239999999999998,5,3449,128,feet,jsons/VE125_randls_57_rotated.json,548592,633196,28,Man
92,980305,DepthScenes,duration_manipulation_targetAtFixation,jsons/VE125_randls_57_rotated.json,http://54.235.29.9/FacialAge/BNav_EC2/DepthDuration/v2_depth_duration_MTurk/v2_DepthDuration_HTML.html#306,306,882,800,1440,900,8-29-2022,13-29-37,93,depth_duration_stimuli/003338_2014-05-20_11-01-23_094959634447_rgbf000051-resize_6/003338_2014-05-20_11-01-23_094959634447_rgbf000051-resize_6-target.png,125,1.693,4,1934,126,feet,jsons/VE125_randls_57_rotated.json,548592,633196,28,Man
93,980305,DepthScenes,duration_manipulation_targetAtFixation,jsons/VE125_randls_57_rotated.json,http://54.235.29.9/FacialAge/BNav_EC2/DepthDuration/v2_depth_duration_MTurk/v2_DepthDuration_HTML.html#306,306,882,800,1440,900,8-29-2022,13-29-37,94,depth_duration_stimuli/002509_2014-06-24_13-19-22_094959634447_rgbf000077-resize_0/002509_2014-06-24_13-19-22_094959634447_rgbf000077-resize_0-target.png,125,1.3065,4,2517,124,feet,jsons/VE125_randls_57_rotated.json,548592,633196,28,Man
94,980305,DepthScenes,duration_manipulation_targetAtFixation,jsons/VE125_randls_57_rotated.json,http://54.235.29.9/FacialAge/BNav_EC2/DepthDuration/v2_depth_duration_MTurk/v2_DepthDuration_HTML.html#306,306,882,800,1440,900,8-29-2022,13-29-37,95,depth_duration_stimuli/001214_2014-06-17_16-13-55_260595134347_rgbf000111-resize_0/001214_2014-06-17_16-13-55_260595134347_rgbf000111-resize_0-target.png,125,2.6505,4,2574,120,feet,jsons/VE125_randls_57_rotated.json,548592,633196,28,Man
95,980305,DepthScenes,duration_manipulation_targetAtFixation,jsons/VE125_randls_57_rotated.json,http://54.235.29.9/FacialAge/BNav_EC2/DepthDuration/v2_depth_duration_MTurk/v2_DepthDuration_HTML.html#306,306,882,800,1440,900,8-29-2022,13-29-37,96,depth_duration_stimuli/000810_2014-06-08_17-20-01_260595134347_rgbf000105-resize_0/000810_2014-06-08_17-20-01_260595134347_rgbf000105-resize_0-target.png,125,1.4865,4,1947,124,feet,jsons/VE125_randls_57_rotated.json,548592,633196,28,Man
96,980305,DepthScenes,duration_manipulation_targetAtFixation,jsons/VE125_randls_57_rotated.json,http://54.235.29.9/FacialAge/BNav_EC2/DepthDuration/v2_depth_duration_MTurk/v2_DepthDuration_HTML.html#306,306,882,800,1440,900,8-29-2022,13-29-37,97,depth_duration_stimuli/000502_2014-06-08_23-02-32_260595134347_rgbf000063-resize_4/000502_2014-06-08_23-02-32_260595134347_rgbf000063-resize_4-target.png,125,2.431,3,1765,127,feet,jsons/VE125_randls_57_rotated.json,548592,633196,28,Man
97,980305,DepthScenes,duration_manipulation_targetAtFixation,jsons/VE125_randls_57_rotated.json,http://54.235.29.9/FacialAge/BNav_EC2/DepthDuration/v2_depth_duration_MTurk/v2_DepthDuration_HTML.html#306,306,882,800,1440,900,8-29-2022,13-29-37,98,depth_duration_stimuli/001199_2014-06-17_16-03-48_260595134347_rgbf000077-resize_0/001199_2014-06-17_16-03-48_260595134347_rgbf000077-resize_0-target.png,125,3.4375,5,2160,125,feet,jsons/VE125_randls_57_rotated.json,548592,633196,28,Man
98,980305,DepthScenes,duration_manipulation_targetAtFixation,jsons/VE125_randls_57_rotated.json,http://54.235.29.9/FacialAge/BNav_EC2/DepthDuration/v2_depth_duration_MTurk/v2_DepthDuration_HTML.html#306,306,882,800,1440,900,8-29-2022,13-29-37,99,depth_duration_stimuli/001222_2014-06-17_16-24-06_260595134347_rgbf000073-resize_0/001222_2014-06-17_16-24-06_260595134347_rgbf000073-resize-original.jpg,125,1.4385,5,7262,122,feet,jsons/VE125_randls_57_rotated.json,548592,633196,28,Man
99,980305,DepthScenes,duration_manipulation_targetAtFixation,jsons/VE125_randls_57_rotated.json,http://54.235.29.9/FacialAge/BNav_EC2/DepthDuration/v2_depth_duration_MTurk/v2_DepthDuration_HTML.html#306,306,882,800,1440,900,8-29-2022,13-29-37,100,depth_duration_stimuli/003083_2014-06-15_15-21-03_094959634447_rgbf000063-resize_1/003083_2014-06-15_15-21-03_094959634447_rgbf000063-resize_1-target.png,125,4.1405,0,2803,126,feet,jsons/VE125_randls_57_rotated.json,548592,633196,28,Man
100,980305,DepthScenes,duration_manipulation_targetAtFixation,jsons/VE125_randls_57_rotated.json,http://54.235.29.9/FacialAge/BNav_EC2/DepthDuration/v2_depth_duration_MTurk/v2_DepthDuration_HTML.html#306,306,882,800,1440,900,8-29-2022,13-29-37,101,depth_duration_stimuli/000486_2014-06-09_20-47-20_260595134347_rgbf000143-resize_2/000486_2014-06-09_20-47-20_260595134347_rgbf000143-resize_2-target.png,125,4.8325,0,2517,124,feet,jsons/VE125_randls_57_rotated.json,548592,633196,28,Man
101,980305,DepthScenes,duration_manipulation_targetAtFixation,jsons/VE125_randls_57_rotated.json,http://54.235.29.9/FacialAge/BNav_EC2/DepthDuration/v2_depth_duration_MTurk/v2_DepthDuration_HTML.html#306,306,882,800,1440,900,8-29-2022,13-29-37,102,depth_duration_stimuli/002568_2014-06-24_13-59-21_094959634447_rgbf000062-resize_4/002568_2014-06-24_13-59-21_094959634447_rgbf000062-resize_4-target.png,125,3.015,8,2228,124,feet,jsons/VE125_randls_57_rotated.json,548592,633196,28,Man
102,980305,DepthScenes,duration_manipulation_targetAtFixation,jsons/VE125_randls_57_rotated.json,http://54.235.29.9/FacialAge/BNav_EC2/DepthDuration/v2_depth_duration_MTurk/v2_DepthDuration_HTML.html#306,306,882,800,1440,900,8-29-2022,13-29-37,103,depth_duration_stimuli/003492_2014-05-21_15-50-55_094959634447_rgbf000828-resize_1/003492_2014-05-21_15-50-55_094959634447_rgbf000828-resize_1-target.png,125,4.06875,0,2458,127,feet,jsons/VE125_randls_57_rotated.json,548592,633196,28,Man
103,980305,DepthScenes,duration_manipulation_targetAtFixation,jsons/VE125_randls_57_rotated.json,http://54.235.29.9/FacialAge/BNav_EC2/DepthDuration/v2_depth_duration_MTurk/v2_DepthDuration_HTML.html#306,306,882,800,1440,900,8-29-2022,13-29-37,104,depth_duration_stimuli/003129_2014-05-12_10-48-10_094959634447_rgbf000100-resize_0/003129_2014-05-12_10-48-10_094959634447_rgbf000100-resize_0-target.png,125,4.9305,8,2255,118,feet,jsons/VE125_randls_57_rotated.json,548592,633196,28,Man
104,980305,DepthScenes,duration_manipulation_targetAtFixation,jsons/VE125_randls_57_rotated.json,http://54.235.29.9/FacialAge/BNav_EC2/DepthDuration/v2_depth_duration_MTurk/v2_DepthDuration_HTML.html#306,306,882,800,1440,900,8-29-2022,13-29-37,105,depth_duration_stimuli/000414_2014-06-04_19-49-13_260595134347_rgbf000044-resize_0/000414_2014-06-04_19-49-13_260595134347_rgbf000044-resize_0-target.png,125,4.329,0,7421,124,feet,jsons/VE125_randls_57_rotated.json,548592,633196,28,Man
105,980305,DepthScenes,duration_manipulation_targetAtFixation,jsons/VE125_randls_57_rotated.json,http://54.235.29.9/FacialAge/BNav_EC2/DepthDuration/v2_depth_duration_MTurk/v2_DepthDuration_HTML.html#306,306,882,800,1440,900,8-29-2022,13-29-37,106,depth_duration_stimuli/002995_2014-06-15_12-31-26_094959634447_rgbf000150-resize_1/002995_2014-06-15_12-31-26_094959634447_rgbf000150-resize_1-target.png,125,3.8360000000000003,9,2565,125,feet,jsons/VE125_randls_57_rotated.json,548592,633196,28,Man
106,980305,DepthScenes,duration_manipulation_targetAtFixation,jsons/VE125_randls_57_rotated.json,http://54.235.29.9/FacialAge/BNav_EC2/DepthDuration/v2_depth_duration_MTurk/v2_DepthDuration_HTML.html#306,306,882,800,1440,900,8-29-2022,13-29-37,107,depth_duration_stimuli/002748_2014-06-22_19-07-22_094959634447_rgbf000078-resize_1/002748_2014-06-22_19-07-22_094959634447_rgbf000078-resize_1-target.png,125,4.6705,12,3218,127,feet,jsons/VE125_randls_57_rotated.json,548592,633196,28,Man
107,980305,DepthScenes,duration_manipulation_targetAtFixation,jsons/VE125_randls_57_rotated.json,http://54.235.29.9/FacialAge/BNav_EC2/DepthDuration/v2_depth_duration_MTurk/v2_DepthDuration_HTML.html#306,306,882,800,1440,900,8-29-2022,13-29-37,108,depth_duration_stimuli/000103_2014-05-14_22-01-17_260595134347_rgbf000152-resize_5/000103_2014-05-14_22-01-17_260595134347_rgbf000152-resize_5-target.png,125,1.993,0,2205,123,feet,jsons/VE125_randls_57_rotated.json,548592,633196,28,Man
108,980305,DepthScenes,duration_manipulation_targetAtFixation,jsons/VE125_randls_57_rotated.json,http://54.235.29.9/FacialAge/BNav_EC2/DepthDuration/v2_depth_duration_MTurk/v2_DepthDuration_HTML.html#306,306,882,800,1440,900,8-29-2022,13-29-37,109,depth_duration_stimuli/001555_2014-06-20_17-12-10_260595134347_rgbf000065-resize_4/001555_2014-06-20_17-12-10_260595134347_rgbf000065-resize_4-target.png,125,1.633,4,2119,121,feet,jsons/VE125_randls_57_rotated.json,548592,633196,28,Man
109,980305,DepthScenes,duration_manipulation_targetAtFixation,jsons/VE125_randls_57_rotated.json,http://54.235.29.9/FacialAge/BNav_EC2/DepthDuration/v2_depth_duration_MTurk/v2_DepthDuration_HTML.html#306,306,882,800,1440,900,8-29-2022,13-29-37,110,depth_duration_stimuli/002678_2014-06-13_16-15-32_094959634447_rgbf000151-resize_6/002678_2014-06-13_16-15-32_094959634447_rgbf000151-resize_6-target.png,125,2.1830000000000003,4,3295,123,feet,jsons/VE125_randls_57_rotated.json,548592,633196,28,Man
110,980305,DepthScenes,duration_manipulation_targetAtFixation,jsons/VE125_randls_57_rotated.json,http://54.235.29.9/FacialAge/BNav_EC2/DepthDuration/v2_depth_duration_MTurk/v2_DepthDuration_HTML.html#306,306,882,800,1440,900,8-29-2022,13-29-37,111,depth_duration_stimuli/000368_2014-06-09_15-53-01_260595134347_rgbf000155-resize_2/000368_2014-06-09_15-53-01_260595134347_rgbf000155-resize_2-target.png,125,2.4859999999999998,4,1466,126,feet,jsons/VE125_randls_57_rotated.json,548592,633196,28,Man
111,980305,DepthScenes,duration_manipulation_targetAtFixation,jsons/VE125_randls_57_rotated.json,http://54.235.29.9/FacialAge/BNav_EC2/DepthDuration/v2_depth_duration_MTurk/v2_DepthDuration_HTML.html#306,306,882,800,1440,900,8-29-2022,13-29-37,112,depth_duration_stimuli/000635_2014-06-08_16-38-42_260595134347_rgbf000106-resize_1/000635_2014-06-08_16-38-42_260595134347_rgbf000106-resize_1-target.png,125,2.074,8,2104,124,feet,jsons/VE125_randls_57_rotated.json,548592,633196,28,Man
112,980305,DepthScenes,duration_manipulation_targetAtFixation,jsons/VE125_randls_57_rotated.json,http://54.235.29.9/FacialAge/BNav_EC2/DepthDuration/v2_depth_duration_MTurk/v2_DepthDuration_HTML.html#306,306,882,800,1440,900,8-29-2022,13-29-37,113,depth_duration_stimuli/002279_2014-06-28_18-55-32_260595134347_rgbf000040-resize_5/002279_2014-06-28_18-55-32_260595134347_rgbf000040-resize_5-target.png,125,1.5043333333333,3,1679,125,feet,jsons/VE125_randls_57_rotated.json,548592,633196,28,Man
113,980305,DepthScenes,duration_manipulation_targetAtFixation,jsons/VE125_randls_57_rotated.json,http://54.235.29.9/FacialAge/BNav_EC2/DepthDuration/v2_depth_duration_MTurk/v2_DepthDuration_HTML.html#306,306,882,800,1440,900,8-29-2022,13-29-37,114,depth_duration_stimuli/000549_2014-06-08_22-10-24_260595134347_rgbf000247-resize_3/000549_2014-06-08_22-10-24_260595134347_rgbf000247-resize_3-target.png,125,1.841,3,1356,124,feet,jsons/VE125_randls_57_rotated.json,548592,633196,28,Man
114,980305,DepthScenes,duration_manipulation_targetAtFixation,jsons/VE125_randls_57_rotated.json,http://54.235.29.9/FacialAge/BNav_EC2/DepthDuration/v2_depth_duration_MTurk/v2_DepthDuration_HTML.html#306,306,882,800,1440,900,8-29-2022,13-29-37,115,depth_duration_stimuli/001055_2014-06-08_18-45-35_260595134347_rgbf000111-resize_4/001055_2014-06-08_18-45-35_260595134347_rgbf000111-resize_4-target.png,125,2.4290000000000003,6,2325,124,feet,jsons/VE125_randls_57_rotated.json,548592,633196,28,Man
115,980305,DepthScenes,duration_manipulation_targetAtFixation,jsons/VE125_randls_57_rotated.json,http://54.235.29.9/FacialAge/BNav_EC2/DepthDuration/v2_depth_duration_MTurk/v2_DepthDuration_HTML.html#306,306,882,800,1440,900,8-29-2022,13-29-37,116,depth_duration_stimuli/002953_2014-06-08_17-32-18_094959634447_rgbf000059-resize_5/002953_2014-06-08_17-32-18_094959634447_rgbf000059-resize_5-target.png,125,1.551,3,2084,126,feet,jsons/VE125_randls_57_rotated.json,548592,633196,28,Man
116,980305,DepthScenes,duration_manipulation_targetAtFixation,jsons/VE125_randls_57_rotated.json,http://54.235.29.9/FacialAge/BNav_EC2/DepthDuration/v2_depth_duration_MTurk/v2_DepthDuration_HTML.html#306,306,882,800,1440,900,8-29-2022,13-29-37,117,depth_duration_stimuli/000878_2014-06-08_22-52-45_260595134347_rgbf000045-resize_2/000878_2014-06-08_22-52-45_260595134347_rgbf000045-resize_2-target.png,125,2.092,4,5788,124,feet,jsons/VE125_randls_57_rotated.json,548592,633196,28,Man
117,980305,DepthScenes,duration_manipulation_targetAtFixation,jsons/VE125_randls_57_rotated.json,http://54.235.29.9/FacialAge/BNav_EC2/DepthDuration/v2_depth_duration_MTurk/v2_DepthDuration_HTML.html#306,306,882,800,1440,900,8-29-2022,13-29-37,118,depth_duration_stimuli/000734_2014-06-08_17-39-11_260595134347_rgbf000128-resize_2/000734_2014-06-08_17-39-11_260595134347_rgbf000128-resize_2-target.png,125,4.098,5,2382,123,feet,jsons/VE125_randls_57_rotated.json,548592,633196,28,Man
118,980305,DepthScenes,duration_manipulation_targetAtFixation,jsons/VE125_randls_57_rotated.json,http://54.235.29.9/FacialAge/BNav_EC2/DepthDuration/v2_depth_duration_MTurk/v2_DepthDuration_HTML.html#306,306,882,800,1440,900,8-29-2022,13-29-37,119,depth_duration_stimuli/000739_2014-06-08_18-45-58_260595134347_rgbf000068-resize_1/000739_2014-06-08_18-45-58_260595134347_rgbf000068-resize_1-target.png,125,3.534,0,2527,126,feet,jsons/VE125_randls_57_rotated.json,548592,633196,28,Man
119,980305,DepthScenes,duration_manipulation_targetAtFixation,jsons/VE125_randls_57_rotated.json,http://54.235.29.9/FacialAge/BNav_EC2/DepthDuration/v2_depth_duration_MTurk/v2_DepthDuration_HTML.html#306,306,882,800,1440,900,8-29-2022,13-29-37,120,depth_duration_stimuli/000787_2014-06-08_22-33-53_260595134347_rgbf000175-resize_1/000787_2014-06-08_22-33-53_260595134347_rgbf000175-resize-original.jpg,125,4.784,6,2289,126,feet,jsons/VE125_randls_57_rotated.json,548592,633196,28,Man
120,980305,DepthScenes,duration_manipulation_targetAtFixation,jsons/VE125_randls_57_rotated.json,http://54.235.29.9/FacialAge/BNav_EC2/DepthDuration/v2_depth_duration_MTurk/v2_DepthDuration_HTML.html#306,306,882,800,1440,900,8-29-2022,13-29-37,121,depth_duration_stimuli/002103_2014-06-25_20-00-40_260595134347_rgbf000049-resize_0/002103_2014-06-25_20-00-40_260595134347_rgbf000049-resize_0-target.png,125,4.105,12,2537,126,feet,jsons/VE125_randls_57_rotated.json,548592,633196,28,Man
121,980305,DepthScenes,duration_manipulation_targetAtFixation,jsons/VE125_randls_57_rotated.json,http://54.235.29.9/FacialAge/BNav_EC2/DepthDuration/v2_depth_duration_MTurk/v2_DepthDuration_HTML.html#306,306,882,800,1440,900,8-29-2022,13-29-37,122,depth_duration_stimuli/002039_2014-06-24_20-22-38_260595134347_rgbf000084-resize_1/002039_2014-06-24_20-22-38_260595134347_rgbf000084-resize_1-target.png,125,4.408,6,1817,125,feet,jsons/VE125_randls_57_rotated.json,548592,633196,28,Man
122,980305,DepthScenes,duration_manipulation_targetAtFixation,jsons/VE125_randls_57_rotated.json,http://54.235.29.9/FacialAge/BNav_EC2/DepthDuration/v2_depth_duration_MTurk/v2_DepthDuration_HTML.html#306,306,882,800,1440,900,8-29-2022,13-29-37,123,depth_duration_stimuli/002444_2014-06-28_20-32-08_260595134347_rgbf000027-resize_0/002444_2014-06-28_20-32-08_260595134347_rgbf000027-resize_0-target.png,125,4.388999999999999,8,2060,124,feet,jsons/VE125_randls_57_rotated.json,548592,633196,28,Man
123,980305,DepthScenes,duration_manipulation_targetAtFixation,jsons/VE125_randls_57_rotated.json,http://54.235.29.9/FacialAge/BNav_EC2/DepthDuration/v2_depth_duration_MTurk/v2_DepthDuration_HTML.html#306,306,882,800,1440,900,8-29-2022,13-29-37,124,depth_duration_stimuli/000436_2014-06-09_22-25-11_260595134347_rgbf000137-resize_1/000436_2014-06-09_22-25-11_260595134347_rgbf000137-resize_1-target.png,125,4.0705,8,2105,123,feet,jsons/VE125_randls_57_rotated.json,548592,633196,28,Man
124,980305,DepthScenes,duration_manipulation_targetAtFixation,jsons/VE125_randls_57_rotated.json,http://54.235.29.9/FacialAge/BNav_EC2/DepthDuration/v2_depth_duration_MTurk/v2_DepthDuration_HTML.html#306,306,882,800,1440,900,8-29-2022,13-29-37,125,depth_duration_stimuli/002758_2014-06-22_19-11-20_094959634447_rgbf000128-resize_1/002758_2014-06-22_19-11-20_094959634447_rgbf000128-resize_1-target.png,125,2.555,4,1755,124,feet,jsons/VE125_randls_57_rotated.json,548592,633196,28,Man
125,980305,DepthScenes,duration_manipulation_targetAtFixation,jsons/VE125_randls_57_rotated.json,http://54.235.29.9/FacialAge/BNav_EC2/DepthDuration/v2_depth_duration_MTurk/v2_DepthDuration_HTML.html#306,306,882,800,1440,900,8-29-2022,13-29-37,126,depth_duration_stimuli/002630_2014-06-24_14-47-50_094959634447_rgbf000055-resize_1/002630_2014-06-24_14-47-50_094959634447_rgbf000055-resize_1-target.png,125,3.0095,8,2026,120,feet,jsons/VE125_randls_57_rotated.json,548592,633196,28,Man
126,980305,DepthScenes,duration_manipulation_targetAtFixation,jsons/VE125_randls_57_rotated.json,http://54.235.29.9/FacialAge/BNav_EC2/DepthDuration/v2_depth_duration_MTurk/v2_DepthDuration_HTML.html#306,306,882,800,1440,900,8-29-2022,13-29-37,127,depth_duration_stimuli/000409_2014-06-04_19-23-33_260595134347_rgbf000067-resize_0/000409_2014-06-04_19-23-33_260595134347_rgbf000067-resize_0-target.png,125,3.7335,8,2516,124,feet,jsons/VE125_randls_57_rotated.json,548592,633196,28,Man
127,980305,DepthScenes,duration_manipulation_targetAtFixation,jsons/VE125_randls_57_rotated.json,http://54.235.29.9/FacialAge/BNav_EC2/DepthDuration/v2_depth_duration_MTurk/v2_DepthDuration_HTML.html#306,306,882,800,1440,900,8-29-2022,13-29-37,128,depth_duration_stimuli/002663_2014-06-13_15-50-26_094959634447_rgbf000075-resize_1/002663_2014-06-13_15-50-26_094959634447_rgbf000075-resize_1-target.png,125,4.7495,6,1992,124,feet,jsons/VE125_randls_57_rotated.json,548592,633196,28,Man
128,980305,DepthScenes,duration_manipulation_targetAtFixation,jsons/VE125_randls_57_rotated.json,http://54.235.29.9/FacialAge/BNav_EC2/DepthDuration/v2_depth_duration_MTurk/v2_DepthDuration_HTML.html#306,306,882,800,1440,900,8-29-2022,13-29-37,129,depth_duration_stimuli/000109_2014-05-14_23-41-52_260595134347_rgbf000035-resize_9/000109_2014-05-14_23-41-52_260595134347_rgbf000035-resize_9-target.png,125,1.3545,4,2159,123,feet,jsons/VE125_randls_57_rotated.json,548592,633196,28,Man
129,980305,DepthScenes,duration_manipulation_targetAtFixation,jsons/VE125_randls_57_rotated.json,http://54.235.29.9/FacialAge/BNav_EC2/DepthDuration/v2_depth_duration_MTurk/v2_DepthDuration_HTML.html#306,306,882,800,1440,900,8-29-2022,13-29-37,130,depth_duration_stimuli/000470_2014-06-09_19-42-40_260595134347_rgbf000094-resize_1/000470_2014-06-09_19-42-40_260595134347_rgbf000094-resize_1-target.png,125,1.831,3,1535,122,feet,jsons/VE125_randls_57_rotated.json,548592,633196,28,Man
130,980305,DepthScenes,duration_manipulation_targetAtFixation,jsons/VE125_randls_57_rotated.json,http://54.235.29.9/FacialAge/BNav_EC2/DepthDuration/v2_depth_duration_MTurk/v2_DepthDuration_HTML.html#306,306,882,800,1440,900,8-29-2022,13-29-37,131,depth_duration_stimuli/002657_2014-06-13_15-29-54_094959634447_rgbf000150-resize_1/002657_2014-06-13_15-29-54_094959634447_rgbf000150-resize_1-target.png,125,4.919,5,1841,126,feet,jsons/VE125_randls_57_rotated.json,548592,633196,28,Man
131,980305,DepthScenes,duration_manipulation_targetAtFixation,jsons/VE125_randls_57_rotated.json,http://54.235.29.9/FacialAge/BNav_EC2/DepthDuration/v2_depth_duration_MTurk/v2_DepthDuration_HTML.html#306,306,882,800,1440,900,8-29-2022,13-29-37,132,depth_duration_stimuli/002375_2014-06-28_20-13-44_260595134347_rgbf000032-resize_1/002375_2014-06-28_20-13-44_260595134347_rgbf000032-resize_1-target.png,125,4.0175,4,1950,125,feet,jsons/VE125_randls_57_rotated.json,548592,633196,28,Man
132,980305,DepthScenes,duration_manipulation_targetAtFixation,jsons/VE125_randls_57_rotated.json,http://54.235.29.9/FacialAge/BNav_EC2/DepthDuration/v2_depth_duration_MTurk/v2_DepthDuration_HTML.html#306,306,882,800,1440,900,8-29-2022,13-29-37,133,depth_duration_stimuli/000556_2014-06-09_22-42-56_260595134347_rgbf000214-resize_1/000556_2014-06-09_22-42-56_260595134347_rgbf000214-resize_1-target.png,125,4.8415,4,3135,125,feet,jsons/VE125_randls_57_rotated.json,548592,633196,28,Man
133,980305,DepthScenes,duration_manipulation_targetAtFixation,jsons/VE125_randls_57_rotated.json,http://54.235.29.9/FacialAge/BNav_EC2/DepthDuration/v2_depth_duration_MTurk/v2_DepthDuration_HTML.html#306,306,882,800,1440,900,8-29-2022,13-29-37,134,depth_duration_stimuli/001158_2014-06-17_15-32-16_260595134347_rgbf000138-resize_2/001158_2014-06-17_15-32-16_260595134347_rgbf000138-resize_2-target.png,125,4.5315,0,4561,117,feet,jsons/VE125_randls_57_rotated.json,548592,633196,28,Man
134,980305,DepthScenes,duration_manipulation_targetAtFixation,jsons/VE125_randls_57_rotated.json,http://54.235.29.9/FacialAge/BNav_EC2/DepthDuration/v2_depth_duration_MTurk/v2_DepthDuration_HTML.html#306,306,882,800,1440,900,8-29-2022,13-29-37,135,depth_duration_stimuli/000375_2014-06-08_11-17-29_260595134347_rgbf000133-resize_2/000375_2014-06-08_11-17-29_260595134347_rgbf000133-resize-original.jpg,125,4.718,0,2898,128,feet,jsons/VE125_randls_57_rotated.json,548592,633196,28,Man
135,980305,DepthScenes,duration_manipulation_targetAtFixation,jsons/VE125_randls_57_rotated.json,http://54.235.29.9/FacialAge/BNav_EC2/DepthDuration/v2_depth_duration_MTurk/v2_DepthDuration_HTML.html#306,306,882,800,1440,900,8-29-2022,13-29-37,136,depth_duration_stimuli/002414_2014-06-28_20-24-58_260595134347_rgbf000067-resize_4/002414_2014-06-28_20-24-58_260595134347_rgbf000067-resize_4-target.png,125,4.363,6,2897,126,feet,jsons/VE125_randls_57_rotated.json,548592,633196,28,Man
136,980305,DepthScenes,duration_manipulation_targetAtFixation,jsons/VE125_randls_57_rotated.json,http://54.235.29.9/FacialAge/BNav_EC2/DepthDuration/v2_depth_duration_MTurk/v2_DepthDuration_HTML.html#306,306,882,800,1440,900,8-29-2022,13-29-37,137,depth_duration_stimuli/000773_2014-06-08_22-24-54_260595134347_rgbf000093-resize_1/000773_2014-06-08_22-24-54_260595134347_rgbf000093-resize_1-target.png,125,4.973,6,13946,126,feet,jsons/VE125_randls_57_rotated.json,548592,633196,28,Man
137,980305,DepthScenes,duration_manipulation_targetAtFixation,jsons/VE125_randls_57_rotated.json,http://54.235.29.9/FacialAge/BNav_EC2/DepthDuration/v2_depth_duration_MTurk/v2_DepthDuration_HTML.html#306,306,882,800,1440,900,8-29-2022,13-29-37,138,depth_duration_stimuli/001571_2014-06-20_17-21-32_260595134347_rgbf000089-resize_1/001571_2014-06-20_17-21-32_260595134347_rgbf000089-resize_1-target.png,125,1.86,0,4342,125,feet,jsons/VE125_randls_57_rotated.json,548592,633196,28,Man
138,980305,DepthScenes,duration_manipulation_targetAtFixation,jsons/VE125_randls_57_rotated.json,http://54.235.29.9/FacialAge/BNav_EC2/DepthDuration/v2_depth_duration_MTurk/v2_DepthDuration_HTML.html#306,306,882,800,1440,900,8-29-2022,13-29-37,139,depth_duration_stimuli/002272_2014-06-28_18-53-56_260595134347_rgbf000067-resize_2/002272_2014-06-28_18-53-56_260595134347_rgbf000067-resize_2-target.png,125,1.138,5,4018,125,feet,jsons/VE125_randls_57_rotated.json,548592,633196,28,Man
139,980305,DepthScenes,duration_manipulation_targetAtFixation,jsons/VE125_randls_57_rotated.json,http://54.235.29.9/FacialAge/BNav_EC2/DepthDuration/v2_depth_duration_MTurk/v2_DepthDuration_HTML.html#306,306,882,800,1440,900,8-29-2022,13-29-37,140,depth_duration_stimuli/001828_2014-06-26_21-40-03_260595134347_rgbf000024-resize_0/001828_2014-06-26_21-40-03_260595134347_rgbf000024-resize_0-target.png,125,4.8260000000000005,0,2828,123,feet,jsons/VE125_randls_57_rotated.json,548592,633196,28,Man
140,980305,DepthScenes,duration_manipulation_targetAtFixation,jsons/VE125_randls_57_rotated.json,http://54.235.29.9/FacialAge/BNav_EC2/DepthDuration/v2_depth_duration_MTurk/v2_DepthDuration_HTML.html#306,306,882,800,1440,900,8-29-2022,13-29-37,141,depth_duration_stimuli/000009_2014-05-26_14-32-05_260595134347_rgbf000034-resize_3/000009_2014-05-26_14-32-05_260595134347_rgbf000034-resize_3-target.png,125,3.8715,0,2876,124,feet,jsons/VE125_randls_57_rotated.json,548592,633196,28,Man
141,980305,DepthScenes,duration_manipulation_targetAtFixation,jsons/VE125_randls_57_rotated.json,http://54.235.29.9/FacialAge/BNav_EC2/DepthDuration/v2_depth_duration_MTurk/v2_DepthDuration_HTML.html#306,306,882,800,1440,900,8-29-2022,13-29-37,142,depth_duration_stimuli/001617_2014-06-20_11-35-32_260595134347_rgbf000066-resize_1/001617_2014-06-20_11-35-32_260595134347_rgbf000066-resize_1-target.png,125,3.7910000000000004,8,1921,124,feet,jsons/VE125_randls_57_rotated.json,548592,633196,28,Man
142,980305,DepthScenes,duration_manipulation_targetAtFixation,jsons/VE125_randls_57_rotated.json,http://54.235.29.9/FacialAge/BNav_EC2/DepthDuration/v2_depth_duration_MTurk/v2_DepthDuration_HTML.html#306,306,882,800,1440,900,8-29-2022,13-29-37,143,depth_duration_stimuli/001806_2014-06-26_20-50-20_260595134347_rgbf000091-resize_1/001806_2014-06-26_20-50-20_260595134347_rgbf000091-resize_1-target.png,125,2.7305,0,2578,128,feet,jsons/VE125_randls_57_rotated.json,548592,633196,28,Man
143,980305,DepthScenes,duration_manipulation_targetAtFixation,jsons/VE125_randls_57_rotated.json,http://54.235.29.9/FacialAge/BNav_EC2/DepthDuration/v2_depth_duration_MTurk/v2_DepthDuration_HTML.html#306,306,882,800,1440,900,8-29-2022,13-29-37,144,depth_duration_stimuli/002805_2014-06-22_19-54-03_094959634447_rgbf000079-resize_1/002805_2014-06-22_19-54-03_094959634447_rgbf000079-resize_1-target.png,125,3.1439999999999997,12,2043,122,feet,jsons/VE125_randls_57_rotated.json,548592,633196,28,Man
144,980305,DepthScenes,duration_manipulation_targetAtFixation,jsons/VE125_randls_57_rotated.json,http://54.235.29.9/FacialAge/BNav_EC2/DepthDuration/v2_depth_duration_MTurk/v2_DepthDuration_HTML.html#306,306,882,800,1440,900,8-29-2022,13-29-37,145,depth_duration_stimuli/000906_2014-06-08_13-35-43_260595134347_rgbf000155-resize_1/000906_2014-06-08_13-35-43_260595134347_rgbf000155-resize_1-target.png,125,2.8489999999999998,14,2170,124,feet,jsons/VE125_randls_57_rotated.json,548592,633196,28,Man
145,980305,DepthScenes,duration_manipulation_targetAtFixation,jsons/VE125_randls_57_rotated.json,http://54.235.29.9/FacialAge/BNav_EC2/DepthDuration/v2_depth_duration_MTurk/v2_DepthDuration_HTML.html#306,306,882,800,1440,900,8-29-2022,13-29-37,146,depth_duration_stimuli/001100_2014-06-15_17-46-26_260595134347_rgbf000225-resize_2/001100_2014-06-15_17-46-26_260595134347_rgbf000225-resize_2-target.png,125,2.24,3,1837,128,feet,jsons/VE125_randls_57_rotated.json,548592,633196,28,Man
146,980305,DepthScenes,duration_manipulation_targetAtFixation,jsons/VE125_randls_57_rotated.json,http://54.235.29.9/FacialAge/BNav_EC2/DepthDuration/v2_depth_duration_MTurk/v2_DepthDuration_HTML.html#306,306,882,800,1440,900,8-29-2022,13-29-37,147,depth_duration_stimuli/002784_2014-06-22_19-26-30_094959634447_rgbf000083-resize_3/002784_2014-06-22_19-26-30_094959634447_rgbf000083-resize_3-target.png,125,1.8046666666667,6,3029,127,feet,jsons/VE125_randls_57_rotated.json,548592,633196,28,Man
147,980305,DepthScenes,duration_manipulation_targetAtFixation,jsons/VE125_randls_57_rotated.json,http://54.235.29.9/FacialAge/BNav_EC2/DepthDuration/v2_depth_duration_MTurk/v2_DepthDuration_HTML.html#306,306,882,800,1440,900,8-29-2022,13-29-37,148,depth_duration_stimuli/003079_2014-06-15_15-18-20_094959634447_rgbf000152-resize_8/003079_2014-06-15_15-18-20_094959634447_rgbf000152-resize_8-target.png,125,2.8775,8,2512,126,feet,jsons/VE125_randls_57_rotated.json,548592,633196,28,Man
148,980305,DepthScenes,duration_manipulation_targetAtFixation,jsons/VE125_randls_57_rotated.json,http://54.235.29.9/FacialAge/BNav_EC2/DepthDuration/v2_depth_duration_MTurk/v2_DepthDuration_HTML.html#306,306,882,800,1440,900,8-29-2022,13-29-37,149,depth_duration_stimuli/000506_2014-06-08_23-21-00_260595134347_rgbf000070-resize_7/000506_2014-06-08_23-21-00_260595134347_rgbf000070-resize_7-target.png,125,4.0585,4,3497,127,feet,jsons/VE125_randls_57_rotated.json,548592,633196,28,Man
149,980305,DepthScenes,duration_manipulation_targetAtFixation,jsons/VE125_randls_57_rotated.json,http://54.235.29.9/FacialAge/BNav_EC2/DepthDuration/v2_depth_duration_MTurk/v2_DepthDuration_HTML.html#306,306,882,800,1440,900,8-29-2022,13-29-37,150,depth_duration_stimuli/001392_2014-06-19_16-07-59_260595134347_rgbf000046-resize_1/001392_2014-06-19_16-07-59_260595134347_rgbf000046-resize_1-target.png,125,4.135,8,2357,123,feet,jsons/VE125_randls_57_rotated.json,548592,633196,28,Man
150,980305,DepthScenes,duration_manipulation_targetAtFixation,jsons/VE125_randls_57_rotated.json,http://54.235.29.9/FacialAge/BNav_EC2/DepthDuration/v2_depth_duration_MTurk/v2_DepthDuration_HTML.html#306,306,882,800,1440,900,8-29-2022,13-29-37,151,depth_duration_stimuli/001570_2014-06-20_17-21-09_260595134347_rgbf000135-resize_4/001570_2014-06-20_17-21-09_260595134347_rgbf000135-resize_4-target.png,125,4.467,8,2657,125,feet,jsons/VE125_randls_57_rotated.json,548592,633196,28,Man
151,980305,DepthScenes,duration_manipulation_targetAtFixation,jsons/VE125_randls_57_rotated.json,http://54.235.29.9/FacialAge/BNav_EC2/DepthDuration/v2_depth_duration_MTurk/v2_DepthDuration_HTML.html#306,306,882,800,1440,900,8-29-2022,13-29-37,152,depth_duration_stimuli/000569_2014-06-09_22-51-47_260595134347_rgbf000141-resize_3/000569_2014-06-09_22-51-47_260595134347_rgbf000141-resize-original.jpg,125,4.512,0,2165,125,feet,jsons/VE125_randls_57_rotated.json,548592,633196,28,Man
152,980305,DepthScenes,duration_manipulation_targetAtFixation,jsons/VE125_randls_57_rotated.json,http://54.235.29.9/FacialAge/BNav_EC2/DepthDuration/v2_depth_duration_MTurk/v2_DepthDuration_HTML.html#306,306,882,800,1440,900,8-29-2022,13-29-37,153,depth_duration_stimuli/002639_2014-06-24_14-51-37_094959634447_rgbf000074-resize_4/002639_2014-06-24_14-51-37_094959634447_rgbf000074-resize_4-target.png,125,4.0375,0,3719,127,feet,jsons/VE125_randls_57_rotated.json,548592,633196,28,Man
153,980305,DepthScenes,duration_manipulation_targetAtFixation,jsons/VE125_randls_57_rotated.json,http://54.235.29.9/FacialAge/BNav_EC2/DepthDuration/v2_depth_duration_MTurk/v2_DepthDuration_HTML.html#306,306,882,800,1440,900,8-29-2022,13-29-37,154,depth_duration_stimuli/003292_2014-05-14_21-53-49_094959634447_rgbf000100-resize_2/003292_2014-05-14_21-53-49_094959634447_rgbf000100-resize_2-target.png,125,3.4815,6,2576,120,feet,jsons/VE125_randls_57_rotated.json,548592,633196,28,Man
154,980305,DepthScenes,duration_manipulation_targetAtFixation,jsons/VE125_randls_57_rotated.json,http://54.235.29.9/FacialAge/BNav_EC2/DepthDuration/v2_depth_duration_MTurk/v2_DepthDuration_HTML.html#306,306,882,800,1440,900,8-29-2022,13-29-37,155,depth_duration_stimuli/001052_2014-06-08_18-24-54_260595134347_rgbf000130-resize_1/001052_2014-06-08_18-24-54_260595134347_rgbf000130-resize_1-target.png,125,4.1045,0,2345,124,feet,jsons/VE125_randls_57_rotated.json,548592,633196,28,Man
155,980305,DepthScenes,duration_manipulation_targetAtFixation,jsons/VE125_randls_57_rotated.json,http://54.235.29.9/FacialAge/BNav_EC2/DepthDuration/v2_depth_duration_MTurk/v2_DepthDuration_HTML.html#306,306,882,800,1440,900,8-29-2022,13-29-37,156,depth_duration_stimuli/002988_2014-06-15_12-24-20_094959634447_rgbf000150-resize_1/002988_2014-06-15_12-24-20_094959634447_rgbf000150-resize_1-target.png,125,4.7669999999999995,0,5948,125,feet,jsons/VE125_randls_57_rotated.json,548592,633196,28,Man
156,980305,DepthScenes,duration_manipulation_targetAtFixation,jsons/VE125_randls_57_rotated.json,http://54.235.29.9/FacialAge/BNav_EC2/DepthDuration/v2_depth_duration_MTurk/v2_DepthDuration_HTML.html#306,306,882,800,1440,900,8-29-2022,13-29-37,157,depth_duration_stimuli/002209_2014-06-28_18-36-10_260595134347_rgbf000051-resize_1/002209_2014-06-28_18-36-10_260595134347_rgbf000051-resize_1-target.png,125,2.057,5,2299,126,feet,jsons/VE125_randls_57_rotated.json,548592,633196,28,Man
157,980305,DepthScenes,duration_manipulation_targetAtFixation,jsons/VE125_randls_57_rotated.json,http://54.235.29.9/FacialAge/BNav_EC2/DepthDuration/v2_depth_duration_MTurk/v2_DepthDuration_HTML.html#306,306,882,800,1440,900,8-29-2022,13-29-37,158,depth_duration_stimuli/002763_2014-06-22_19-13-10_094959634447_rgbf000075-resize_4/002763_2014-06-22_19-13-10_094959634447_rgbf000075-resize_4-target.png,125,1.68375,6,2275,127,feet,jsons/VE125_randls_57_rotated.json,548592,633196,28,Man
158,980305,DepthScenes,duration_manipulation_targetAtFixation,jsons/VE125_randls_57_rotated.json,http://54.235.29.9/FacialAge/BNav_EC2/DepthDuration/v2_depth_duration_MTurk/v2_DepthDuration_HTML.html#306,306,882,800,1440,900,8-29-2022,13-29-37,159,depth_duration_stimuli/001447_2014-06-19_17-00-32_260595134347_rgbf000082-resize_5/001447_2014-06-19_17-00-32_260595134347_rgbf000082-resize_5-target.png,125,4.13775,0,3010,126,feet,jsons/VE125_randls_57_rotated.json,548592,633196,28,Man
159,980305,DepthScenes,duration_manipulation_targetAtFixation,jsons/VE125_randls_57_rotated.json,http://54.235.29.9/FacialAge/BNav_EC2/DepthDuration/v2_depth_duration_MTurk/v2_DepthDuration_HTML.html#306,306,882,800,1440,900,8-29-2022,13-29-37,160,depth_duration_stimuli/000447_2014-06-08_16-15-46_260595134347_rgbf000130-resize_1/000447_2014-06-08_16-15-46_260595134347_rgbf000130-resize_1-target.png,125,4.479,3,2901,123,feet,jsons/VE125_randls_57_rotated.json,548592,633196,28,Man
160,980305,DepthScenes,duration_manipulation_targetAtFixation,jsons/VE125_randls_57_rotated.json,http://54.235.29.9/FacialAge/BNav_EC2/DepthDuration/v2_depth_duration_MTurk/v2_DepthDuration_HTML.html#306,306,882,800,1440,900,8-29-2022,13-29-37,161,depth_duration_stimuli/000665_2014-06-09_20-42-35_260595134347_rgbf000110-resize_1/000665_2014-06-09_20-42-35_260595134347_rgbf000110-resize_1-target.png,125,3.057,0,2799,123,feet,jsons/VE125_randls_57_rotated.json,548592,633196,28,Man
161,980305,DepthScenes,duration_manipulation_targetAtFixation,jsons/VE125_randls_57_rotated.json,http://54.235.29.9/FacialAge/BNav_EC2/DepthDuration/v2_depth_duration_MTurk/v2_DepthDuration_HTML.html#306,306,882,800,1440,900,8-29-2022,13-29-37,162,depth_duration_stimuli/001150_2014-06-17_15-27-34_260595134347_rgbf000108-resize_2/001150_2014-06-17_15-27-34_260595134347_rgbf000108-resize_2-target.png,125,4.0325,0,13680,125,feet,jsons/VE125_randls_57_rotated.json,548592,633196,28,Man
162,980305,DepthScenes,duration_manipulation_targetAtFixation,jsons/VE125_randls_57_rotated.json,http://54.235.29.9/FacialAge/BNav_EC2/DepthDuration/v2_depth_duration_MTurk/v2_DepthDuration_HTML.html#306,306,882,800,1440,900,8-29-2022,13-29-37,163,depth_duration_stimuli/001516_2014-06-20_16-25-09_260595134347_rgbf000076-resize_2/001516_2014-06-20_16-25-09_260595134347_rgbf000076-resize_2-target.png,125,1.7445,4,3842,126,feet,jsons/VE125_randls_57_rotated.json,548592,633196,28,Man
163,980305,DepthScenes,duration_manipulation_targetAtFixation,jsons/VE125_randls_57_rotated.json,http://54.235.29.9/FacialAge/BNav_EC2/DepthDuration/v2_depth_duration_MTurk/v2_DepthDuration_HTML.html#306,306,882,800,1440,900,8-29-2022,13-29-37,164,depth_duration_stimuli/002118_2014-06-25_20-32-08_260595134347_rgbf000078-resize_1/002118_2014-06-25_20-32-08_260595134347_rgbf000078-resize_1-target.png,125,2.6460000000000004,6,2904,127,feet,jsons/VE125_randls_57_rotated.json,548592,633196,28,Man
