,subjID,experimentName,versionName,sequenceName,url,selected_row,windowWidth,windowHeight,screenWidth,screenHeight,startDate,startTime,trial,stimulus,duration,actual_depth,depth_estimate,trial_RT,log_sceneDuration,unitSelection,seq_filepath,experimentTime,totalTime,age,gender
0,981546,DepthScenes,duration_manipulation_targetAtFixation,jsons/v1_VE250_randls_26.json,http://54.235.29.9/FacialAge/BNav_EC2/DepthDuration/v2_depth_duration_MTurk/v2_DepthDuration_HTML.html#286,286,1366,768,1366,768,9-3-2022,12-36-38,1,depth_duration_stimuli/000810_2014-06-08_17-20-01_260595134347_rgbf000105-resize_0/000810_2014-06-08_17-20-01_260595134347_rgbf000105-resize_0-target.png,250,1.4865,2,4269,251,meters,jsons/v1_VE250_randls_26.json,1234382,1663231,28,Woman
1,981546,DepthScenes,duration_manipulation_targetAtFixation,jsons/v1_VE250_randls_26.json,http://54.235.29.9/FacialAge/BNav_EC2/DepthDuration/v2_depth_duration_MTurk/v2_DepthDuration_HTML.html#286,286,1366,768,1366,768,9-3-2022,12-36-38,2,depth_duration_stimuli/001214_2014-06-17_16-13-55_260595134347_rgbf000111-resize_0/001214_2014-06-17_16-13-55_260595134347_rgbf000111-resize_0-target.png,250,2.6505,2,7418,249,meters,jsons/v1_VE250_randls_26.json,1234382,1663231,28,Woman
2,981546,DepthScenes,duration_manipulation_targetAtFixation,jsons/v1_VE250_randls_26.json,http://54.235.29.9/FacialAge/BNav_EC2/DepthDuration/v2_depth_duration_MTurk/v2_DepthDuration_HTML.html#286,286,1366,768,1366,768,9-3-2022,12-36-38,3,depth_duration_stimuli/002213_2014-06-28_18-37-58_260595134347_rgbf000055-resize_1/002213_2014-06-28_18-37-58_260595134347_rgbf000055-resize_1-target.png,250,3.62,3,4086,249,meters,jsons/v1_VE250_randls_26.json,1234382,1663231,28,Woman
3,981546,DepthScenes,duration_manipulation_targetAtFixation,jsons/v1_VE250_randls_26.json,http://54.235.29.9/FacialAge/BNav_EC2/DepthDuration/v2_depth_duration_MTurk/v2_DepthDuration_HTML.html#286,286,1366,768,1366,768,9-3-2022,12-36-38,4,depth_duration_stimuli/000691_2014-06-08_13-08-50_260595134347_rgbf000132-resize_3/000691_2014-06-08_13-08-50_260595134347_rgbf000132-resize_3-target.png,250,4.1530000000000005,2,36386,249,meters,jsons/v1_VE250_randls_26.json,1234382,1663231,28,Woman
4,981546,DepthScenes,duration_manipulation_targetAtFixation,jsons/v1_VE250_randls_26.json,http://54.235.29.9/FacialAge/BNav_EC2/DepthDuration/v2_depth_duration_MTurk/v2_DepthDuration_HTML.html#286,286,1366,768,1366,768,9-3-2022,12-36-38,5,depth_duration_stimuli/002989_2014-06-15_12-25-03_094959634447_rgbf000150-resize_3/002989_2014-06-15_12-25-03_094959634447_rgbf000150-resize_3-target.png,250,4.1975,3,4255,250,meters,jsons/v1_VE250_randls_26.json,1234382,1663231,28,Woman
5,981546,DepthScenes,duration_manipulation_targetAtFixation,jsons/v1_VE250_randls_26.json,http://54.235.29.9/FacialAge/BNav_EC2/DepthDuration/v2_depth_duration_MTurk/v2_DepthDuration_HTML.html#286,286,1366,768,1366,768,9-3-2022,12-36-38,6,depth_duration_stimuli/000866_2014-06-09_20-45-42_260595134347_rgbf000139-resize_1/000866_2014-06-09_20-45-42_260595134347_rgbf000139-resize_1-target.png,250,3.2155,2,4091,249,meters,jsons/v1_VE250_randls_26.json,1234382,1663231,28,Woman
6,981546,DepthScenes,duration_manipulation_targetAtFixation,jsons/v1_VE250_randls_26.json,http://54.235.29.9/FacialAge/BNav_EC2/DepthDuration/v2_depth_duration_MTurk/v2_DepthDuration_HTML.html#286,286,1366,768,1366,768,9-3-2022,12-36-38,7,depth_duration_stimuli/002043_2014-06-24_20-29-38_260595134347_rgbf000039-resize_4/002043_2014-06-24_20-29-38_260595134347_rgbf000039-resize_4-target.png,250,2.8435,2,6908,249,meters,jsons/v1_VE250_randls_26.json,1234382,1663231,28,Woman
7,981546,DepthScenes,duration_manipulation_targetAtFixation,jsons/v1_VE250_randls_26.json,http://54.235.29.9/FacialAge/BNav_EC2/DepthDuration/v2_depth_duration_MTurk/v2_DepthDuration_HTML.html#286,286,1366,768,1366,768,9-3-2022,12-36-38,8,depth_duration_stimuli/003048_2014-06-15_13-49-43_094959634447_rgbf000150-resize_1/003048_2014-06-15_13-49-43_094959634447_rgbf000150-resize_1-target.png,250,4.0035,3,3863,249,meters,jsons/v1_VE250_randls_26.json,1234382,1663231,28,Woman
8,981546,DepthScenes,duration_manipulation_targetAtFixation,jsons/v1_VE250_randls_26.json,http://54.235.29.9/FacialAge/BNav_EC2/DepthDuration/v2_depth_duration_MTurk/v2_DepthDuration_HTML.html#286,286,1366,768,1366,768,9-3-2022,12-36-38,9,depth_duration_stimuli/001110_2014-06-15_17-25-28_260595134347_rgbf000150-resize_1/001110_2014-06-15_17-25-28_260595134347_rgbf000150-resize_1-target.png,250,1.7115,2,4194,249,meters,jsons/v1_VE250_randls_26.json,1234382,1663231,28,Woman
9,981546,DepthScenes,duration_manipulation_targetAtFixation,jsons/v1_VE250_randls_26.json,http://54.235.29.9/FacialAge/BNav_EC2/DepthDuration/v2_depth_duration_MTurk/v2_DepthDuration_HTML.html#286,286,1366,768,1366,768,9-3-2022,12-36-38,10,depth_duration_stimuli/000927_2014-06-09_16-32-30_260595134347_rgbf000123-resize_3/000927_2014-06-09_16-32-30_260595134347_rgbf000123-resize_3-target.png,250,2.6785,3,21489,250,meters,jsons/v1_VE250_randls_26.json,1234382,1663231,28,Woman
10,981546,DepthScenes,duration_manipulation_targetAtFixation,jsons/v1_VE250_randls_26.json,http://54.235.29.9/FacialAge/BNav_EC2/DepthDuration/v2_depth_duration_MTurk/v2_DepthDuration_HTML.html#286,286,1366,768,1366,768,9-3-2022,12-36-38,11,depth_duration_stimuli/000436_2014-06-09_22-25-11_260595134347_rgbf000137-resize_1/000436_2014-06-09_22-25-11_260595134347_rgbf000137-resize_1-target.png,250,4.0705,3,3829,250,meters,jsons/v1_VE250_randls_26.json,1234382,1663231,28,Woman
11,981546,DepthScenes,duration_manipulation_targetAtFixation,jsons/v1_VE250_randls_26.json,http://54.235.29.9/FacialAge/BNav_EC2/DepthDuration/v2_depth_duration_MTurk/v2_DepthDuration_HTML.html#286,286,1366,768,1366,768,9-3-2022,12-36-38,12,depth_duration_stimuli/002444_2014-06-28_20-32-08_260595134347_rgbf000027-resize_0/002444_2014-06-28_20-32-08_260595134347_rgbf000027-resize_0-target.png,250,4.388999999999999,2,2902,249,meters,jsons/v1_VE250_randls_26.json,1234382,1663231,28,Woman
12,981546,DepthScenes,duration_manipulation_targetAtFixation,jsons/v1_VE250_randls_26.json,http://54.235.29.9/FacialAge/BNav_EC2/DepthDuration/v2_depth_duration_MTurk/v2_DepthDuration_HTML.html#286,286,1366,768,1366,768,9-3-2022,12-36-38,13,depth_duration_stimuli/000569_2014-06-09_22-51-47_260595134347_rgbf000141-resize_3/000569_2014-06-09_22-51-47_260595134347_rgbf000141-resize-original.jpg,250,4.512,1,4951,250,meters,jsons/v1_VE250_randls_26.json,1234382,1663231,28,Woman
13,981546,DepthScenes,duration_manipulation_targetAtFixation,jsons/v1_VE250_randls_26.json,http://54.235.29.9/FacialAge/BNav_EC2/DepthDuration/v2_depth_duration_MTurk/v2_DepthDuration_HTML.html#286,286,1366,768,1366,768,9-3-2022,12-36-38,14,depth_duration_stimuli/000493_2014-06-09_21-01-18_260595134347_rgbf000196-resize_3/000493_2014-06-09_21-01-18_260595134347_rgbf000196-resize_3-target.png,250,3.44,2,6068,250,meters,jsons/v1_VE250_randls_26.json,1234382,1663231,28,Woman
14,981546,DepthScenes,duration_manipulation_targetAtFixation,jsons/v1_VE250_randls_26.json,http://54.235.29.9/FacialAge/BNav_EC2/DepthDuration/v2_depth_duration_MTurk/v2_DepthDuration_HTML.html#286,286,1366,768,1366,768,9-3-2022,12-36-38,15,depth_duration_stimuli/000191_2014-05-12_17-07-38_260595134347_rgbf000199-resize_0/000191_2014-05-12_17-07-38_260595134347_rgbf000199-resize_0-target.png,250,3.7995,3,26754,249,meters,jsons/v1_VE250_randls_26.json,1234382,1663231,28,Woman
15,981546,DepthScenes,duration_manipulation_targetAtFixation,jsons/v1_VE250_randls_26.json,http://54.235.29.9/FacialAge/BNav_EC2/DepthDuration/v2_depth_duration_MTurk/v2_DepthDuration_HTML.html#286,286,1366,768,1366,768,9-3-2022,12-36-38,16,depth_duration_stimuli/000878_2014-06-08_22-52-45_260595134347_rgbf000045-resize_2/000878_2014-06-08_22-52-45_260595134347_rgbf000045-resize_2-target.png,250,2.092,2,12290,250,meters,jsons/v1_VE250_randls_26.json,1234382,1663231,28,Woman
16,981546,DepthScenes,duration_manipulation_targetAtFixation,jsons/v1_VE250_randls_26.json,http://54.235.29.9/FacialAge/BNav_EC2/DepthDuration/v2_depth_duration_MTurk/v2_DepthDuration_HTML.html#286,286,1366,768,1366,768,9-3-2022,12-36-38,17,depth_duration_stimuli/002953_2014-06-08_17-32-18_094959634447_rgbf000059-resize_5/002953_2014-06-08_17-32-18_094959634447_rgbf000059-resize_5-target.png,250,1.551,1,4505,251,meters,jsons/v1_VE250_randls_26.json,1234382,1663231,28,Woman
17,981546,DepthScenes,duration_manipulation_targetAtFixation,jsons/v1_VE250_randls_26.json,http://54.235.29.9/FacialAge/BNav_EC2/DepthDuration/v2_depth_duration_MTurk/v2_DepthDuration_HTML.html#286,286,1366,768,1366,768,9-3-2022,12-36-38,18,depth_duration_stimuli/000929_2014-06-09_16-33-19_260595134347_rgbf000139-resize_0/000929_2014-06-09_16-33-19_260595134347_rgbf000139-resize_0-target.png,250,2.8680000000000003,2,4733,249,meters,jsons/v1_VE250_randls_26.json,1234382,1663231,28,Woman
18,981546,DepthScenes,duration_manipulation_targetAtFixation,jsons/v1_VE250_randls_26.json,http://54.235.29.9/FacialAge/BNav_EC2/DepthDuration/v2_depth_duration_MTurk/v2_DepthDuration_HTML.html#286,286,1366,768,1366,768,9-3-2022,12-36-38,19,depth_duration_stimuli/000457_2014-06-08_16-52-43_260595134347_rgbf000199-resize_1/000457_2014-06-08_16-52-43_260595134347_rgbf000199-resize_1-target.png,250,3.6489999999999996,3,6158,250,meters,jsons/v1_VE250_randls_26.json,1234382,1663231,28,Woman
19,981546,DepthScenes,duration_manipulation_targetAtFixation,jsons/v1_VE250_randls_26.json,http://54.235.29.9/FacialAge/BNav_EC2/DepthDuration/v2_depth_duration_MTurk/v2_DepthDuration_HTML.html#286,286,1366,768,1366,768,9-3-2022,12-36-38,20,depth_duration_stimuli/002630_2014-06-24_14-47-50_094959634447_rgbf000055-resize_1/002630_2014-06-24_14-47-50_094959634447_rgbf000055-resize_1-target.png,250,3.0095,2,3759,249,meters,jsons/v1_VE250_randls_26.json,1234382,1663231,28,Woman
20,981546,DepthScenes,duration_manipulation_targetAtFixation,jsons/v1_VE250_randls_26.json,http://54.235.29.9/FacialAge/BNav_EC2/DepthDuration/v2_depth_duration_MTurk/v2_DepthDuration_HTML.html#286,286,1366,768,1366,768,9-3-2022,12-36-38,21,depth_duration_stimuli/002758_2014-06-22_19-11-20_094959634447_rgbf000128-resize_1/002758_2014-06-22_19-11-20_094959634447_rgbf000128-resize_1-target.png,250,2.555,2,4483,250,meters,jsons/v1_VE250_randls_26.json,1234382,1663231,28,Woman
21,981546,DepthScenes,duration_manipulation_targetAtFixation,jsons/v1_VE250_randls_26.json,http://54.235.29.9/FacialAge/BNav_EC2/DepthDuration/v2_depth_duration_MTurk/v2_DepthDuration_HTML.html#286,286,1366,768,1366,768,9-3-2022,12-36-38,22,depth_duration_stimuli/000368_2014-06-09_15-53-01_260595134347_rgbf000155-resize_2/000368_2014-06-09_15-53-01_260595134347_rgbf000155-resize_2-target.png,250,2.4859999999999998,1,4299,249,meters,jsons/v1_VE250_randls_26.json,1234382,1663231,28,Woman
22,981546,DepthScenes,duration_manipulation_targetAtFixation,jsons/v1_VE250_randls_26.json,http://54.235.29.9/FacialAge/BNav_EC2/DepthDuration/v2_depth_duration_MTurk/v2_DepthDuration_HTML.html#286,286,1366,768,1366,768,9-3-2022,12-36-38,23,depth_duration_stimuli/002678_2014-06-13_16-15-32_094959634447_rgbf000151-resize_6/002678_2014-06-13_16-15-32_094959634447_rgbf000151-resize_6-target.png,250,2.1830000000000003,3,3771,249,meters,jsons/v1_VE250_randls_26.json,1234382,1663231,28,Woman
23,981546,DepthScenes,duration_manipulation_targetAtFixation,jsons/v1_VE250_randls_26.json,http://54.235.29.9/FacialAge/BNav_EC2/DepthDuration/v2_depth_duration_MTurk/v2_DepthDuration_HTML.html#286,286,1366,768,1366,768,9-3-2022,12-36-38,24,depth_duration_stimuli/002784_2014-06-22_19-26-30_094959634447_rgbf000083-resize_3/002784_2014-06-22_19-26-30_094959634447_rgbf000083-resize_3-target.png,250,1.8046666666667,2,4454,251,meters,jsons/v1_VE250_randls_26.json,1234382,1663231,28,Woman
24,981546,DepthScenes,duration_manipulation_targetAtFixation,jsons/v1_VE250_randls_26.json,http://54.235.29.9/FacialAge/BNav_EC2/DepthDuration/v2_depth_duration_MTurk/v2_DepthDuration_HTML.html#286,286,1366,768,1366,768,9-3-2022,12-36-38,25,depth_duration_stimuli/001100_2014-06-15_17-46-26_260595134347_rgbf000225-resize_2/001100_2014-06-15_17-46-26_260595134347_rgbf000225-resize_2-target.png,250,2.24,1,7668,249,meters,jsons/v1_VE250_randls_26.json,1234382,1663231,28,Woman
25,981546,DepthScenes,duration_manipulation_targetAtFixation,jsons/v1_VE250_randls_26.json,http://54.235.29.9/FacialAge/BNav_EC2/DepthDuration/v2_depth_duration_MTurk/v2_DepthDuration_HTML.html#286,286,1366,768,1366,768,9-3-2022,12-36-38,26,depth_duration_stimuli/001150_2014-06-17_15-27-34_260595134347_rgbf000108-resize_2/001150_2014-06-17_15-27-34_260595134347_rgbf000108-resize_2-target.png,250,4.0325,3,5186,249,meters,jsons/v1_VE250_randls_26.json,1234382,1663231,28,Woman
26,981546,DepthScenes,duration_manipulation_targetAtFixation,jsons/v1_VE250_randls_26.json,http://54.235.29.9/FacialAge/BNav_EC2/DepthDuration/v2_depth_duration_MTurk/v2_DepthDuration_HTML.html#286,286,1366,768,1366,768,9-3-2022,12-36-38,27,depth_duration_stimuli/000665_2014-06-09_20-42-35_260595134347_rgbf000110-resize_1/000665_2014-06-09_20-42-35_260595134347_rgbf000110-resize_1-target.png,250,3.057,3,4360,249,meters,jsons/v1_VE250_randls_26.json,1234382,1663231,28,Woman
27,981546,DepthScenes,duration_manipulation_targetAtFixation,jsons/v1_VE250_randls_26.json,http://54.235.29.9/FacialAge/BNav_EC2/DepthDuration/v2_depth_duration_MTurk/v2_DepthDuration_HTML.html#286,286,1366,768,1366,768,9-3-2022,12-36-38,28,depth_duration_stimuli/001158_2014-06-17_15-32-16_260595134347_rgbf000138-resize_2/001158_2014-06-17_15-32-16_260595134347_rgbf000138-resize_2-target.png,250,4.5315,3,4130,237,meters,jsons/v1_VE250_randls_26.json,1234382,1663231,28,Woman
28,981546,DepthScenes,duration_manipulation_targetAtFixation,jsons/v1_VE250_randls_26.json,http://54.235.29.9/FacialAge/BNav_EC2/DepthDuration/v2_depth_duration_MTurk/v2_DepthDuration_HTML.html#286,286,1366,768,1366,768,9-3-2022,12-36-38,29,depth_duration_stimuli/000556_2014-06-09_22-42-56_260595134347_rgbf000214-resize_1/000556_2014-06-09_22-42-56_260595134347_rgbf000214-resize_1-target.png,250,4.8415,3,4937,249,meters,jsons/v1_VE250_randls_26.json,1234382,1663231,28,Woman
29,981546,DepthScenes,duration_manipulation_targetAtFixation,jsons/v1_VE250_randls_26.json,http://54.235.29.9/FacialAge/BNav_EC2/DepthDuration/v2_depth_duration_MTurk/v2_DepthDuration_HTML.html#286,286,1366,768,1366,768,9-3-2022,12-36-38,30,depth_duration_stimuli/000375_2014-06-08_11-17-29_260595134347_rgbf000133-resize_2/000375_2014-06-08_11-17-29_260595134347_rgbf000133-resize-original.jpg,250,4.718,2,3822,251,meters,jsons/v1_VE250_randls_26.json,1234382,1663231,28,Woman
30,981546,DepthScenes,duration_manipulation_targetAtFixation,jsons/v1_VE250_randls_26.json,http://54.235.29.9/FacialAge/BNav_EC2/DepthDuration/v2_depth_duration_MTurk/v2_DepthDuration_HTML.html#286,286,1366,768,1366,768,9-3-2022,12-36-38,31,depth_duration_stimuli/002445_2014-06-28_20-32-16_260595134347_rgbf000029-resize_4/002445_2014-06-28_20-32-16_260595134347_rgbf000029-resize_4-target.png,250,2.5315,1,4825,249,meters,jsons/v1_VE250_randls_26.json,1234382,1663231,28,Woman
31,981546,DepthScenes,duration_manipulation_targetAtFixation,jsons/v1_VE250_randls_26.json,http://54.235.29.9/FacialAge/BNav_EC2/DepthDuration/v2_depth_duration_MTurk/v2_DepthDuration_HTML.html#286,286,1366,768,1366,768,9-3-2022,12-36-38,32,depth_duration_stimuli/000780_2014-06-08_22-28-29_260595134347_rgbf000126-resize_1/000780_2014-06-08_22-28-29_260595134347_rgbf000126-resize_1-target.png,250,3.3825,2,3799,250,meters,jsons/v1_VE250_randls_26.json,1234382,1663231,28,Woman
32,981546,DepthScenes,duration_manipulation_targetAtFixation,jsons/v1_VE250_randls_26.json,http://54.235.29.9/FacialAge/BNav_EC2/DepthDuration/v2_depth_duration_MTurk/v2_DepthDuration_HTML.html#286,286,1366,768,1366,768,9-3-2022,12-36-38,33,depth_duration_stimuli/002788_2014-06-22_19-36-03_094959634447_rgbf000088-resize_2/002788_2014-06-22_19-36-03_094959634447_rgbf000088-resize_2-target.png,250,1.6465,2,6469,249,meters,jsons/v1_VE250_randls_26.json,1234382,1663231,28,Woman
33,981546,DepthScenes,duration_manipulation_targetAtFixation,jsons/v1_VE250_randls_26.json,http://54.235.29.9/FacialAge/BNav_EC2/DepthDuration/v2_depth_duration_MTurk/v2_DepthDuration_HTML.html#286,286,1366,768,1366,768,9-3-2022,12-36-38,34,depth_duration_stimuli/000749_2014-06-08_21-55-06_260595134347_rgbf000070-resize_2/000749_2014-06-08_21-55-06_260595134347_rgbf000070-resize_2-target.png,250,2.331,2,4844,250,meters,jsons/v1_VE250_randls_26.json,1234382,1663231,28,Woman
34,981546,DepthScenes,duration_manipulation_targetAtFixation,jsons/v1_VE250_randls_26.json,http://54.235.29.9/FacialAge/BNav_EC2/DepthDuration/v2_depth_duration_MTurk/v2_DepthDuration_HTML.html#286,286,1366,768,1366,768,9-3-2022,12-36-38,35,depth_duration_stimuli/002057_2014-06-24_21-00-13_260595134347_rgbf000120-resize_1/002057_2014-06-24_21-00-13_260595134347_rgbf000120-resize_1-target.png,250,2.967,3,5124,249,meters,jsons/v1_VE250_randls_26.json,1234382,1663231,28,Woman
35,981546,DepthScenes,duration_manipulation_targetAtFixation,jsons/v1_VE250_randls_26.json,http://54.235.29.9/FacialAge/BNav_EC2/DepthDuration/v2_depth_duration_MTurk/v2_DepthDuration_HTML.html#286,286,1366,768,1366,768,9-3-2022,12-36-38,36,depth_duration_stimuli/000709_2014-06-08_13-51-55_260595134347_rgbf000068-resize_3/000709_2014-06-08_13-51-55_260595134347_rgbf000068-resize_3-target.png,250,1.8030000000000002,2,4153,250,meters,jsons/v1_VE250_randls_26.json,1234382,1663231,28,Woman
36,981546,DepthScenes,duration_manipulation_targetAtFixation,jsons/v1_VE250_randls_26.json,http://54.235.29.9/FacialAge/BNav_EC2/DepthDuration/v2_depth_duration_MTurk/v2_DepthDuration_HTML.html#286,286,1366,768,1366,768,9-3-2022,12-36-38,37,depth_duration_stimuli/000906_2014-06-08_13-35-43_260595134347_rgbf000155-resize_1/000906_2014-06-08_13-35-43_260595134347_rgbf000155-resize_1-target.png,250,2.8489999999999998,3,8309,251,meters,jsons/v1_VE250_randls_26.json,1234382,1663231,28,Woman
37,981546,DepthScenes,duration_manipulation_targetAtFixation,jsons/v1_VE250_randls_26.json,http://54.235.29.9/FacialAge/BNav_EC2/DepthDuration/v2_depth_duration_MTurk/v2_DepthDuration_HTML.html#286,286,1366,768,1366,768,9-3-2022,12-36-38,38,depth_duration_stimuli/002805_2014-06-22_19-54-03_094959634447_rgbf000079-resize_1/002805_2014-06-22_19-54-03_094959634447_rgbf000079-resize_1-target.png,250,3.1439999999999997,2,4266,249,meters,jsons/v1_VE250_randls_26.json,1234382,1663231,28,Woman
38,981546,DepthScenes,duration_manipulation_targetAtFixation,jsons/v1_VE250_randls_26.json,http://54.235.29.9/FacialAge/BNav_EC2/DepthDuration/v2_depth_duration_MTurk/v2_DepthDuration_HTML.html#286,286,1366,768,1366,768,9-3-2022,12-36-38,39,depth_duration_stimuli/002725_2014-06-22_11-47-51_094959634447_rgbf000070-resize_1/002725_2014-06-22_11-47-51_094959634447_rgbf000070-resize_1-target.png,250,2.195,2,6917,251,meters,jsons/v1_VE250_randls_26.json,1234382,1663231,28,Woman
39,981546,DepthScenes,duration_manipulation_targetAtFixation,jsons/v1_VE250_randls_26.json,http://54.235.29.9/FacialAge/BNav_EC2/DepthDuration/v2_depth_duration_MTurk/v2_DepthDuration_HTML.html#286,286,1366,768,1366,768,9-3-2022,12-36-38,40,depth_duration_stimuli/002344_2014-06-28_20-06-29_260595134347_rgbf000030-resize_1/002344_2014-06-28_20-06-29_260595134347_rgbf000030-resize_1-target.png,250,1.5795,2,7317,249,meters,jsons/v1_VE250_randls_26.json,1234382,1663231,28,Woman
40,981546,DepthScenes,duration_manipulation_targetAtFixation,jsons/v1_VE250_randls_26.json,http://54.235.29.9/FacialAge/BNav_EC2/DepthDuration/v2_depth_duration_MTurk/v2_DepthDuration_HTML.html#286,286,1366,768,1366,768,9-3-2022,12-36-38,41,depth_duration_stimuli/002549_2014-06-24_13-41-39_094959634447_rgbf000022-resize_3/002549_2014-06-24_13-41-39_094959634447_rgbf000022-resize_3-target.png,250,1.476,1,5900,250,meters,jsons/v1_VE250_randls_26.json,1234382,1663231,28,Woman
41,981546,DepthScenes,duration_manipulation_targetAtFixation,jsons/v1_VE250_randls_26.json,http://54.235.29.9/FacialAge/BNav_EC2/DepthDuration/v2_depth_duration_MTurk/v2_DepthDuration_HTML.html#286,286,1366,768,1366,768,9-3-2022,12-36-38,42,depth_duration_stimuli/002750_2014-06-22_19-08-03_094959634447_rgbf000094-resize_4/002750_2014-06-22_19-08-03_094959634447_rgbf000094-resize_4-target.png,250,2.354,3,3792,249,meters,jsons/v1_VE250_randls_26.json,1234382,1663231,28,Woman
42,981546,DepthScenes,duration_manipulation_targetAtFixation,jsons/v1_VE250_randls_26.json,http://54.235.29.9/FacialAge/BNav_EC2/DepthDuration/v2_depth_duration_MTurk/v2_DepthDuration_HTML.html#286,286,1366,768,1366,768,9-3-2022,12-36-38,43,depth_duration_stimuli/003070_2014-06-15_14-58-27_094959634447_rgbf000150-resize_3/003070_2014-06-15_14-58-27_094959634447_rgbf000150-resize_3-target.png,250,2.9415,2,3615,249,meters,jsons/v1_VE250_randls_26.json,1234382,1663231,28,Woman
43,981546,DepthScenes,duration_manipulation_targetAtFixation,jsons/v1_VE250_randls_26.json,http://54.235.29.9/FacialAge/BNav_EC2/DepthDuration/v2_depth_duration_MTurk/v2_DepthDuration_HTML.html#286,286,1366,768,1366,768,9-3-2022,12-36-38,44,depth_duration_stimuli/000943_2014-06-09_19-31-07_260595134347_rgbf000128-resize_1/000943_2014-06-09_19-31-07_260595134347_rgbf000128-resize_1-target.png,250,1.9765,2,3699,250,meters,jsons/v1_VE250_randls_26.json,1234382,1663231,28,Woman
44,981546,DepthScenes,duration_manipulation_targetAtFixation,jsons/v1_VE250_randls_26.json,http://54.235.29.9/FacialAge/BNav_EC2/DepthDuration/v2_depth_duration_MTurk/v2_DepthDuration_HTML.html#286,286,1366,768,1366,768,9-3-2022,12-36-38,45,depth_duration_stimuli/000787_2014-06-08_22-33-53_260595134347_rgbf000175-resize_1/000787_2014-06-08_22-33-53_260595134347_rgbf000175-resize-original.jpg,250,4.784,1,4543,250,meters,jsons/v1_VE250_randls_26.json,1234382,1663231,28,Woman
45,981546,DepthScenes,duration_manipulation_targetAtFixation,jsons/v1_VE250_randls_26.json,http://54.235.29.9/FacialAge/BNav_EC2/DepthDuration/v2_depth_duration_MTurk/v2_DepthDuration_HTML.html#286,286,1366,768,1366,768,9-3-2022,12-36-38,46,depth_duration_stimuli/001555_2014-06-20_17-12-10_260595134347_rgbf000065-resize_4/001555_2014-06-20_17-12-10_260595134347_rgbf000065-resize_4-target.png,250,1.633,1,3561,252,meters,jsons/v1_VE250_randls_26.json,1234382,1663231,28,Woman
46,981546,DepthScenes,duration_manipulation_targetAtFixation,jsons/v1_VE250_randls_26.json,http://54.235.29.9/FacialAge/BNav_EC2/DepthDuration/v2_depth_duration_MTurk/v2_DepthDuration_HTML.html#286,286,1366,768,1366,768,9-3-2022,12-36-38,47,depth_duration_stimuli/000103_2014-05-14_22-01-17_260595134347_rgbf000152-resize_5/000103_2014-05-14_22-01-17_260595134347_rgbf000152-resize_5-target.png,250,1.993,2,4857,249,meters,jsons/v1_VE250_randls_26.json,1234382,1663231,28,Woman
47,981546,DepthScenes,duration_manipulation_targetAtFixation,jsons/v1_VE250_randls_26.json,http://54.235.29.9/FacialAge/BNav_EC2/DepthDuration/v2_depth_duration_MTurk/v2_DepthDuration_HTML.html#286,286,1366,768,1366,768,9-3-2022,12-36-38,48,depth_duration_stimuli/002600_2014-06-24_14-27-04_094959634447_rgbf000074-resize_2/002600_2014-06-24_14-27-04_094959634447_rgbf000074-resize_2-target.png,250,2.7575,3,4184,250,meters,jsons/v1_VE250_randls_26.json,1234382,1663231,28,Woman
48,981546,DepthScenes,duration_manipulation_targetAtFixation,jsons/v1_VE250_randls_26.json,http://54.235.29.9/FacialAge/BNav_EC2/DepthDuration/v2_depth_duration_MTurk/v2_DepthDuration_HTML.html#286,286,1366,768,1366,768,9-3-2022,12-36-38,49,depth_duration_stimuli/003228_2014-05-14_13-42-35_094959634447_rgbf000101-resize_1/003228_2014-05-14_13-42-35_094959634447_rgbf000101-resize_1-target.png,250,1.9680000000000002,1,5963,249,meters,jsons/v1_VE250_randls_26.json,1234382,1663231,28,Woman
49,981546,DepthScenes,duration_manipulation_targetAtFixation,jsons/v1_VE250_randls_26.json,http://54.235.29.9/FacialAge/BNav_EC2/DepthDuration/v2_depth_duration_MTurk/v2_DepthDuration_HTML.html#286,286,1366,768,1366,768,9-3-2022,12-36-38,50,depth_duration_stimuli/002663_2014-06-13_15-50-26_094959634447_rgbf000075-resize_1/002663_2014-06-13_15-50-26_094959634447_rgbf000075-resize_1-target.png,250,4.7495,2,4751,249,meters,jsons/v1_VE250_randls_26.json,1234382,1663231,28,Woman
50,981546,DepthScenes,duration_manipulation_targetAtFixation,jsons/v1_VE250_randls_26.json,http://54.235.29.9/FacialAge/BNav_EC2/DepthDuration/v2_depth_duration_MTurk/v2_DepthDuration_HTML.html#286,286,1366,768,1366,768,9-3-2022,12-36-38,51,depth_duration_stimuli/000409_2014-06-04_19-23-33_260595134347_rgbf000067-resize_0/000409_2014-06-04_19-23-33_260595134347_rgbf000067-resize_0-target.png,250,3.7335,3,4269,251,meters,jsons/v1_VE250_randls_26.json,1234382,1663231,28,Woman
51,981546,DepthScenes,duration_manipulation_targetAtFixation,jsons/v1_VE250_randls_26.json,http://54.235.29.9/FacialAge/BNav_EC2/DepthDuration/v2_depth_duration_MTurk/v2_DepthDuration_HTML.html#286,286,1366,768,1366,768,9-3-2022,12-36-38,52,depth_duration_stimuli/000788_2014-06-08_22-34-36_260595134347_rgbf000131-resize_1/000788_2014-06-08_22-34-36_260595134347_rgbf000131-resize_1-target.png,250,3.359,3,3605,250,meters,jsons/v1_VE250_randls_26.json,1234382,1663231,28,Woman
52,981546,DepthScenes,duration_manipulation_targetAtFixation,jsons/v1_VE250_randls_26.json,http://54.235.29.9/FacialAge/BNav_EC2/DepthDuration/v2_depth_duration_MTurk/v2_DepthDuration_HTML.html#286,286,1366,768,1366,768,9-3-2022,12-36-38,53,depth_duration_stimuli/001235_2014-06-17_16-37-36_260595134347_rgbf000084-resize_4/001235_2014-06-17_16-37-36_260595134347_rgbf000084-resize_4-target.png,250,3.6605,3,4297,250,meters,jsons/v1_VE250_randls_26.json,1234382,1663231,28,Woman
53,981546,DepthScenes,duration_manipulation_targetAtFixation,jsons/v1_VE250_randls_26.json,http://54.235.29.9/FacialAge/BNav_EC2/DepthDuration/v2_depth_duration_MTurk/v2_DepthDuration_HTML.html#286,286,1366,768,1366,768,9-3-2022,12-36-38,54,depth_duration_stimuli/001810_2014-06-26_20-51-35_260595134347_rgbf000040-resize_3/001810_2014-06-26_20-51-35_260595134347_rgbf000040-resize_3-target.png,250,2.2525,2,3779,249,meters,jsons/v1_VE250_randls_26.json,1234382,1663231,28,Woman
54,981546,DepthScenes,duration_manipulation_targetAtFixation,jsons/v1_VE250_randls_26.json,http://54.235.29.9/FacialAge/BNav_EC2/DepthDuration/v2_depth_duration_MTurk/v2_DepthDuration_HTML.html#286,286,1366,768,1366,768,9-3-2022,12-36-38,55,depth_duration_stimuli/003010_2014-06-15_12-54-35_094959634447_rgbf000112-resize_0/003010_2014-06-15_12-54-35_094959634447_rgbf000112-resize_0-target.png,250,3.1185,3,3852,249,meters,jsons/v1_VE250_randls_26.json,1234382,1663231,28,Woman
55,981546,DepthScenes,duration_manipulation_targetAtFixation,jsons/v1_VE250_randls_26.json,http://54.235.29.9/FacialAge/BNav_EC2/DepthDuration/v2_depth_duration_MTurk/v2_DepthDuration_HTML.html#286,286,1366,768,1366,768,9-3-2022,12-36-38,56,depth_duration_stimuli/001570_2014-06-20_17-21-09_260595134347_rgbf000135-resize_4/001570_2014-06-20_17-21-09_260595134347_rgbf000135-resize_4-target.png,250,4.467,2,5568,251,meters,jsons/v1_VE250_randls_26.json,1234382,1663231,28,Woman
56,981546,DepthScenes,duration_manipulation_targetAtFixation,jsons/v1_VE250_randls_26.json,http://54.235.29.9/FacialAge/BNav_EC2/DepthDuration/v2_depth_duration_MTurk/v2_DepthDuration_HTML.html#286,286,1366,768,1366,768,9-3-2022,12-36-38,57,depth_duration_stimuli/001392_2014-06-19_16-07-59_260595134347_rgbf000046-resize_1/001392_2014-06-19_16-07-59_260595134347_rgbf000046-resize_1-target.png,250,4.135,3,4794,250,meters,jsons/v1_VE250_randls_26.json,1234382,1663231,28,Woman
57,981546,DepthScenes,duration_manipulation_targetAtFixation,jsons/v1_VE250_randls_26.json,http://54.235.29.9/FacialAge/BNav_EC2/DepthDuration/v2_depth_duration_MTurk/v2_DepthDuration_HTML.html#286,286,1366,768,1366,768,9-3-2022,12-36-38,58,depth_duration_stimuli/001133_2014-06-17_14-49-16_260595134347_rgbf000100-resize_0/001133_2014-06-17_14-49-16_260595134347_rgbf000100-resize_0-target.png,250,4.2115,0,12139,249,meters,jsons/v1_VE250_randls_26.json,1234382,1663231,28,Woman
58,981546,DepthScenes,duration_manipulation_targetAtFixation,jsons/v1_VE250_randls_26.json,http://54.235.29.9/FacialAge/BNav_EC2/DepthDuration/v2_depth_duration_MTurk/v2_DepthDuration_HTML.html#286,286,1366,768,1366,768,9-3-2022,12-36-38,59,depth_duration_stimuli/001132_2014-06-17_14-48-54_260595134347_rgbf000100-resize_2/001132_2014-06-17_14-48-54_260595134347_rgbf000100-resize_2-target.png,250,3.753,2,4641,249,meters,jsons/v1_VE250_randls_26.json,1234382,1663231,28,Woman
59,981546,DepthScenes,duration_manipulation_targetAtFixation,jsons/v1_VE250_randls_26.json,http://54.235.29.9/FacialAge/BNav_EC2/DepthDuration/v2_depth_duration_MTurk/v2_DepthDuration_HTML.html#286,286,1366,768,1366,768,9-3-2022,12-36-38,60,depth_duration_stimuli/002118_2014-06-25_20-32-08_260595134347_rgbf000078-resize_1/002118_2014-06-25_20-32-08_260595134347_rgbf000078-resize_1-target.png,250,2.6460000000000004,3,5114,250,meters,jsons/v1_VE250_randls_26.json,1234382,1663231,28,Woman
60,981546,DepthScenes,duration_manipulation_targetAtFixation,jsons/v1_VE250_randls_26.json,http://54.235.29.9/FacialAge/BNav_EC2/DepthDuration/v2_depth_duration_MTurk/v2_DepthDuration_HTML.html#286,286,1366,768,1366,768,9-3-2022,12-36-38,61,depth_duration_stimuli/001516_2014-06-20_16-25-09_260595134347_rgbf000076-resize_2/001516_2014-06-20_16-25-09_260595134347_rgbf000076-resize_2-target.png,250,1.7445,3,3576,251,meters,jsons/v1_VE250_randls_26.json,1234382,1663231,28,Woman
61,981546,DepthScenes,duration_manipulation_targetAtFixation,jsons/v1_VE250_randls_26.json,http://54.235.29.9/FacialAge/BNav_EC2/DepthDuration/v2_depth_duration_MTurk/v2_DepthDuration_HTML.html#286,286,1366,768,1366,768,9-3-2022,12-36-38,62,depth_duration_stimuli/001806_2014-06-26_20-50-20_260595134347_rgbf000091-resize_1/001806_2014-06-26_20-50-20_260595134347_rgbf000091-resize_1-target.png,250,2.7305,2,3430,250,meters,jsons/v1_VE250_randls_26.json,1234382,1663231,28,Woman
62,981546,DepthScenes,duration_manipulation_targetAtFixation,jsons/v1_VE250_randls_26.json,http://54.235.29.9/FacialAge/BNav_EC2/DepthDuration/v2_depth_duration_MTurk/v2_DepthDuration_HTML.html#286,286,1366,768,1366,768,9-3-2022,12-36-38,63,depth_duration_stimuli/001617_2014-06-20_11-35-32_260595134347_rgbf000066-resize_1/001617_2014-06-20_11-35-32_260595134347_rgbf000066-resize_1-target.png,250,3.7910000000000004,3,5123,249,meters,jsons/v1_VE250_randls_26.json,1234382,1663231,28,Woman
63,981546,DepthScenes,duration_manipulation_targetAtFixation,jsons/v1_VE250_randls_26.json,http://54.235.29.9/FacialAge/BNav_EC2/DepthDuration/v2_depth_duration_MTurk/v2_DepthDuration_HTML.html#286,286,1366,768,1366,768,9-3-2022,12-36-38,64,depth_duration_stimuli/001066_2014-06-08_22-03-20_260595134347_rgbf000066-resize_4/001066_2014-06-08_22-03-20_260595134347_rgbf000066-resize_4-target.png,250,4.2330000000000005,2,5239,250,meters,jsons/v1_VE250_randls_26.json,1234382,1663231,28,Woman
64,981546,DepthScenes,duration_manipulation_targetAtFixation,jsons/v1_VE250_randls_26.json,http://54.235.29.9/FacialAge/BNav_EC2/DepthDuration/v2_depth_duration_MTurk/v2_DepthDuration_HTML.html#286,286,1366,768,1366,768,9-3-2022,12-36-38,65,depth_duration_stimuli/000742_2014-06-08_18-48-09_260595134347_rgbf000164-resize_4/000742_2014-06-08_18-48-09_260595134347_rgbf000164-resize_4-target.png,250,4.632,3,4331,251,meters,jsons/v1_VE250_randls_26.json,1234382,1663231,28,Woman
65,981546,DepthScenes,duration_manipulation_targetAtFixation,jsons/v1_VE250_randls_26.json,http://54.235.29.9/FacialAge/BNav_EC2/DepthDuration/v2_depth_duration_MTurk/v2_DepthDuration_HTML.html#286,286,1366,768,1366,768,9-3-2022,12-36-38,66,depth_duration_stimuli/001222_2014-06-17_16-24-06_260595134347_rgbf000073-resize_0/001222_2014-06-17_16-24-06_260595134347_rgbf000073-resize-original.jpg,250,1.4385,2,4766,251,meters,jsons/v1_VE250_randls_26.json,1234382,1663231,28,Woman
66,981546,DepthScenes,duration_manipulation_targetAtFixation,jsons/v1_VE250_randls_26.json,http://54.235.29.9/FacialAge/BNav_EC2/DepthDuration/v2_depth_duration_MTurk/v2_DepthDuration_HTML.html#286,286,1366,768,1366,768,9-3-2022,12-36-38,67,depth_duration_stimuli/001244_2014-06-17_16-47-45_260595134347_rgbf000030-resize_4/001244_2014-06-17_16-47-45_260595134347_rgbf000030-resize_4-target.png,250,2.0425,2,4783,251,meters,jsons/v1_VE250_randls_26.json,1234382,1663231,28,Woman
67,981546,DepthScenes,duration_manipulation_targetAtFixation,jsons/v1_VE250_randls_26.json,http://54.235.29.9/FacialAge/BNav_EC2/DepthDuration/v2_depth_duration_MTurk/v2_DepthDuration_HTML.html#286,286,1366,768,1366,768,9-3-2022,12-36-38,68,depth_duration_stimuli/003495_2014-05-21_16-01-51_094959634447_rgbf000100-resize_3/003495_2014-05-21_16-01-51_094959634447_rgbf000100-resize_3-target.png,250,1.6255,1,5716,251,meters,jsons/v1_VE250_randls_26.json,1234382,1663231,28,Woman
68,981546,DepthScenes,duration_manipulation_targetAtFixation,jsons/v1_VE250_randls_26.json,http://54.235.29.9/FacialAge/BNav_EC2/DepthDuration/v2_depth_duration_MTurk/v2_DepthDuration_HTML.html#286,286,1366,768,1366,768,9-3-2022,12-36-38,69,depth_duration_stimuli/000522_2014-06-08_13-35-06_260595134347_rgbf000244-resize_1/000522_2014-06-08_13-35-06_260595134347_rgbf000244-resize_1-target.png,250,2.3715,1,4338,249,meters,jsons/v1_VE250_randls_26.json,1234382,1663231,28,Woman
69,981546,DepthScenes,duration_manipulation_targetAtFixation,jsons/v1_VE250_randls_26.json,http://54.235.29.9/FacialAge/BNav_EC2/DepthDuration/v2_depth_duration_MTurk/v2_DepthDuration_HTML.html#286,286,1366,768,1366,768,9-3-2022,12-36-38,70,depth_duration_stimuli/002949_2014-06-26_15-57-42_094959634447_rgbf000079-resize_1/002949_2014-06-26_15-57-42_094959634447_rgbf000079-resize_1-target.png,250,1.8915,2,4537,251,meters,jsons/v1_VE250_randls_26.json,1234382,1663231,28,Woman
70,981546,DepthScenes,duration_manipulation_targetAtFixation,jsons/v1_VE250_randls_26.json,http://54.235.29.9/FacialAge/BNav_EC2/DepthDuration/v2_depth_duration_MTurk/v2_DepthDuration_HTML.html#286,286,1366,768,1366,768,9-3-2022,12-36-38,71,depth_duration_stimuli/001167_2014-06-17_15-38-07_260595134347_rgbf000108-resize_0/001167_2014-06-17_15-38-07_260595134347_rgbf000108-resize_0-target.png,250,1.8505,1,30549,249,meters,jsons/v1_VE250_randls_26.json,1234382,1663231,28,Woman
71,981546,DepthScenes,duration_manipulation_targetAtFixation,jsons/v1_VE250_randls_26.json,http://54.235.29.9/FacialAge/BNav_EC2/DepthDuration/v2_depth_duration_MTurk/v2_DepthDuration_HTML.html#286,286,1366,768,1366,768,9-3-2022,12-36-38,72,depth_duration_stimuli/003587_2014-05-23_16-48-02_094959634447_rgbf002384-resize_2/003587_2014-05-23_16-48-02_094959634447_rgbf002384-resize_2-target.png,250,1.357,1,4213,250,meters,jsons/v1_VE250_randls_26.json,1234382,1663231,28,Woman
72,981546,DepthScenes,duration_manipulation_targetAtFixation,jsons/v1_VE250_randls_26.json,http://54.235.29.9/FacialAge/BNav_EC2/DepthDuration/v2_depth_duration_MTurk/v2_DepthDuration_HTML.html#286,286,1366,768,1366,768,9-3-2022,12-36-38,73,depth_duration_stimuli/000773_2014-06-08_22-24-54_260595134347_rgbf000093-resize_1/000773_2014-06-08_22-24-54_260595134347_rgbf000093-resize_1-target.png,250,4.973,2,3812,249,meters,jsons/v1_VE250_randls_26.json,1234382,1663231,28,Woman
73,981546,DepthScenes,duration_manipulation_targetAtFixation,jsons/v1_VE250_randls_26.json,http://54.235.29.9/FacialAge/BNav_EC2/DepthDuration/v2_depth_duration_MTurk/v2_DepthDuration_HTML.html#286,286,1366,768,1366,768,9-3-2022,12-36-38,74,depth_duration_stimuli/002414_2014-06-28_20-24-58_260595134347_rgbf000067-resize_4/002414_2014-06-28_20-24-58_260595134347_rgbf000067-resize_4-target.png,250,4.363,3,3855,250,meters,jsons/v1_VE250_randls_26.json,1234382,1663231,28,Woman
74,981546,DepthScenes,duration_manipulation_targetAtFixation,jsons/v1_VE250_randls_26.json,http://54.235.29.9/FacialAge/BNav_EC2/DepthDuration/v2_depth_duration_MTurk/v2_DepthDuration_HTML.html#286,286,1366,768,1366,768,9-3-2022,12-36-38,75,depth_duration_stimuli/000414_2014-06-04_19-49-13_260595134347_rgbf000044-resize_0/000414_2014-06-04_19-49-13_260595134347_rgbf000044-resize_0-target.png,250,4.329,3,3782,250,meters,jsons/v1_VE250_randls_26.json,1234382,1663231,28,Woman
75,981546,DepthScenes,duration_manipulation_targetAtFixation,jsons/v1_VE250_randls_26.json,http://54.235.29.9/FacialAge/BNav_EC2/DepthDuration/v2_depth_duration_MTurk/v2_DepthDuration_HTML.html#286,286,1366,768,1366,768,9-3-2022,12-36-38,76,depth_duration_stimuli/003129_2014-05-12_10-48-10_094959634447_rgbf000100-resize_0/003129_2014-05-12_10-48-10_094959634447_rgbf000100-resize_0-target.png,250,4.9305,3,7481,251,meters,jsons/v1_VE250_randls_26.json,1234382,1663231,28,Woman
76,981546,DepthScenes,duration_manipulation_targetAtFixation,jsons/v1_VE250_randls_26.json,http://54.235.29.9/FacialAge/BNav_EC2/DepthDuration/v2_depth_duration_MTurk/v2_DepthDuration_HTML.html#286,286,1366,768,1366,768,9-3-2022,12-36-38,77,depth_duration_stimuli/000739_2014-06-08_18-45-58_260595134347_rgbf000068-resize_1/000739_2014-06-08_18-45-58_260595134347_rgbf000068-resize_1-target.png,250,3.534,2,3669,250,meters,jsons/v1_VE250_randls_26.json,1234382,1663231,28,Woman
77,981546,DepthScenes,duration_manipulation_targetAtFixation,jsons/v1_VE250_randls_26.json,http://54.235.29.9/FacialAge/BNav_EC2/DepthDuration/v2_depth_duration_MTurk/v2_DepthDuration_HTML.html#286,286,1366,768,1366,768,9-3-2022,12-36-38,78,depth_duration_stimuli/000734_2014-06-08_17-39-11_260595134347_rgbf000128-resize_2/000734_2014-06-08_17-39-11_260595134347_rgbf000128-resize_2-target.png,250,4.098,2,9213,251,meters,jsons/v1_VE250_randls_26.json,1234382,1663231,28,Woman
78,981546,DepthScenes,duration_manipulation_targetAtFixation,jsons/v1_VE250_randls_26.json,http://54.235.29.9/FacialAge/BNav_EC2/DepthDuration/v2_depth_duration_MTurk/v2_DepthDuration_HTML.html#286,286,1366,768,1366,768,9-3-2022,12-36-38,79,depth_duration_stimuli/000469_2014-06-09_19-42-10_260595134347_rgbf000081-resize_1/000469_2014-06-09_19-42-10_260595134347_rgbf000081-resize_1-target.png,250,1.652,1,3813,250,meters,jsons/v1_VE250_randls_26.json,1234382,1663231,28,Woman
79,981546,DepthScenes,duration_manipulation_targetAtFixation,jsons/v1_VE250_randls_26.json,http://54.235.29.9/FacialAge/BNav_EC2/DepthDuration/v2_depth_duration_MTurk/v2_DepthDuration_HTML.html#286,286,1366,768,1366,768,9-3-2022,12-36-38,80,depth_duration_stimuli/000483_2014-06-09_20-41-45_260595134347_rgbf000116-resize_4/000483_2014-06-09_20-41-45_260595134347_rgbf000116-resize_4-target.png,250,1.337,1,5177,251,meters,jsons/v1_VE250_randls_26.json,1234382,1663231,28,Woman
80,981546,DepthScenes,duration_manipulation_targetAtFixation,jsons/v1_VE250_randls_26.json,http://54.235.29.9/FacialAge/BNav_EC2/DepthDuration/v2_depth_duration_MTurk/v2_DepthDuration_HTML.html#286,286,1366,768,1366,768,9-3-2022,12-36-38,81,depth_duration_stimuli/003534_2014-05-22_15-06-10_094959634447_rgbf000102-resize_4/003534_2014-05-22_15-06-10_094959634447_rgbf000102-resize_4-target.png,250,1.426,1,6169,250,meters,jsons/v1_VE250_randls_26.json,1234382,1663231,28,Woman
81,981546,DepthScenes,duration_manipulation_targetAtFixation,jsons/v1_VE250_randls_26.json,http://54.235.29.9/FacialAge/BNav_EC2/DepthDuration/v2_depth_duration_MTurk/v2_DepthDuration_HTML.html#286,286,1366,768,1366,768,9-3-2022,12-36-38,82,depth_duration_stimuli/002637_2014-06-24_14-51-13_094959634447_rgbf000066-resize_4/002637_2014-06-24_14-51-13_094959634447_rgbf000066-resize_4-target.png,250,1.9955,2,3729,249,meters,jsons/v1_VE250_randls_26.json,1234382,1663231,28,Woman
82,981546,DepthScenes,duration_manipulation_targetAtFixation,jsons/v1_VE250_randls_26.json,http://54.235.29.9/FacialAge/BNav_EC2/DepthDuration/v2_depth_duration_MTurk/v2_DepthDuration_HTML.html#286,286,1366,768,1366,768,9-3-2022,12-36-38,83,depth_duration_stimuli/000642_2014-06-08_16-59-25_260595134347_rgbf000098-resize_2/000642_2014-06-08_16-59-25_260595134347_rgbf000098-resize_2-target.png,250,2.8815,3,3843,251,meters,jsons/v1_VE250_randls_26.json,1234382,1663231,28,Woman
83,981546,DepthScenes,duration_manipulation_targetAtFixation,jsons/v1_VE250_randls_26.json,http://54.235.29.9/FacialAge/BNav_EC2/DepthDuration/v2_depth_duration_MTurk/v2_DepthDuration_HTML.html#286,286,1366,768,1366,768,9-3-2022,12-36-38,84,depth_duration_stimuli/002425_2014-06-28_20-27-29_260595134347_rgbf000031-resize_8/002425_2014-06-28_20-27-29_260595134347_rgbf000031-resize_8-target.png,250,3.8960000000000004,3,5218,250,meters,jsons/v1_VE250_randls_26.json,1234382,1663231,28,Woman
84,981546,DepthScenes,duration_manipulation_targetAtFixation,jsons/v1_VE250_randls_26.json,http://54.235.29.9/FacialAge/BNav_EC2/DepthDuration/v2_depth_duration_MTurk/v2_DepthDuration_HTML.html#286,286,1366,768,1366,768,9-3-2022,12-36-38,85,depth_duration_stimuli/001011_2014-06-08_23-18-54_260595134347_rgbf000044-resize_4/001011_2014-06-08_23-18-54_260595134347_rgbf000044-resize_4-target.png,250,2.4730000000000003,3,7640,249,meters,jsons/v1_VE250_randls_26.json,1234382,1663231,28,Woman
85,981546,DepthScenes,duration_manipulation_targetAtFixation,jsons/v1_VE250_randls_26.json,http://54.235.29.9/FacialAge/BNav_EC2/DepthDuration/v2_depth_duration_MTurk/v2_DepthDuration_HTML.html#286,286,1366,768,1366,768,9-3-2022,12-36-38,86,depth_duration_stimuli/002875_2014-06-01_15-19-00_094959634447_rgbf000151-resize_1/002875_2014-06-01_15-19-00_094959634447_rgbf000151-resize_1-target.png,250,1.9675,2,4006,251,meters,jsons/v1_VE250_randls_26.json,1234382,1663231,28,Woman
86,981546,DepthScenes,duration_manipulation_targetAtFixation,jsons/v1_VE250_randls_26.json,http://54.235.29.9/FacialAge/BNav_EC2/DepthDuration/v2_depth_duration_MTurk/v2_DepthDuration_HTML.html#286,286,1366,768,1366,768,9-3-2022,12-36-38,87,depth_duration_stimuli/001092_2014-06-15_17-34-58_260595134347_rgbf000171-resize_3/001092_2014-06-15_17-34-58_260595134347_rgbf000171-resize_3-target.png,250,2.6935,2,3398,250,meters,jsons/v1_VE250_randls_26.json,1234382,1663231,28,Woman
87,981546,DepthScenes,duration_manipulation_targetAtFixation,jsons/v1_VE250_randls_26.json,http://54.235.29.9/FacialAge/BNav_EC2/DepthDuration/v2_depth_duration_MTurk/v2_DepthDuration_HTML.html#286,286,1366,768,1366,768,9-3-2022,12-36-38,88,depth_duration_stimuli/002545_2014-06-24_13-38-53_094959634447_rgbf000080-resize_4/002545_2014-06-24_13-38-53_094959634447_rgbf000080-resize_4-target.png,250,1.9205,1,4338,249,meters,jsons/v1_VE250_randls_26.json,1234382,1663231,28,Woman
88,981546,DepthScenes,duration_manipulation_targetAtFixation,jsons/v1_VE250_randls_26.json,http://54.235.29.9/FacialAge/BNav_EC2/DepthDuration/v2_depth_duration_MTurk/v2_DepthDuration_HTML.html#286,286,1366,768,1366,768,9-3-2022,12-36-38,89,depth_duration_stimuli/002375_2014-06-28_20-13-44_260595134347_rgbf000032-resize_1/002375_2014-06-28_20-13-44_260595134347_rgbf000032-resize_1-target.png,250,4.0175,2,6823,251,meters,jsons/v1_VE250_randls_26.json,1234382,1663231,28,Woman
89,981546,DepthScenes,duration_manipulation_targetAtFixation,jsons/v1_VE250_randls_26.json,http://54.235.29.9/FacialAge/BNav_EC2/DepthDuration/v2_depth_duration_MTurk/v2_DepthDuration_HTML.html#286,286,1366,768,1366,768,9-3-2022,12-36-38,90,depth_duration_stimuli/002657_2014-06-13_15-29-54_094959634447_rgbf000150-resize_1/002657_2014-06-13_15-29-54_094959634447_rgbf000150-resize_1-target.png,250,4.919,2,5187,250,meters,jsons/v1_VE250_randls_26.json,1234382,1663231,28,Woman
90,981546,DepthScenes,duration_manipulation_targetAtFixation,jsons/v1_VE250_randls_26.json,http://54.235.29.9/FacialAge/BNav_EC2/DepthDuration/v2_depth_duration_MTurk/v2_DepthDuration_HTML.html#286,286,1366,768,1366,768,9-3-2022,12-36-38,91,depth_duration_stimuli/000682_2014-06-08_23-14-58_260595134347_rgbf000041-resize_5/000682_2014-06-08_23-14-58_260595134347_rgbf000041-resize_5-target.png,250,2.7239999999999998,2,3966,250,meters,jsons/v1_VE250_randls_26.json,1234382,1663231,28,Woman
91,981546,DepthScenes,duration_manipulation_targetAtFixation,jsons/v1_VE250_randls_26.json,http://54.235.29.9/FacialAge/BNav_EC2/DepthDuration/v2_depth_duration_MTurk/v2_DepthDuration_HTML.html#286,286,1366,768,1366,768,9-3-2022,12-36-38,92,depth_duration_stimuli/001650_2014-06-20_12-09-00_260595134347_rgbf000087-resize_3/001650_2014-06-20_12-09-00_260595134347_rgbf000087-resize_3-target.png,250,1.9505,1,198630,249,meters,jsons/v1_VE250_randls_26.json,1234382,1663231,28,Woman
92,981546,DepthScenes,duration_manipulation_targetAtFixation,jsons/v1_VE250_randls_26.json,http://54.235.29.9/FacialAge/BNav_EC2/DepthDuration/v2_depth_duration_MTurk/v2_DepthDuration_HTML.html#286,286,1366,768,1366,768,9-3-2022,12-36-38,93,depth_duration_stimuli/003292_2014-05-14_21-53-49_094959634447_rgbf000100-resize_2/003292_2014-05-14_21-53-49_094959634447_rgbf000100-resize_2-target.png,250,3.4815,2,5526,249,meters,jsons/v1_VE250_randls_26.json,1234382,1663231,28,Woman
93,981546,DepthScenes,duration_manipulation_targetAtFixation,jsons/v1_VE250_randls_26.json,http://54.235.29.9/FacialAge/BNav_EC2/DepthDuration/v2_depth_duration_MTurk/v2_DepthDuration_HTML.html#286,286,1366,768,1366,768,9-3-2022,12-36-38,94,depth_duration_stimuli/002639_2014-06-24_14-51-37_094959634447_rgbf000074-resize_4/002639_2014-06-24_14-51-37_094959634447_rgbf000074-resize_4-target.png,250,4.0375,3,3068,251,meters,jsons/v1_VE250_randls_26.json,1234382,1663231,28,Woman
94,981546,DepthScenes,duration_manipulation_targetAtFixation,jsons/v1_VE250_randls_26.json,http://54.235.29.9/FacialAge/BNav_EC2/DepthDuration/v2_depth_duration_MTurk/v2_DepthDuration_HTML.html#286,286,1366,768,1366,768,9-3-2022,12-36-38,95,depth_duration_stimuli/000486_2014-06-09_20-47-20_260595134347_rgbf000143-resize_2/000486_2014-06-09_20-47-20_260595134347_rgbf000143-resize_2-target.png,250,4.8325,3,3553,249,meters,jsons/v1_VE250_randls_26.json,1234382,1663231,28,Woman
95,981546,DepthScenes,duration_manipulation_targetAtFixation,jsons/v1_VE250_randls_26.json,http://54.235.29.9/FacialAge/BNav_EC2/DepthDuration/v2_depth_duration_MTurk/v2_DepthDuration_HTML.html#286,286,1366,768,1366,768,9-3-2022,12-36-38,96,depth_duration_stimuli/003083_2014-06-15_15-21-03_094959634447_rgbf000063-resize_1/003083_2014-06-15_15-21-03_094959634447_rgbf000063-resize_1-target.png,250,4.1405,3,6324,249,meters,jsons/v1_VE250_randls_26.json,1234382,1663231,28,Woman
96,981546,DepthScenes,duration_manipulation_targetAtFixation,jsons/v1_VE250_randls_26.json,http://54.235.29.9/FacialAge/BNav_EC2/DepthDuration/v2_depth_duration_MTurk/v2_DepthDuration_HTML.html#286,286,1366,768,1366,768,9-3-2022,12-36-38,97,depth_duration_stimuli/001175_2014-06-17_15-45-55_260595134347_rgbf000129-resize_4/001175_2014-06-17_15-45-55_260595134347_rgbf000129-resize_4-target.png,250,4.255,3,3573,249,meters,jsons/v1_VE250_randls_26.json,1234382,1663231,28,Woman
97,981546,DepthScenes,duration_manipulation_targetAtFixation,jsons/v1_VE250_randls_26.json,http://54.235.29.9/FacialAge/BNav_EC2/DepthDuration/v2_depth_duration_MTurk/v2_DepthDuration_HTML.html#286,286,1366,768,1366,768,9-3-2022,12-36-38,98,depth_duration_stimuli/003490_2014-05-21_15-50-11_094959634447_rgbf000101-resize_3/003490_2014-05-21_15-50-11_094959634447_rgbf000101-resize_3-target.png,250,3.6445,2,4165,250,meters,jsons/v1_VE250_randls_26.json,1234382,1663231,28,Woman
98,981546,DepthScenes,duration_manipulation_targetAtFixation,jsons/v1_VE250_randls_26.json,http://54.235.29.9/FacialAge/BNav_EC2/DepthDuration/v2_depth_duration_MTurk/v2_DepthDuration_HTML.html#286,286,1366,768,1366,768,9-3-2022,12-36-38,99,depth_duration_stimuli/001540_2014-06-20_17-01-05_260595134347_rgbf000086-resize_2/001540_2014-06-20_17-01-05_260595134347_rgbf000086-resize-original.jpg,250,1.459,2,4275,251,meters,jsons/v1_VE250_randls_26.json,1234382,1663231,28,Woman
99,981546,DepthScenes,duration_manipulation_targetAtFixation,jsons/v1_VE250_randls_26.json,http://54.235.29.9/FacialAge/BNav_EC2/DepthDuration/v2_depth_duration_MTurk/v2_DepthDuration_HTML.html#286,286,1366,768,1366,768,9-3-2022,12-36-38,100,depth_duration_stimuli/001808_2014-06-26_20-50-58_260595134347_rgbf000029-resize_1/001808_2014-06-26_20-50-58_260595134347_rgbf000029-resize_1-target.png,250,4.249,3,3594,249,meters,jsons/v1_VE250_randls_26.json,1234382,1663231,28,Woman
100,981546,DepthScenes,duration_manipulation_targetAtFixation,jsons/v1_VE250_randls_26.json,http://54.235.29.9/FacialAge/BNav_EC2/DepthDuration/v2_depth_duration_MTurk/v2_DepthDuration_HTML.html#286,286,1366,768,1366,768,9-3-2022,12-36-38,101,depth_duration_stimuli/001815_2014-06-26_20-52-55_260595134347_rgbf000020-resize_0/001815_2014-06-26_20-52-55_260595134347_rgbf000020-resize_0-target.png,250,3.3865,3,4692,250,meters,jsons/v1_VE250_randls_26.json,1234382,1663231,28,Woman
101,981546,DepthScenes,duration_manipulation_targetAtFixation,jsons/v1_VE250_randls_26.json,http://54.235.29.9/FacialAge/BNav_EC2/DepthDuration/v2_depth_duration_MTurk/v2_DepthDuration_HTML.html#286,286,1366,768,1366,768,9-3-2022,12-36-38,102,depth_duration_stimuli/003492_2014-05-21_15-50-55_094959634447_rgbf000828-resize_1/003492_2014-05-21_15-50-55_094959634447_rgbf000828-resize_1-target.png,250,4.06875,3,3068,251,meters,jsons/v1_VE250_randls_26.json,1234382,1663231,28,Woman
102,981546,DepthScenes,duration_manipulation_targetAtFixation,jsons/v1_VE250_randls_26.json,http://54.235.29.9/FacialAge/BNav_EC2/DepthDuration/v2_depth_duration_MTurk/v2_DepthDuration_HTML.html#286,286,1366,768,1366,768,9-3-2022,12-36-38,103,depth_duration_stimuli/002568_2014-06-24_13-59-21_094959634447_rgbf000062-resize_4/002568_2014-06-24_13-59-21_094959634447_rgbf000062-resize_4-target.png,250,3.015,2,16532,250,meters,jsons/v1_VE250_randls_26.json,1234382,1663231,28,Woman
103,981546,DepthScenes,duration_manipulation_targetAtFixation,jsons/v1_VE250_randls_26.json,http://54.235.29.9/FacialAge/BNav_EC2/DepthDuration/v2_depth_duration_MTurk/v2_DepthDuration_HTML.html#286,286,1366,768,1366,768,9-3-2022,12-36-38,104,depth_duration_stimuli/003621_2014-05-23_18-06-08_094959634447_rgbf000101-resize_1/003621_2014-05-23_18-06-08_094959634447_rgbf000101-resize_1-target.png,250,3.9835,3,6310,251,meters,jsons/v1_VE250_randls_26.json,1234382,1663231,28,Woman
104,981546,DepthScenes,duration_manipulation_targetAtFixation,jsons/v1_VE250_randls_26.json,http://54.235.29.9/FacialAge/BNav_EC2/DepthDuration/v2_depth_duration_MTurk/v2_DepthDuration_HTML.html#286,286,1366,768,1366,768,9-3-2022,12-36-38,105,depth_duration_stimuli/001584_2014-06-20_11-07-43_260595134347_rgbf000002-resize_1/001584_2014-06-20_11-07-43_260595134347_rgbf000002-resize_1-target.png,250,3.53,3,6901,249,meters,jsons/v1_VE250_randls_26.json,1234382,1663231,28,Woman
105,981546,DepthScenes,duration_manipulation_targetAtFixation,jsons/v1_VE250_randls_26.json,http://54.235.29.9/FacialAge/BNav_EC2/DepthDuration/v2_depth_duration_MTurk/v2_DepthDuration_HTML.html#286,286,1366,768,1366,768,9-3-2022,12-36-38,106,depth_duration_stimuli/001059_2014-06-08_21-53-27_260595134347_rgbf000061-resize_4/001059_2014-06-08_21-53-27_260595134347_rgbf000061-resize_4-target.png,250,2.4185,2,3976,249,meters,jsons/v1_VE250_randls_26.json,1234382,1663231,28,Woman
106,981546,DepthScenes,duration_manipulation_targetAtFixation,jsons/v1_VE250_randls_26.json,http://54.235.29.9/FacialAge/BNav_EC2/DepthDuration/v2_depth_duration_MTurk/v2_DepthDuration_HTML.html#286,286,1366,768,1366,768,9-3-2022,12-36-38,107,depth_duration_stimuli/001032_2014-06-08_13-23-17_260595134347_rgbf000021-resize_3/001032_2014-06-08_13-23-17_260595134347_rgbf000021-resize_3-target.png,250,3.2725,3,3737,250,meters,jsons/v1_VE250_randls_26.json,1234382,1663231,28,Woman
107,981546,DepthScenes,duration_manipulation_targetAtFixation,jsons/v1_VE250_randls_26.json,http://54.235.29.9/FacialAge/BNav_EC2/DepthDuration/v2_depth_duration_MTurk/v2_DepthDuration_HTML.html#286,286,1366,768,1366,768,9-3-2022,12-36-38,108,depth_duration_stimuli/002748_2014-06-22_19-07-22_094959634447_rgbf000078-resize_1/002748_2014-06-22_19-07-22_094959634447_rgbf000078-resize_1-target.png,250,4.6705,3,3543,248,meters,jsons/v1_VE250_randls_26.json,1234382,1663231,28,Woman
108,981546,DepthScenes,duration_manipulation_targetAtFixation,jsons/v1_VE250_randls_26.json,http://54.235.29.9/FacialAge/BNav_EC2/DepthDuration/v2_depth_duration_MTurk/v2_DepthDuration_HTML.html#286,286,1366,768,1366,768,9-3-2022,12-36-38,109,depth_duration_stimuli/002995_2014-06-15_12-31-26_094959634447_rgbf000150-resize_1/002995_2014-06-15_12-31-26_094959634447_rgbf000150-resize_1-target.png,250,3.8360000000000003,2,3915,251,meters,jsons/v1_VE250_randls_26.json,1234382,1663231,28,Woman
109,981546,DepthScenes,duration_manipulation_targetAtFixation,jsons/v1_VE250_randls_26.json,http://54.235.29.9/FacialAge/BNav_EC2/DepthDuration/v2_depth_duration_MTurk/v2_DepthDuration_HTML.html#286,286,1366,768,1366,768,9-3-2022,12-36-38,110,depth_duration_stimuli/002763_2014-06-22_19-13-10_094959634447_rgbf000075-resize_4/002763_2014-06-22_19-13-10_094959634447_rgbf000075-resize_4-target.png,250,1.68375,3,6181,249,meters,jsons/v1_VE250_randls_26.json,1234382,1663231,28,Woman
110,981546,DepthScenes,duration_manipulation_targetAtFixation,jsons/v1_VE250_randls_26.json,http://54.235.29.9/FacialAge/BNav_EC2/DepthDuration/v2_depth_duration_MTurk/v2_DepthDuration_HTML.html#286,286,1366,768,1366,768,9-3-2022,12-36-38,111,depth_duration_stimuli/002209_2014-06-28_18-36-10_260595134347_rgbf000051-resize_1/002209_2014-06-28_18-36-10_260595134347_rgbf000051-resize_1-target.png,250,2.057,2,11878,251,meters,jsons/v1_VE250_randls_26.json,1234382,1663231,28,Woman
111,981546,DepthScenes,duration_manipulation_targetAtFixation,jsons/v1_VE250_randls_26.json,http://54.235.29.9/FacialAge/BNav_EC2/DepthDuration/v2_depth_duration_MTurk/v2_DepthDuration_HTML.html#286,286,1366,768,1366,768,9-3-2022,12-36-38,112,depth_duration_stimuli/001417_2014-06-19_16-25-36_260595134347_rgbf000115-resize_5/001417_2014-06-19_16-25-36_260595134347_rgbf000115-resize_5-target.png,250,4.6255,3,5052,249,meters,jsons/v1_VE250_randls_26.json,1234382,1663231,28,Woman
112,981546,DepthScenes,duration_manipulation_targetAtFixation,jsons/v1_VE250_randls_26.json,http://54.235.29.9/FacialAge/BNav_EC2/DepthDuration/v2_depth_duration_MTurk/v2_DepthDuration_HTML.html#286,286,1366,768,1366,768,9-3-2022,12-36-38,113,depth_duration_stimuli/003081_2014-06-15_15-19-16_094959634447_rgbf000150-resize_1/003081_2014-06-15_15-19-16_094959634447_rgbf000150-resize_1-target.png,250,3.9125,1,5353,249,meters,jsons/v1_VE250_randls_26.json,1234382,1663231,28,Woman
113,981546,DepthScenes,duration_manipulation_targetAtFixation,jsons/v1_VE250_randls_26.json,http://54.235.29.9/FacialAge/BNav_EC2/DepthDuration/v2_depth_duration_MTurk/v2_DepthDuration_HTML.html#286,286,1366,768,1366,768,9-3-2022,12-36-38,114,depth_duration_stimuli/001056_2014-06-08_18-46-44_260595134347_rgbf000068-resize_0/001056_2014-06-08_18-46-44_260595134347_rgbf000068-resize_0-target.png,250,2.6625,2,4175,251,meters,jsons/v1_VE250_randls_26.json,1234382,1663231,28,Woman
114,981546,DepthScenes,duration_manipulation_targetAtFixation,jsons/v1_VE250_randls_26.json,http://54.235.29.9/FacialAge/BNav_EC2/DepthDuration/v2_depth_duration_MTurk/v2_DepthDuration_HTML.html#286,286,1366,768,1366,768,9-3-2022,12-36-38,115,depth_duration_stimuli/002199_2014-06-28_18-33-56_260595134347_rgbf000074-resize_0/002199_2014-06-28_18-33-56_260595134347_rgbf000074-resize_0-target.png,250,1.996,1,3906,251,meters,jsons/v1_VE250_randls_26.json,1234382,1663231,28,Woman
115,981546,DepthScenes,duration_manipulation_targetAtFixation,jsons/v1_VE250_randls_26.json,http://54.235.29.9/FacialAge/BNav_EC2/DepthDuration/v2_depth_duration_MTurk/v2_DepthDuration_HTML.html#286,286,1366,768,1366,768,9-3-2022,12-36-38,116,depth_duration_stimuli/001170_2014-06-17_15-43-44_260595134347_rgbf000096-resize_6/001170_2014-06-17_15-43-44_260595134347_rgbf000096-resize-original.jpg,250,1.1909999999999998,2,3731,251,meters,jsons/v1_VE250_randls_26.json,1234382,1663231,28,Woman
116,981546,DepthScenes,duration_manipulation_targetAtFixation,jsons/v1_VE250_randls_26.json,http://54.235.29.9/FacialAge/BNav_EC2/DepthDuration/v2_depth_duration_MTurk/v2_DepthDuration_HTML.html#286,286,1366,768,1366,768,9-3-2022,12-36-38,117,depth_duration_stimuli/001199_2014-06-17_16-03-48_260595134347_rgbf000077-resize_0/001199_2014-06-17_16-03-48_260595134347_rgbf000077-resize_0-target.png,250,3.4375,3,4618,250,meters,jsons/v1_VE250_randls_26.json,1234382,1663231,28,Woman
117,981546,DepthScenes,duration_manipulation_targetAtFixation,jsons/v1_VE250_randls_26.json,http://54.235.29.9/FacialAge/BNav_EC2/DepthDuration/v2_depth_duration_MTurk/v2_DepthDuration_HTML.html#286,286,1366,768,1366,768,9-3-2022,12-36-38,118,depth_duration_stimuli/000502_2014-06-08_23-02-32_260595134347_rgbf000063-resize_4/000502_2014-06-08_23-02-32_260595134347_rgbf000063-resize_4-target.png,250,2.431,2,6220,248,meters,jsons/v1_VE250_randls_26.json,1234382,1663231,28,Woman
118,981546,DepthScenes,duration_manipulation_targetAtFixation,jsons/v1_VE250_randls_26.json,http://54.235.29.9/FacialAge/BNav_EC2/DepthDuration/v2_depth_duration_MTurk/v2_DepthDuration_HTML.html#286,286,1366,768,1366,768,9-3-2022,12-36-38,119,depth_duration_stimuli/000506_2014-06-08_23-21-00_260595134347_rgbf000070-resize_7/000506_2014-06-08_23-21-00_260595134347_rgbf000070-resize_7-target.png,250,4.0585,3,3393,250,meters,jsons/v1_VE250_randls_26.json,1234382,1663231,28,Woman
119,981546,DepthScenes,duration_manipulation_targetAtFixation,jsons/v1_VE250_randls_26.json,http://54.235.29.9/FacialAge/BNav_EC2/DepthDuration/v2_depth_duration_MTurk/v2_DepthDuration_HTML.html#286,286,1366,768,1366,768,9-3-2022,12-36-38,120,depth_duration_stimuli/003079_2014-06-15_15-18-20_094959634447_rgbf000152-resize_8/003079_2014-06-15_15-18-20_094959634447_rgbf000152-resize_8-target.png,250,2.8775,3,3595,250,meters,jsons/v1_VE250_randls_26.json,1234382,1663231,28,Woman
120,981546,DepthScenes,duration_manipulation_targetAtFixation,jsons/v1_VE250_randls_26.json,http://54.235.29.9/FacialAge/BNav_EC2/DepthDuration/v2_depth_duration_MTurk/v2_DepthDuration_HTML.html#286,286,1366,768,1366,768,9-3-2022,12-36-38,121,depth_duration_stimuli/002964_2014-06-08_17-46-11_094959634447_rgbf000091-resize_4/002964_2014-06-08_17-46-11_094959634447_rgbf000091-resize_4-target.png,250,1.6909999999999998,2,3666,249,meters,jsons/v1_VE250_randls_26.json,1234382,1663231,28,Woman
121,981546,DepthScenes,duration_manipulation_targetAtFixation,jsons/v1_VE250_randls_26.json,http://54.235.29.9/FacialAge/BNav_EC2/DepthDuration/v2_depth_duration_MTurk/v2_DepthDuration_HTML.html#286,286,1366,768,1366,768,9-3-2022,12-36-38,122,depth_duration_stimuli/002136_2014-06-25_21-18-03_260595134347_rgbf000109-resize_3/002136_2014-06-25_21-18-03_260595134347_rgbf000109-resize_3-target.png,250,1.9569999999999999,2,3832,249,meters,jsons/v1_VE250_randls_26.json,1234382,1663231,28,Woman
122,981546,DepthScenes,duration_manipulation_targetAtFixation,jsons/v1_VE250_randls_26.json,http://54.235.29.9/FacialAge/BNav_EC2/DepthDuration/v2_depth_duration_MTurk/v2_DepthDuration_HTML.html#286,286,1366,768,1366,768,9-3-2022,12-36-38,123,depth_duration_stimuli/000736_2014-06-08_18-24-15_260595134347_rgbf000206-resize_3/000736_2014-06-08_18-24-15_260595134347_rgbf000206-resize_3-target.png,250,3.515,3,3791,250,meters,jsons/v1_VE250_randls_26.json,1234382,1663231,28,Woman
123,981546,DepthScenes,duration_manipulation_targetAtFixation,jsons/v1_VE250_randls_26.json,http://54.235.29.9/FacialAge/BNav_EC2/DepthDuration/v2_depth_duration_MTurk/v2_DepthDuration_HTML.html#286,286,1366,768,1366,768,9-3-2022,12-36-38,124,depth_duration_stimuli/000137_2014-05-20_17-04-49_260595134347_rgbf000120-resize_1/000137_2014-05-20_17-04-49_260595134347_rgbf000120-resize_1-target.png,250,3.786,2,3801,249,meters,jsons/v1_VE250_randls_26.json,1234382,1663231,28,Woman
124,981546,DepthScenes,duration_manipulation_targetAtFixation,jsons/v1_VE250_randls_26.json,http://54.235.29.9/FacialAge/BNav_EC2/DepthDuration/v2_depth_duration_MTurk/v2_DepthDuration_HTML.html#286,286,1366,768,1366,768,9-3-2022,12-36-38,125,depth_duration_stimuli/002570_2014-06-24_13-59-54_094959634447_rgbf000059-resize_0/002570_2014-06-24_13-59-54_094959634447_rgbf000059-resize_0-target.png,250,4.037,2,5115,250,meters,jsons/v1_VE250_randls_26.json,1234382,1663231,28,Woman
125,981546,DepthScenes,duration_manipulation_targetAtFixation,jsons/v1_VE250_randls_26.json,http://54.235.29.9/FacialAge/BNav_EC2/DepthDuration/v2_depth_duration_MTurk/v2_DepthDuration_HTML.html#286,286,1366,768,1366,768,9-3-2022,12-36-38,126,depth_duration_stimuli/002467_2014-06-28_20-38-07_260595134347_rgbf000026-resize_2/002467_2014-06-28_20-38-07_260595134347_rgbf000026-resize_2-target.png,250,4.742,3,7719,251,meters,jsons/v1_VE250_randls_26.json,1234382,1663231,28,Woman
126,981546,DepthScenes,duration_manipulation_targetAtFixation,jsons/v1_VE250_randls_26.json,http://54.235.29.9/FacialAge/BNav_EC2/DepthDuration/v2_depth_duration_MTurk/v2_DepthDuration_HTML.html#286,286,1366,768,1366,768,9-3-2022,12-36-38,127,depth_duration_stimuli/001449_2014-06-19_17-01-27_260595134347_rgbf000116-resize_2/001449_2014-06-19_17-01-27_260595134347_rgbf000116-resize_2-target.png,250,3.452,1,19738,249,meters,jsons/v1_VE250_randls_26.json,1234382,1663231,28,Woman
127,981546,DepthScenes,duration_manipulation_targetAtFixation,jsons/v1_VE250_randls_26.json,http://54.235.29.9/FacialAge/BNav_EC2/DepthDuration/v2_depth_duration_MTurk/v2_DepthDuration_HTML.html#286,286,1366,768,1366,768,9-3-2022,12-36-38,128,depth_duration_stimuli/001450_2014-06-19_17-02-03_260595134347_rgbf000203-resize_4/001450_2014-06-19_17-02-03_260595134347_rgbf000203-resize_4-target.png,250,4.0106666666667,3,3667,250,meters,jsons/v1_VE250_randls_26.json,1234382,1663231,28,Woman
128,981546,DepthScenes,duration_manipulation_targetAtFixation,jsons/v1_VE250_randls_26.json,http://54.235.29.9/FacialAge/BNav_EC2/DepthDuration/v2_depth_duration_MTurk/v2_DepthDuration_HTML.html#286,286,1366,768,1366,768,9-3-2022,12-36-38,129,depth_duration_stimuli/001055_2014-06-08_18-45-35_260595134347_rgbf000111-resize_4/001055_2014-06-08_18-45-35_260595134347_rgbf000111-resize_4-target.png,250,2.4290000000000003,2,4661,249,meters,jsons/v1_VE250_randls_26.json,1234382,1663231,28,Woman
129,981546,DepthScenes,duration_manipulation_targetAtFixation,jsons/v1_VE250_randls_26.json,http://54.235.29.9/FacialAge/BNav_EC2/DepthDuration/v2_depth_duration_MTurk/v2_DepthDuration_HTML.html#286,286,1366,768,1366,768,9-3-2022,12-36-38,130,depth_duration_stimuli/000549_2014-06-08_22-10-24_260595134347_rgbf000247-resize_3/000549_2014-06-08_22-10-24_260595134347_rgbf000247-resize_3-target.png,250,1.841,1,3119,249,meters,jsons/v1_VE250_randls_26.json,1234382,1663231,28,Woman
130,981546,DepthScenes,duration_manipulation_targetAtFixation,jsons/v1_VE250_randls_26.json,http://54.235.29.9/FacialAge/BNav_EC2/DepthDuration/v2_depth_duration_MTurk/v2_DepthDuration_HTML.html#286,286,1366,768,1366,768,9-3-2022,12-36-38,131,depth_duration_stimuli/001029_2014-06-08_13-17-57_260595134347_rgbf000065-resize_1/001029_2014-06-08_13-17-57_260595134347_rgbf000065-resize_1-target.png,250,3.0835,2,4153,251,meters,jsons/v1_VE250_randls_26.json,1234382,1663231,28,Woman
131,981546,DepthScenes,duration_manipulation_targetAtFixation,jsons/v1_VE250_randls_26.json,http://54.235.29.9/FacialAge/BNav_EC2/DepthDuration/v2_depth_duration_MTurk/v2_DepthDuration_HTML.html#286,286,1366,768,1366,768,9-3-2022,12-36-38,132,depth_duration_stimuli/000677_2014-06-08_23-10-32_260595134347_rgbf000158-resize_6/000677_2014-06-08_23-10-32_260595134347_rgbf000158-resize_6-target.png,250,3.556,3,3595,249,meters,jsons/v1_VE250_randls_26.json,1234382,1663231,28,Woman
132,981546,DepthScenes,duration_manipulation_targetAtFixation,jsons/v1_VE250_randls_26.json,http://54.235.29.9/FacialAge/BNav_EC2/DepthDuration/v2_depth_duration_MTurk/v2_DepthDuration_HTML.html#286,286,1366,768,1366,768,9-3-2022,12-36-38,133,depth_duration_stimuli/002153_2014-06-25_21-27-18_260595134347_rgbf000038-resize_5/002153_2014-06-25_21-27-18_260595134347_rgbf000038-resize_5-target.png,250,2.505,2,3801,250,meters,jsons/v1_VE250_randls_26.json,1234382,1663231,28,Woman
133,981546,DepthScenes,duration_manipulation_targetAtFixation,jsons/v1_VE250_randls_26.json,http://54.235.29.9/FacialAge/BNav_EC2/DepthDuration/v2_depth_duration_MTurk/v2_DepthDuration_HTML.html#286,286,1366,768,1366,768,9-3-2022,12-36-38,134,depth_duration_stimuli/002660_2014-06-13_15-44-18_094959634447_rgbf001878-resize_2/002660_2014-06-13_15-44-18_094959634447_rgbf001878-resize_2-target.png,250,3.576,3,4132,250,meters,jsons/v1_VE250_randls_26.json,1234382,1663231,28,Woman
134,981546,DepthScenes,duration_manipulation_targetAtFixation,jsons/v1_VE250_randls_26.json,http://54.235.29.9/FacialAge/BNav_EC2/DepthDuration/v2_depth_duration_MTurk/v2_DepthDuration_HTML.html#286,286,1366,768,1366,768,9-3-2022,12-36-38,135,depth_duration_stimuli/002072_2014-06-24_21-48-06_260595134347_rgbf000115-resize_0/002072_2014-06-24_21-48-06_260595134347_rgbf000115-resize-original.jpg,250,4.702,2,4139,249,meters,jsons/v1_VE250_randls_26.json,1234382,1663231,28,Woman
135,981546,DepthScenes,duration_manipulation_targetAtFixation,jsons/v1_VE250_randls_26.json,http://54.235.29.9/FacialAge/BNav_EC2/DepthDuration/v2_depth_duration_MTurk/v2_DepthDuration_HTML.html#286,286,1366,768,1366,768,9-3-2022,12-36-38,136,depth_duration_stimuli/000470_2014-06-09_19-42-40_260595134347_rgbf000094-resize_1/000470_2014-06-09_19-42-40_260595134347_rgbf000094-resize_1-target.png,250,1.831,1,22652,249,meters,jsons/v1_VE250_randls_26.json,1234382,1663231,28,Woman
136,981546,DepthScenes,duration_manipulation_targetAtFixation,jsons/v1_VE250_randls_26.json,http://54.235.29.9/FacialAge/BNav_EC2/DepthDuration/v2_depth_duration_MTurk/v2_DepthDuration_HTML.html#286,286,1366,768,1366,768,9-3-2022,12-36-38,137,depth_duration_stimuli/000109_2014-05-14_23-41-52_260595134347_rgbf000035-resize_9/000109_2014-05-14_23-41-52_260595134347_rgbf000035-resize_9-target.png,250,1.3545,0,8824,249,meters,jsons/v1_VE250_randls_26.json,1234382,1663231,28,Woman
137,981546,DepthScenes,duration_manipulation_targetAtFixation,jsons/v1_VE250_randls_26.json,http://54.235.29.9/FacialAge/BNav_EC2/DepthDuration/v2_depth_duration_MTurk/v2_DepthDuration_HTML.html#286,286,1366,768,1366,768,9-3-2022,12-36-38,138,depth_duration_stimuli/000692_2014-06-08_13-09-42_260595134347_rgbf000199-resize_2/000692_2014-06-08_13-09-42_260595134347_rgbf000199-resize_2-target.png,250,3.661,2,3988,251,meters,jsons/v1_VE250_randls_26.json,1234382,1663231,28,Woman
138,981546,DepthScenes,duration_manipulation_targetAtFixation,jsons/v1_VE250_randls_26.json,http://54.235.29.9/FacialAge/BNav_EC2/DepthDuration/v2_depth_duration_MTurk/v2_DepthDuration_HTML.html#286,286,1366,768,1366,768,9-3-2022,12-36-38,139,depth_duration_stimuli/001094_2014-06-15_17-36-00_260595134347_rgbf000205-resize_0/001094_2014-06-15_17-36-00_260595134347_rgbf000205-resize_0-target.png,250,4.2175,3,3864,250,meters,jsons/v1_VE250_randls_26.json,1234382,1663231,28,Woman
139,981546,DepthScenes,duration_manipulation_targetAtFixation,jsons/v1_VE250_randls_26.json,http://54.235.29.9/FacialAge/BNav_EC2/DepthDuration/v2_depth_duration_MTurk/v2_DepthDuration_HTML.html#286,286,1366,768,1366,768,9-3-2022,12-36-38,140,depth_duration_stimuli/002905_2014-06-03_18-04-43_094959634447_rgbf000151-resize_2/002905_2014-06-03_18-04-43_094959634447_rgbf000151-resize_2-target.png,250,2.0295,2,5848,250,meters,jsons/v1_VE250_randls_26.json,1234382,1663231,28,Woman
140,981546,DepthScenes,duration_manipulation_targetAtFixation,jsons/v1_VE250_randls_26.json,http://54.235.29.9/FacialAge/BNav_EC2/DepthDuration/v2_depth_duration_MTurk/v2_DepthDuration_HTML.html#286,286,1366,768,1366,768,9-3-2022,12-36-38,141,depth_duration_stimuli/003423_2014-05-21_10-23-26_094959634447_rgbf002665-resize_2/003423_2014-05-21_10-23-26_094959634447_rgbf002665-resize_2-target.png,250,3.2575,3,3813,251,meters,jsons/v1_VE250_randls_26.json,1234382,1663231,28,Woman
141,981546,DepthScenes,duration_manipulation_targetAtFixation,jsons/v1_VE250_randls_26.json,http://54.235.29.9/FacialAge/BNav_EC2/DepthDuration/v2_depth_duration_MTurk/v2_DepthDuration_HTML.html#286,286,1366,768,1366,768,9-3-2022,12-36-38,142,depth_duration_stimuli/002988_2014-06-15_12-24-20_094959634447_rgbf000150-resize_1/002988_2014-06-15_12-24-20_094959634447_rgbf000150-resize_1-target.png,250,4.7669999999999995,3,3420,251,meters,jsons/v1_VE250_randls_26.json,1234382,1663231,28,Woman
142,981546,DepthScenes,duration_manipulation_targetAtFixation,jsons/v1_VE250_randls_26.json,http://54.235.29.9/FacialAge/BNav_EC2/DepthDuration/v2_depth_duration_MTurk/v2_DepthDuration_HTML.html#286,286,1366,768,1366,768,9-3-2022,12-36-38,143,depth_duration_stimuli/001052_2014-06-08_18-24-54_260595134347_rgbf000130-resize_1/001052_2014-06-08_18-24-54_260595134347_rgbf000130-resize_1-target.png,250,4.1045,3,3883,250,meters,jsons/v1_VE250_randls_26.json,1234382,1663231,28,Woman
143,981546,DepthScenes,duration_manipulation_targetAtFixation,jsons/v1_VE250_randls_26.json,http://54.235.29.9/FacialAge/BNav_EC2/DepthDuration/v2_depth_duration_MTurk/v2_DepthDuration_HTML.html#286,286,1366,768,1366,768,9-3-2022,12-36-38,144,depth_duration_stimuli/001164_2014-06-17_15-35-46_260595134347_rgbf000085-resize_3/001164_2014-06-17_15-35-46_260595134347_rgbf000085-resize_3-target.png,250,2.354,2,4018,249,meters,jsons/v1_VE250_randls_26.json,1234382,1663231,28,Woman
144,981546,DepthScenes,duration_manipulation_targetAtFixation,jsons/v1_VE250_randls_26.json,http://54.235.29.9/FacialAge/BNav_EC2/DepthDuration/v2_depth_duration_MTurk/v2_DepthDuration_HTML.html#286,286,1366,768,1366,768,9-3-2022,12-36-38,145,depth_duration_stimuli/001136_2014-06-17_15-19-41_260595134347_rgbf000076-resize_3/001136_2014-06-17_15-19-41_260595134347_rgbf000076-resize_3-target.png,250,1.8655,2,15782,249,meters,jsons/v1_VE250_randls_26.json,1234382,1663231,28,Woman
145,981546,DepthScenes,duration_manipulation_targetAtFixation,jsons/v1_VE250_randls_26.json,http://54.235.29.9/FacialAge/BNav_EC2/DepthDuration/v2_depth_duration_MTurk/v2_DepthDuration_HTML.html#286,286,1366,768,1366,768,9-3-2022,12-36-38,146,depth_duration_stimuli/001498_2014-06-19_17-45-14_260595134347_rgbf000129-resize_4/001498_2014-06-19_17-45-14_260595134347_rgbf000129-resize-original.jpg,250,1.4075,1,4476,242,meters,jsons/v1_VE250_randls_26.json,1234382,1663231,28,Woman
146,981546,DepthScenes,duration_manipulation_targetAtFixation,jsons/v1_VE250_randls_26.json,http://54.235.29.9/FacialAge/BNav_EC2/DepthDuration/v2_depth_duration_MTurk/v2_DepthDuration_HTML.html#286,286,1366,768,1366,768,9-3-2022,12-36-38,147,depth_duration_stimuli/002272_2014-06-28_18-53-56_260595134347_rgbf000067-resize_2/002272_2014-06-28_18-53-56_260595134347_rgbf000067-resize_2-target.png,250,1.138,1,5725,249,meters,jsons/v1_VE250_randls_26.json,1234382,1663231,28,Woman
147,981546,DepthScenes,duration_manipulation_targetAtFixation,jsons/v1_VE250_randls_26.json,http://54.235.29.9/FacialAge/BNav_EC2/DepthDuration/v2_depth_duration_MTurk/v2_DepthDuration_HTML.html#286,286,1366,768,1366,768,9-3-2022,12-36-38,148,depth_duration_stimuli/001571_2014-06-20_17-21-32_260595134347_rgbf000089-resize_1/001571_2014-06-20_17-21-32_260595134347_rgbf000089-resize_1-target.png,250,1.86,2,3842,250,meters,jsons/v1_VE250_randls_26.json,1234382,1663231,28,Woman
148,981546,DepthScenes,duration_manipulation_targetAtFixation,jsons/v1_VE250_randls_26.json,http://54.235.29.9/FacialAge/BNav_EC2/DepthDuration/v2_depth_duration_MTurk/v2_DepthDuration_HTML.html#286,286,1366,768,1366,768,9-3-2022,12-36-38,149,depth_duration_stimuli/000447_2014-06-08_16-15-46_260595134347_rgbf000130-resize_1/000447_2014-06-08_16-15-46_260595134347_rgbf000130-resize_1-target.png,250,4.479,1,4733,251,meters,jsons/v1_VE250_randls_26.json,1234382,1663231,28,Woman
149,981546,DepthScenes,duration_manipulation_targetAtFixation,jsons/v1_VE250_randls_26.json,http://54.235.29.9/FacialAge/BNav_EC2/DepthDuration/v2_depth_duration_MTurk/v2_DepthDuration_HTML.html#286,286,1366,768,1366,768,9-3-2022,12-36-38,150,depth_duration_stimuli/001447_2014-06-19_17-00-32_260595134347_rgbf000082-resize_5/001447_2014-06-19_17-00-32_260595134347_rgbf000082-resize_5-target.png,250,4.13775,3,4350,249,meters,jsons/v1_VE250_randls_26.json,1234382,1663231,28,Woman
150,981546,DepthScenes,duration_manipulation_targetAtFixation,jsons/v1_VE250_randls_26.json,http://54.235.29.9/FacialAge/BNav_EC2/DepthDuration/v2_depth_duration_MTurk/v2_DepthDuration_HTML.html#286,286,1366,768,1366,768,9-3-2022,12-36-38,151,depth_duration_stimuli/000758_2014-06-08_22-05-08_260595134347_rgbf000085-resize_0/000758_2014-06-08_22-05-08_260595134347_rgbf000085-resize_0-target.png,250,3.3810000000000002,3,3336,250,meters,jsons/v1_VE250_randls_26.json,1234382,1663231,28,Woman
151,981546,DepthScenes,duration_manipulation_targetAtFixation,jsons/v1_VE250_randls_26.json,http://54.235.29.9/FacialAge/BNav_EC2/DepthDuration/v2_depth_duration_MTurk/v2_DepthDuration_HTML.html#286,286,1366,768,1366,768,9-3-2022,12-36-38,152,depth_duration_stimuli/000854_2014-06-09_19-43-13_260595134347_rgbf000066-resize_0/000854_2014-06-09_19-43-13_260595134347_rgbf000066-resize_0-target.png,250,3.068,2,22014,249,meters,jsons/v1_VE250_randls_26.json,1234382,1663231,28,Woman
152,981546,DepthScenes,duration_manipulation_targetAtFixation,jsons/v1_VE250_randls_26.json,http://54.235.29.9/FacialAge/BNav_EC2/DepthDuration/v2_depth_duration_MTurk/v2_DepthDuration_HTML.html#286,286,1366,768,1366,768,9-3-2022,12-36-38,153,depth_duration_stimuli/002509_2014-06-24_13-19-22_094959634447_rgbf000077-resize_0/002509_2014-06-24_13-19-22_094959634447_rgbf000077-resize_0-target.png,250,1.3065,1,3956,250,meters,jsons/v1_VE250_randls_26.json,1234382,1663231,28,Woman
153,981546,DepthScenes,duration_manipulation_targetAtFixation,jsons/v1_VE250_randls_26.json,http://54.235.29.9/FacialAge/BNav_EC2/DepthDuration/v2_depth_duration_MTurk/v2_DepthDuration_HTML.html#286,286,1366,768,1366,768,9-3-2022,12-36-38,154,depth_duration_stimuli/003338_2014-05-20_11-01-23_094959634447_rgbf000051-resize_6/003338_2014-05-20_11-01-23_094959634447_rgbf000051-resize_6-target.png,250,1.693,2,8486,249,meters,jsons/v1_VE250_randls_26.json,1234382,1663231,28,Woman
154,981546,DepthScenes,duration_manipulation_targetAtFixation,jsons/v1_VE250_randls_26.json,http://54.235.29.9/FacialAge/BNav_EC2/DepthDuration/v2_depth_duration_MTurk/v2_DepthDuration_HTML.html#286,286,1366,768,1366,768,9-3-2022,12-36-38,155,depth_duration_stimuli/002279_2014-06-28_18-55-32_260595134347_rgbf000040-resize_5/002279_2014-06-28_18-55-32_260595134347_rgbf000040-resize_5-target.png,250,1.5043333333333,1,3905,251,meters,jsons/v1_VE250_randls_26.json,1234382,1663231,28,Woman
155,981546,DepthScenes,duration_manipulation_targetAtFixation,jsons/v1_VE250_randls_26.json,http://54.235.29.9/FacialAge/BNav_EC2/DepthDuration/v2_depth_duration_MTurk/v2_DepthDuration_HTML.html#286,286,1366,768,1366,768,9-3-2022,12-36-38,156,depth_duration_stimuli/000635_2014-06-08_16-38-42_260595134347_rgbf000106-resize_1/000635_2014-06-08_16-38-42_260595134347_rgbf000106-resize_1-target.png,250,2.074,2,4309,249,meters,jsons/v1_VE250_randls_26.json,1234382,1663231,28,Woman
156,981546,DepthScenes,duration_manipulation_targetAtFixation,jsons/v1_VE250_randls_26.json,http://54.235.29.9/FacialAge/BNav_EC2/DepthDuration/v2_depth_duration_MTurk/v2_DepthDuration_HTML.html#286,286,1366,768,1366,768,9-3-2022,12-36-38,157,depth_duration_stimuli/002039_2014-06-24_20-22-38_260595134347_rgbf000084-resize_1/002039_2014-06-24_20-22-38_260595134347_rgbf000084-resize_1-target.png,250,4.408,3,3490,250,meters,jsons/v1_VE250_randls_26.json,1234382,1663231,28,Woman
157,981546,DepthScenes,duration_manipulation_targetAtFixation,jsons/v1_VE250_randls_26.json,http://54.235.29.9/FacialAge/BNav_EC2/DepthDuration/v2_depth_duration_MTurk/v2_DepthDuration_HTML.html#286,286,1366,768,1366,768,9-3-2022,12-36-38,158,depth_duration_stimuli/002103_2014-06-25_20-00-40_260595134347_rgbf000049-resize_0/002103_2014-06-25_20-00-40_260595134347_rgbf000049-resize_0-target.png,250,4.105,3,3604,250,meters,jsons/v1_VE250_randls_26.json,1234382,1663231,28,Woman
158,981546,DepthScenes,duration_manipulation_targetAtFixation,jsons/v1_VE250_randls_26.json,http://54.235.29.9/FacialAge/BNav_EC2/DepthDuration/v2_depth_duration_MTurk/v2_DepthDuration_HTML.html#286,286,1366,768,1366,768,9-3-2022,12-36-38,159,depth_duration_stimuli/000009_2014-05-26_14-32-05_260595134347_rgbf000034-resize_3/000009_2014-05-26_14-32-05_260595134347_rgbf000034-resize_3-target.png,250,3.8715,3,3777,249,meters,jsons/v1_VE250_randls_26.json,1234382,1663231,28,Woman
159,981546,DepthScenes,duration_manipulation_targetAtFixation,jsons/v1_VE250_randls_26.json,http://54.235.29.9/FacialAge/BNav_EC2/DepthDuration/v2_depth_duration_MTurk/v2_DepthDuration_HTML.html#286,286,1366,768,1366,768,9-3-2022,12-36-38,160,depth_duration_stimuli/001828_2014-06-26_21-40-03_260595134347_rgbf000024-resize_0/001828_2014-06-26_21-40-03_260595134347_rgbf000024-resize_0-target.png,250,4.8260000000000005,3,4172,250,meters,jsons/v1_VE250_randls_26.json,1234382,1663231,28,Woman
160,981546,DepthScenes,duration_manipulation_targetAtFixation,jsons/v1_VE250_randls_26.json,http://54.235.29.9/FacialAge/BNav_EC2/DepthDuration/v2_depth_duration_MTurk/v2_DepthDuration_HTML.html#286,286,1366,768,1366,768,9-3-2022,12-36-38,161,depth_duration_stimuli/001016_2014-06-09_16-16-10_260595134347_rgbf000112-resize_5/001016_2014-06-09_16-16-10_260595134347_rgbf000112-resize_5-target.png,250,1.6565,3,4340,249,meters,jsons/v1_VE250_randls_26.json,1234382,1663231,28,Woman
161,981546,DepthScenes,duration_manipulation_targetAtFixation,jsons/v1_VE250_randls_26.json,http://54.235.29.9/FacialAge/BNav_EC2/DepthDuration/v2_depth_duration_MTurk/v2_DepthDuration_HTML.html#286,286,1366,768,1366,768,9-3-2022,12-36-38,162,depth_duration_stimuli/002340_2014-06-28_20-05-46_260595134347_rgbf000113-resize_0/002340_2014-06-28_20-05-46_260595134347_rgbf000113-resize_0-target.png,250,2.4735,2,4029,250,meters,jsons/v1_VE250_randls_26.json,1234382,1663231,28,Woman
162,981546,DepthScenes,duration_manipulation_targetAtFixation,jsons/v1_VE250_randls_26.json,http://54.235.29.9/FacialAge/BNav_EC2/DepthDuration/v2_depth_duration_MTurk/v2_DepthDuration_HTML.html#286,286,1366,768,1366,768,9-3-2022,12-36-38,163,depth_duration_stimuli/000917_2014-06-09_22-45-29_260595134347_rgbf000149-resize_3/000917_2014-06-09_22-45-29_260595134347_rgbf000149-resize_3-target.png,250,4.1865,1,6714,250,meters,jsons/v1_VE250_randls_26.json,1234382,1663231,28,Woman
163,981546,DepthScenes,duration_manipulation_targetAtFixation,jsons/v1_VE250_randls_26.json,http://54.235.29.9/FacialAge/BNav_EC2/DepthDuration/v2_depth_duration_MTurk/v2_DepthDuration_HTML.html#286,286,1366,768,1366,768,9-3-2022,12-36-38,164,depth_duration_stimuli/002323_2014-06-28_20-01-54_260595134347_rgbf000051-resize_4/002323_2014-06-28_20-01-54_260595134347_rgbf000051-resize_4-target.png,250,3.7310000000000003,2,5683,249,meters,jsons/v1_VE250_randls_26.json,1234382,1663231,28,Woman
