,subjID,experimentName,versionName,sequenceName,url,selected_row,windowWidth,windowHeight,screenWidth,screenHeight,startDate,startTime,trial,stimulus,duration,actual_depth,depth_estimate,trial_RT,log_sceneDuration,unitSelection,seq_filepath,experimentTime,totalTime,age,gender
0,983798,DepthScenes,duration_manipulation_targetAtFixation,jsons/VE125_randls_75.json,http://54.235.29.9/FacialAge/BNav_EC2/DepthDuration/v2_depth_duration_MTurk/v2_DepthDuration_HTML.html#23,23,1366,625,1366,768,8-21-2022,9-55-23,1,depth_duration_stimuli/000506_2014-06-08_23-21-00_260595134347_rgbf000070-resize_7/000506_2014-06-08_23-21-00_260595134347_rgbf000070-resize_7-target.png,125,4.0585,6,2272,130,feet,jsons/VE125_randls_75.json,410950,883105,35,Woman
1,983798,DepthScenes,duration_manipulation_targetAtFixation,jsons/VE125_randls_75.json,http://54.235.29.9/FacialAge/BNav_EC2/DepthDuration/v2_depth_duration_MTurk/v2_DepthDuration_HTML.html#23,23,1366,625,1366,768,8-21-2022,9-55-23,2,depth_duration_stimuli/003079_2014-06-15_15-18-20_094959634447_rgbf000152-resize_8/003079_2014-06-15_15-18-20_094959634447_rgbf000152-resize_8-target.png,125,2.8775,4,2977,125,feet,jsons/VE125_randls_75.json,410950,883105,35,Woman
2,983798,DepthScenes,duration_manipulation_targetAtFixation,jsons/VE125_randls_75.json,http://54.235.29.9/FacialAge/BNav_EC2/DepthDuration/v2_depth_duration_MTurk/v2_DepthDuration_HTML.html#23,23,1366,625,1366,768,8-21-2022,9-55-23,3,depth_duration_stimuli/001570_2014-06-20_17-21-09_260595134347_rgbf000135-resize_4/001570_2014-06-20_17-21-09_260595134347_rgbf000135-resize_4-target.png,125,4.467,5,1818,129,feet,jsons/VE125_randls_75.json,410950,883105,35,Woman
3,983798,DepthScenes,duration_manipulation_targetAtFixation,jsons/VE125_randls_75.json,http://54.235.29.9/FacialAge/BNav_EC2/DepthDuration/v2_depth_duration_MTurk/v2_DepthDuration_HTML.html#23,23,1366,625,1366,768,8-21-2022,9-55-23,4,depth_duration_stimuli/001392_2014-06-19_16-07-59_260595134347_rgbf000046-resize_1/001392_2014-06-19_16-07-59_260595134347_rgbf000046-resize_1-target.png,125,4.135,6,1889,117,feet,jsons/VE125_randls_75.json,410950,883105,35,Woman
4,983798,DepthScenes,duration_manipulation_targetAtFixation,jsons/VE125_randls_75.json,http://54.235.29.9/FacialAge/BNav_EC2/DepthDuration/v2_depth_duration_MTurk/v2_DepthDuration_HTML.html#23,23,1366,625,1366,768,8-21-2022,9-55-23,5,depth_duration_stimuli/002784_2014-06-22_19-26-30_094959634447_rgbf000083-resize_3/002784_2014-06-22_19-26-30_094959634447_rgbf000083-resize_3-target.png,125,1.8046666666667,8,2241,127,feet,jsons/VE125_randls_75.json,410950,883105,35,Woman
5,983798,DepthScenes,duration_manipulation_targetAtFixation,jsons/VE125_randls_75.json,http://54.235.29.9/FacialAge/BNav_EC2/DepthDuration/v2_depth_duration_MTurk/v2_DepthDuration_HTML.html#23,23,1366,625,1366,768,8-21-2022,9-55-23,6,depth_duration_stimuli/001100_2014-06-15_17-46-26_260595134347_rgbf000225-resize_2/001100_2014-06-15_17-46-26_260595134347_rgbf000225-resize_2-target.png,125,2.24,5,2012,123,feet,jsons/VE125_randls_75.json,410950,883105,35,Woman
6,983798,DepthScenes,duration_manipulation_targetAtFixation,jsons/VE125_randls_75.json,http://54.235.29.9/FacialAge/BNav_EC2/DepthDuration/v2_depth_duration_MTurk/v2_DepthDuration_HTML.html#23,23,1366,625,1366,768,8-21-2022,9-55-23,7,depth_duration_stimuli/000368_2014-06-09_15-53-01_260595134347_rgbf000155-resize_2/000368_2014-06-09_15-53-01_260595134347_rgbf000155-resize_2-target.png,125,2.4859999999999998,6,1859,116,feet,jsons/VE125_randls_75.json,410950,883105,35,Woman
7,983798,DepthScenes,duration_manipulation_targetAtFixation,jsons/VE125_randls_75.json,http://54.235.29.9/FacialAge/BNav_EC2/DepthDuration/v2_depth_duration_MTurk/v2_DepthDuration_HTML.html#23,23,1366,625,1366,768,8-21-2022,9-55-23,8,depth_duration_stimuli/002678_2014-06-13_16-15-32_094959634447_rgbf000151-resize_6/002678_2014-06-13_16-15-32_094959634447_rgbf000151-resize_6-target.png,125,2.1830000000000003,5,1719,120,feet,jsons/VE125_randls_75.json,410950,883105,35,Woman
8,983798,DepthScenes,duration_manipulation_targetAtFixation,jsons/VE125_randls_75.json,http://54.235.29.9/FacialAge/BNav_EC2/DepthDuration/v2_depth_duration_MTurk/v2_DepthDuration_HTML.html#23,23,1366,625,1366,768,8-21-2022,9-55-23,9,depth_duration_stimuli/000486_2014-06-09_20-47-20_260595134347_rgbf000143-resize_2/000486_2014-06-09_20-47-20_260595134347_rgbf000143-resize_2-target.png,125,4.8325,6,1662,111,feet,jsons/VE125_randls_75.json,410950,883105,35,Woman
9,983798,DepthScenes,duration_manipulation_targetAtFixation,jsons/VE125_randls_75.json,http://54.235.29.9/FacialAge/BNav_EC2/DepthDuration/v2_depth_duration_MTurk/v2_DepthDuration_HTML.html#23,23,1366,625,1366,768,8-21-2022,9-55-23,10,depth_duration_stimuli/003083_2014-06-15_15-21-03_094959634447_rgbf000063-resize_1/003083_2014-06-15_15-21-03_094959634447_rgbf000063-resize_1-target.png,125,4.1405,5,2347,124,feet,jsons/VE125_randls_75.json,410950,883105,35,Woman
10,983798,DepthScenes,duration_manipulation_targetAtFixation,jsons/VE125_randls_75.json,http://54.235.29.9/FacialAge/BNav_EC2/DepthDuration/v2_depth_duration_MTurk/v2_DepthDuration_HTML.html#23,23,1366,625,1366,768,8-21-2022,9-55-23,11,depth_duration_stimuli/002663_2014-06-13_15-50-26_094959634447_rgbf000075-resize_1/002663_2014-06-13_15-50-26_094959634447_rgbf000075-resize_1-target.png,125,4.7495,6,2025,138,feet,jsons/VE125_randls_75.json,410950,883105,35,Woman
11,983798,DepthScenes,duration_manipulation_targetAtFixation,jsons/VE125_randls_75.json,http://54.235.29.9/FacialAge/BNav_EC2/DepthDuration/v2_depth_duration_MTurk/v2_DepthDuration_HTML.html#23,23,1366,625,1366,768,8-21-2022,9-55-23,12,depth_duration_stimuli/000409_2014-06-04_19-23-33_260595134347_rgbf000067-resize_0/000409_2014-06-04_19-23-33_260595134347_rgbf000067-resize_0-target.png,125,3.7335,6,1697,118,feet,jsons/VE125_randls_75.json,410950,883105,35,Woman
12,983798,DepthScenes,duration_manipulation_targetAtFixation,jsons/VE125_randls_75.json,http://54.235.29.9/FacialAge/BNav_EC2/DepthDuration/v2_depth_duration_MTurk/v2_DepthDuration_HTML.html#23,23,1366,625,1366,768,8-21-2022,9-55-23,13,depth_duration_stimuli/000569_2014-06-09_22-51-47_260595134347_rgbf000141-resize_3/000569_2014-06-09_22-51-47_260595134347_rgbf000141-resize-original.jpg,125,4.512,5,1635,118,feet,jsons/VE125_randls_75.json,410950,883105,35,Woman
13,983798,DepthScenes,duration_manipulation_targetAtFixation,jsons/VE125_randls_75.json,http://54.235.29.9/FacialAge/BNav_EC2/DepthDuration/v2_depth_duration_MTurk/v2_DepthDuration_HTML.html#23,23,1366,625,1366,768,8-21-2022,9-55-23,14,depth_duration_stimuli/002964_2014-06-08_17-46-11_094959634447_rgbf000091-resize_4/002964_2014-06-08_17-46-11_094959634447_rgbf000091-resize_4-target.png,125,1.6909999999999998,5,1686,125,feet,jsons/VE125_randls_75.json,410950,883105,35,Woman
14,983798,DepthScenes,duration_manipulation_targetAtFixation,jsons/VE125_randls_75.json,http://54.235.29.9/FacialAge/BNav_EC2/DepthDuration/v2_depth_duration_MTurk/v2_DepthDuration_HTML.html#23,23,1366,625,1366,768,8-21-2022,9-55-23,15,depth_duration_stimuli/002136_2014-06-25_21-18-03_260595134347_rgbf000109-resize_3/002136_2014-06-25_21-18-03_260595134347_rgbf000109-resize_3-target.png,125,1.9569999999999999,8,1724,118,feet,jsons/VE125_randls_75.json,410950,883105,35,Woman
15,983798,DepthScenes,duration_manipulation_targetAtFixation,jsons/VE125_randls_75.json,http://54.235.29.9/FacialAge/BNav_EC2/DepthDuration/v2_depth_duration_MTurk/v2_DepthDuration_HTML.html#23,23,1366,625,1366,768,8-21-2022,9-55-23,16,depth_duration_stimuli/003492_2014-05-21_15-50-55_094959634447_rgbf000828-resize_1/003492_2014-05-21_15-50-55_094959634447_rgbf000828-resize_1-target.png,125,4.06875,6,1944,129,feet,jsons/VE125_randls_75.json,410950,883105,35,Woman
16,983798,DepthScenes,duration_manipulation_targetAtFixation,jsons/VE125_randls_75.json,http://54.235.29.9/FacialAge/BNav_EC2/DepthDuration/v2_depth_duration_MTurk/v2_DepthDuration_HTML.html#23,23,1366,625,1366,768,8-21-2022,9-55-23,17,depth_duration_stimuli/002568_2014-06-24_13-59-21_094959634447_rgbf000062-resize_4/002568_2014-06-24_13-59-21_094959634447_rgbf000062-resize_4-target.png,125,3.015,6,1849,124,feet,jsons/VE125_randls_75.json,410950,883105,35,Woman
17,983798,DepthScenes,duration_manipulation_targetAtFixation,jsons/VE125_randls_75.json,http://54.235.29.9/FacialAge/BNav_EC2/DepthDuration/v2_depth_duration_MTurk/v2_DepthDuration_HTML.html#23,23,1366,625,1366,768,8-21-2022,9-55-23,18,depth_duration_stimuli/001029_2014-06-08_13-17-57_260595134347_rgbf000065-resize_1/001029_2014-06-08_13-17-57_260595134347_rgbf000065-resize_1-target.png,125,3.0835,7,2147,123,feet,jsons/VE125_randls_75.json,410950,883105,35,Woman
18,983798,DepthScenes,duration_manipulation_targetAtFixation,jsons/VE125_randls_75.json,http://54.235.29.9/FacialAge/BNav_EC2/DepthDuration/v2_depth_duration_MTurk/v2_DepthDuration_HTML.html#23,23,1366,625,1366,768,8-21-2022,9-55-23,19,depth_duration_stimuli/000677_2014-06-08_23-10-32_260595134347_rgbf000158-resize_6/000677_2014-06-08_23-10-32_260595134347_rgbf000158-resize_6-target.png,125,3.556,8,1922,128,feet,jsons/VE125_randls_75.json,410950,883105,35,Woman
19,983798,DepthScenes,duration_manipulation_targetAtFixation,jsons/VE125_randls_75.json,http://54.235.29.9/FacialAge/BNav_EC2/DepthDuration/v2_depth_duration_MTurk/v2_DepthDuration_HTML.html#23,23,1366,625,1366,768,8-21-2022,9-55-23,20,depth_duration_stimuli/002988_2014-06-15_12-24-20_094959634447_rgbf000150-resize_1/002988_2014-06-15_12-24-20_094959634447_rgbf000150-resize_1-target.png,125,4.7669999999999995,6,2082,119,feet,jsons/VE125_randls_75.json,410950,883105,35,Woman
20,983798,DepthScenes,duration_manipulation_targetAtFixation,jsons/VE125_randls_75.json,http://54.235.29.9/FacialAge/BNav_EC2/DepthDuration/v2_depth_duration_MTurk/v2_DepthDuration_HTML.html#23,23,1366,625,1366,768,8-21-2022,9-55-23,21,depth_duration_stimuli/001052_2014-06-08_18-24-54_260595134347_rgbf000130-resize_1/001052_2014-06-08_18-24-54_260595134347_rgbf000130-resize_1-target.png,125,4.1045,5,1769,125,feet,jsons/VE125_randls_75.json,410950,883105,35,Woman
21,983798,DepthScenes,duration_manipulation_targetAtFixation,jsons/VE125_randls_75.json,http://54.235.29.9/FacialAge/BNav_EC2/DepthDuration/v2_depth_duration_MTurk/v2_DepthDuration_HTML.html#23,23,1366,625,1366,768,8-21-2022,9-55-23,22,depth_duration_stimuli/001110_2014-06-15_17-25-28_260595134347_rgbf000150-resize_1/001110_2014-06-15_17-25-28_260595134347_rgbf000150-resize_1-target.png,125,1.7115,5,1739,123,feet,jsons/VE125_randls_75.json,410950,883105,35,Woman
22,983798,DepthScenes,duration_manipulation_targetAtFixation,jsons/VE125_randls_75.json,http://54.235.29.9/FacialAge/BNav_EC2/DepthDuration/v2_depth_duration_MTurk/v2_DepthDuration_HTML.html#23,23,1366,625,1366,768,8-21-2022,9-55-23,23,depth_duration_stimuli/000927_2014-06-09_16-32-30_260595134347_rgbf000123-resize_3/000927_2014-06-09_16-32-30_260595134347_rgbf000123-resize_3-target.png,125,2.6785,7,1521,123,feet,jsons/VE125_randls_75.json,410950,883105,35,Woman
23,983798,DepthScenes,duration_manipulation_targetAtFixation,jsons/VE125_randls_75.json,http://54.235.29.9/FacialAge/BNav_EC2/DepthDuration/v2_depth_duration_MTurk/v2_DepthDuration_HTML.html#23,23,1366,625,1366,768,8-21-2022,9-55-23,24,depth_duration_stimuli/002272_2014-06-28_18-53-56_260595134347_rgbf000067-resize_2/002272_2014-06-28_18-53-56_260595134347_rgbf000067-resize_2-target.png,125,1.138,8,2634,121,feet,jsons/VE125_randls_75.json,410950,883105,35,Woman
24,983798,DepthScenes,duration_manipulation_targetAtFixation,jsons/VE125_randls_75.json,http://54.235.29.9/FacialAge/BNav_EC2/DepthDuration/v2_depth_duration_MTurk/v2_DepthDuration_HTML.html#23,23,1366,625,1366,768,8-21-2022,9-55-23,25,depth_duration_stimuli/001571_2014-06-20_17-21-32_260595134347_rgbf000089-resize_1/001571_2014-06-20_17-21-32_260595134347_rgbf000089-resize_1-target.png,125,1.86,9,1968,120,feet,jsons/VE125_randls_75.json,410950,883105,35,Woman
25,983798,DepthScenes,duration_manipulation_targetAtFixation,jsons/VE125_randls_75.json,http://54.235.29.9/FacialAge/BNav_EC2/DepthDuration/v2_depth_duration_MTurk/v2_DepthDuration_HTML.html#23,23,1366,625,1366,768,8-21-2022,9-55-23,26,depth_duration_stimuli/002630_2014-06-24_14-47-50_094959634447_rgbf000055-resize_1/002630_2014-06-24_14-47-50_094959634447_rgbf000055-resize_1-target.png,125,3.0095,8,1880,130,feet,jsons/VE125_randls_75.json,410950,883105,35,Woman
26,983798,DepthScenes,duration_manipulation_targetAtFixation,jsons/VE125_randls_75.json,http://54.235.29.9/FacialAge/BNav_EC2/DepthDuration/v2_depth_duration_MTurk/v2_DepthDuration_HTML.html#23,23,1366,625,1366,768,8-21-2022,9-55-23,27,depth_duration_stimuli/002758_2014-06-22_19-11-20_094959634447_rgbf000128-resize_1/002758_2014-06-22_19-11-20_094959634447_rgbf000128-resize_1-target.png,125,2.555,8,4338,126,feet,jsons/VE125_randls_75.json,410950,883105,35,Woman
27,983798,DepthScenes,duration_manipulation_targetAtFixation,jsons/VE125_randls_75.json,http://54.235.29.9/FacialAge/BNav_EC2/DepthDuration/v2_depth_duration_MTurk/v2_DepthDuration_HTML.html#23,23,1366,625,1366,768,8-21-2022,9-55-23,28,depth_duration_stimuli/000469_2014-06-09_19-42-10_260595134347_rgbf000081-resize_1/000469_2014-06-09_19-42-10_260595134347_rgbf000081-resize_1-target.png,125,1.652,9,2010,130,feet,jsons/VE125_randls_75.json,410950,883105,35,Woman
28,983798,DepthScenes,duration_manipulation_targetAtFixation,jsons/VE125_randls_75.json,http://54.235.29.9/FacialAge/BNav_EC2/DepthDuration/v2_depth_duration_MTurk/v2_DepthDuration_HTML.html#23,23,1366,625,1366,768,8-21-2022,9-55-23,29,depth_duration_stimuli/000483_2014-06-09_20-41-45_260595134347_rgbf000116-resize_4/000483_2014-06-09_20-41-45_260595134347_rgbf000116-resize_4-target.png,125,1.337,8,1740,117,feet,jsons/VE125_randls_75.json,410950,883105,35,Woman
29,983798,DepthScenes,duration_manipulation_targetAtFixation,jsons/VE125_randls_75.json,http://54.235.29.9/FacialAge/BNav_EC2/DepthDuration/v2_depth_duration_MTurk/v2_DepthDuration_HTML.html#23,23,1366,625,1366,768,8-21-2022,9-55-23,30,depth_duration_stimuli/000375_2014-06-08_11-17-29_260595134347_rgbf000133-resize_2/000375_2014-06-08_11-17-29_260595134347_rgbf000133-resize-original.jpg,125,4.718,7,2040,122,feet,jsons/VE125_randls_75.json,410950,883105,35,Woman
30,983798,DepthScenes,duration_manipulation_targetAtFixation,jsons/VE125_randls_75.json,http://54.235.29.9/FacialAge/BNav_EC2/DepthDuration/v2_depth_duration_MTurk/v2_DepthDuration_HTML.html#23,23,1366,625,1366,768,8-21-2022,9-55-23,31,depth_duration_stimuli/002989_2014-06-15_12-25-03_094959634447_rgbf000150-resize_3/002989_2014-06-15_12-25-03_094959634447_rgbf000150-resize_3-target.png,125,4.1975,8,1559,121,feet,jsons/VE125_randls_75.json,410950,883105,35,Woman
31,983798,DepthScenes,duration_manipulation_targetAtFixation,jsons/VE125_randls_75.json,http://54.235.29.9/FacialAge/BNav_EC2/DepthDuration/v2_depth_duration_MTurk/v2_DepthDuration_HTML.html#23,23,1366,625,1366,768,8-21-2022,9-55-23,32,depth_duration_stimuli/000866_2014-06-09_20-45-42_260595134347_rgbf000139-resize_1/000866_2014-06-09_20-45-42_260595134347_rgbf000139-resize_1-target.png,125,3.2155,9,1888,119,feet,jsons/VE125_randls_75.json,410950,883105,35,Woman
32,983798,DepthScenes,duration_manipulation_targetAtFixation,jsons/VE125_randls_75.json,http://54.235.29.9/FacialAge/BNav_EC2/DepthDuration/v2_depth_duration_MTurk/v2_DepthDuration_HTML.html#23,23,1366,625,1366,768,8-21-2022,9-55-23,33,depth_duration_stimuli/000736_2014-06-08_18-24-15_260595134347_rgbf000206-resize_3/000736_2014-06-08_18-24-15_260595134347_rgbf000206-resize_3-target.png,125,3.515,8,1464,129,feet,jsons/VE125_randls_75.json,410950,883105,35,Woman
33,983798,DepthScenes,duration_manipulation_targetAtFixation,jsons/VE125_randls_75.json,http://54.235.29.9/FacialAge/BNav_EC2/DepthDuration/v2_depth_duration_MTurk/v2_DepthDuration_HTML.html#23,23,1366,625,1366,768,8-21-2022,9-55-23,34,depth_duration_stimuli/000137_2014-05-20_17-04-49_260595134347_rgbf000120-resize_1/000137_2014-05-20_17-04-49_260595134347_rgbf000120-resize_1-target.png,125,3.786,8,1560,124,feet,jsons/VE125_randls_75.json,410950,883105,35,Woman
34,983798,DepthScenes,duration_manipulation_targetAtFixation,jsons/VE125_randls_75.json,http://54.235.29.9/FacialAge/BNav_EC2/DepthDuration/v2_depth_duration_MTurk/v2_DepthDuration_HTML.html#23,23,1366,625,1366,768,8-21-2022,9-55-23,35,depth_duration_stimuli/002905_2014-06-03_18-04-43_094959634447_rgbf000151-resize_2/002905_2014-06-03_18-04-43_094959634447_rgbf000151-resize_2-target.png,125,2.0295,7,1899,121,feet,jsons/VE125_randls_75.json,410950,883105,35,Woman
35,983798,DepthScenes,duration_manipulation_targetAtFixation,jsons/VE125_randls_75.json,http://54.235.29.9/FacialAge/BNav_EC2/DepthDuration/v2_depth_duration_MTurk/v2_DepthDuration_HTML.html#23,23,1366,625,1366,768,8-21-2022,9-55-23,36,depth_duration_stimuli/003423_2014-05-21_10-23-26_094959634447_rgbf002665-resize_2/003423_2014-05-21_10-23-26_094959634447_rgbf002665-resize_2-target.png,125,3.2575,8,1770,130,feet,jsons/VE125_randls_75.json,410950,883105,35,Woman
36,983798,DepthScenes,duration_manipulation_targetAtFixation,jsons/VE125_randls_75.json,http://54.235.29.9/FacialAge/BNav_EC2/DepthDuration/v2_depth_duration_MTurk/v2_DepthDuration_HTML.html#23,23,1366,625,1366,768,8-21-2022,9-55-23,37,depth_duration_stimuli/001164_2014-06-17_15-35-46_260595134347_rgbf000085-resize_3/001164_2014-06-17_15-35-46_260595134347_rgbf000085-resize_3-target.png,125,2.354,9,2372,139,feet,jsons/VE125_randls_75.json,410950,883105,35,Woman
37,983798,DepthScenes,duration_manipulation_targetAtFixation,jsons/VE125_randls_75.json,http://54.235.29.9/FacialAge/BNav_EC2/DepthDuration/v2_depth_duration_MTurk/v2_DepthDuration_HTML.html#23,23,1366,625,1366,768,8-21-2022,9-55-23,38,depth_duration_stimuli/001136_2014-06-17_15-19-41_260595134347_rgbf000076-resize_3/001136_2014-06-17_15-19-41_260595134347_rgbf000076-resize_3-target.png,125,1.8655,5,1934,124,feet,jsons/VE125_randls_75.json,410950,883105,35,Woman
38,983798,DepthScenes,duration_manipulation_targetAtFixation,jsons/VE125_randls_75.json,http://54.235.29.9/FacialAge/BNav_EC2/DepthDuration/v2_depth_duration_MTurk/v2_DepthDuration_HTML.html#23,23,1366,625,1366,768,8-21-2022,9-55-23,39,depth_duration_stimuli/000470_2014-06-09_19-42-40_260595134347_rgbf000094-resize_1/000470_2014-06-09_19-42-40_260595134347_rgbf000094-resize_1-target.png,125,1.831,6,2242,129,feet,jsons/VE125_randls_75.json,410950,883105,35,Woman
39,983798,DepthScenes,duration_manipulation_targetAtFixation,jsons/VE125_randls_75.json,http://54.235.29.9/FacialAge/BNav_EC2/DepthDuration/v2_depth_duration_MTurk/v2_DepthDuration_HTML.html#23,23,1366,625,1366,768,8-21-2022,9-55-23,40,depth_duration_stimuli/000109_2014-05-14_23-41-52_260595134347_rgbf000035-resize_9/000109_2014-05-14_23-41-52_260595134347_rgbf000035-resize_9-target.png,125,1.3545,7,1834,122,feet,jsons/VE125_randls_75.json,410950,883105,35,Woman
40,983798,DepthScenes,duration_manipulation_targetAtFixation,jsons/VE125_randls_75.json,http://54.235.29.9/FacialAge/BNav_EC2/DepthDuration/v2_depth_duration_MTurk/v2_DepthDuration_HTML.html#23,23,1366,625,1366,768,8-21-2022,9-55-23,41,depth_duration_stimuli/002279_2014-06-28_18-55-32_260595134347_rgbf000040-resize_5/002279_2014-06-28_18-55-32_260595134347_rgbf000040-resize_5-target.png,125,1.5043333333333,8,1851,124,feet,jsons/VE125_randls_75.json,410950,883105,35,Woman
41,983798,DepthScenes,duration_manipulation_targetAtFixation,jsons/VE125_randls_75.json,http://54.235.29.9/FacialAge/BNav_EC2/DepthDuration/v2_depth_duration_MTurk/v2_DepthDuration_HTML.html#23,23,1366,625,1366,768,8-21-2022,9-55-23,42,depth_duration_stimuli/000635_2014-06-08_16-38-42_260595134347_rgbf000106-resize_1/000635_2014-06-08_16-38-42_260595134347_rgbf000106-resize_1-target.png,125,2.074,8,5807,124,feet,jsons/VE125_randls_75.json,410950,883105,35,Woman
42,983798,DepthScenes,duration_manipulation_targetAtFixation,jsons/VE125_randls_75.json,http://54.235.29.9/FacialAge/BNav_EC2/DepthDuration/v2_depth_duration_MTurk/v2_DepthDuration_HTML.html#23,23,1366,625,1366,768,8-21-2022,9-55-23,43,depth_duration_stimuli/000810_2014-06-08_17-20-01_260595134347_rgbf000105-resize_0/000810_2014-06-08_17-20-01_260595134347_rgbf000105-resize_0-target.png,125,1.4865,9,2224,129,feet,jsons/VE125_randls_75.json,410950,883105,35,Woman
43,983798,DepthScenes,duration_manipulation_targetAtFixation,jsons/VE125_randls_75.json,http://54.235.29.9/FacialAge/BNav_EC2/DepthDuration/v2_depth_duration_MTurk/v2_DepthDuration_HTML.html#23,23,1366,625,1366,768,8-21-2022,9-55-23,44,depth_duration_stimuli/001214_2014-06-17_16-13-55_260595134347_rgbf000111-resize_0/001214_2014-06-17_16-13-55_260595134347_rgbf000111-resize_0-target.png,125,2.6505,9,2394,123,feet,jsons/VE125_randls_75.json,410950,883105,35,Woman
44,983798,DepthScenes,duration_manipulation_targetAtFixation,jsons/VE125_randls_75.json,http://54.235.29.9/FacialAge/BNav_EC2/DepthDuration/v2_depth_duration_MTurk/v2_DepthDuration_HTML.html#23,23,1366,625,1366,768,8-21-2022,9-55-23,45,depth_duration_stimuli/000787_2014-06-08_22-33-53_260595134347_rgbf000175-resize_1/000787_2014-06-08_22-33-53_260595134347_rgbf000175-resize-original.jpg,125,4.784,8,1806,136,feet,jsons/VE125_randls_75.json,410950,883105,35,Woman
45,983798,DepthScenes,duration_manipulation_targetAtFixation,jsons/VE125_randls_75.json,http://54.235.29.9/FacialAge/BNav_EC2/DepthDuration/v2_depth_duration_MTurk/v2_DepthDuration_HTML.html#23,23,1366,625,1366,768,8-21-2022,9-55-23,46,depth_duration_stimuli/001158_2014-06-17_15-32-16_260595134347_rgbf000138-resize_2/001158_2014-06-17_15-32-16_260595134347_rgbf000138-resize_2-target.png,125,4.5315,9,2280,127,feet,jsons/VE125_randls_75.json,410950,883105,35,Woman
46,983798,DepthScenes,duration_manipulation_targetAtFixation,jsons/VE125_randls_75.json,http://54.235.29.9/FacialAge/BNav_EC2/DepthDuration/v2_depth_duration_MTurk/v2_DepthDuration_HTML.html#23,23,1366,625,1366,768,8-21-2022,9-55-23,47,depth_duration_stimuli/000556_2014-06-09_22-42-56_260595134347_rgbf000214-resize_1/000556_2014-06-09_22-42-56_260595134347_rgbf000214-resize_1-target.png,125,4.8415,8,6999,122,feet,jsons/VE125_randls_75.json,410950,883105,35,Woman
47,983798,DepthScenes,duration_manipulation_targetAtFixation,jsons/VE125_randls_75.json,http://54.235.29.9/FacialAge/BNav_EC2/DepthDuration/v2_depth_duration_MTurk/v2_DepthDuration_HTML.html#23,23,1366,625,1366,768,8-21-2022,9-55-23,48,depth_duration_stimuli/001417_2014-06-19_16-25-36_260595134347_rgbf000115-resize_5/001417_2014-06-19_16-25-36_260595134347_rgbf000115-resize_5-target.png,125,4.6255,8,5714,129,feet,jsons/VE125_randls_75.json,410950,883105,35,Woman
48,983798,DepthScenes,duration_manipulation_targetAtFixation,jsons/VE125_randls_75.json,http://54.235.29.9/FacialAge/BNav_EC2/DepthDuration/v2_depth_duration_MTurk/v2_DepthDuration_HTML.html#23,23,1366,625,1366,768,8-21-2022,9-55-23,49,depth_duration_stimuli/003081_2014-06-15_15-19-16_094959634447_rgbf000150-resize_1/003081_2014-06-15_15-19-16_094959634447_rgbf000150-resize_1-target.png,125,3.9125,9,1707,139,feet,jsons/VE125_randls_75.json,410950,883105,35,Woman
49,983798,DepthScenes,duration_manipulation_targetAtFixation,jsons/VE125_randls_75.json,http://54.235.29.9/FacialAge/BNav_EC2/DepthDuration/v2_depth_duration_MTurk/v2_DepthDuration_HTML.html#23,23,1366,625,1366,768,8-21-2022,9-55-23,50,depth_duration_stimuli/002748_2014-06-22_19-07-22_094959634447_rgbf000078-resize_1/002748_2014-06-22_19-07-22_094959634447_rgbf000078-resize_1-target.png,125,4.6705,8,1704,125,feet,jsons/VE125_randls_75.json,410950,883105,35,Woman
50,983798,DepthScenes,duration_manipulation_targetAtFixation,jsons/VE125_randls_75.json,http://54.235.29.9/FacialAge/BNav_EC2/DepthDuration/v2_depth_duration_MTurk/v2_DepthDuration_HTML.html#23,23,1366,625,1366,768,8-21-2022,9-55-23,51,depth_duration_stimuli/002995_2014-06-15_12-31-26_094959634447_rgbf000150-resize_1/002995_2014-06-15_12-31-26_094959634447_rgbf000150-resize_1-target.png,125,3.8360000000000003,9,1776,108,feet,jsons/VE125_randls_75.json,410950,883105,35,Woman
51,983798,DepthScenes,duration_manipulation_targetAtFixation,jsons/VE125_randls_75.json,http://54.235.29.9/FacialAge/BNav_EC2/DepthDuration/v2_depth_duration_MTurk/v2_DepthDuration_HTML.html#23,23,1366,625,1366,768,8-21-2022,9-55-23,52,depth_duration_stimuli/002375_2014-06-28_20-13-44_260595134347_rgbf000032-resize_1/002375_2014-06-28_20-13-44_260595134347_rgbf000032-resize_1-target.png,125,4.0175,8,2168,122,feet,jsons/VE125_randls_75.json,410950,883105,35,Woman
52,983798,DepthScenes,duration_manipulation_targetAtFixation,jsons/VE125_randls_75.json,http://54.235.29.9/FacialAge/BNav_EC2/DepthDuration/v2_depth_duration_MTurk/v2_DepthDuration_HTML.html#23,23,1366,625,1366,768,8-21-2022,9-55-23,53,depth_duration_stimuli/002657_2014-06-13_15-29-54_094959634447_rgbf000150-resize_1/002657_2014-06-13_15-29-54_094959634447_rgbf000150-resize_1-target.png,125,4.919,8,2317,124,feet,jsons/VE125_randls_75.json,410950,883105,35,Woman
53,983798,DepthScenes,duration_manipulation_targetAtFixation,jsons/VE125_randls_75.json,http://54.235.29.9/FacialAge/BNav_EC2/DepthDuration/v2_depth_duration_MTurk/v2_DepthDuration_HTML.html#23,23,1366,625,1366,768,8-21-2022,9-55-23,54,depth_duration_stimuli/001011_2014-06-08_23-18-54_260595134347_rgbf000044-resize_4/001011_2014-06-08_23-18-54_260595134347_rgbf000044-resize_4-target.png,125,2.4730000000000003,8,2176,125,feet,jsons/VE125_randls_75.json,410950,883105,35,Woman
54,983798,DepthScenes,duration_manipulation_targetAtFixation,jsons/VE125_randls_75.json,http://54.235.29.9/FacialAge/BNav_EC2/DepthDuration/v2_depth_duration_MTurk/v2_DepthDuration_HTML.html#23,23,1366,625,1366,768,8-21-2022,9-55-23,55,depth_duration_stimuli/002875_2014-06-01_15-19-00_094959634447_rgbf000151-resize_1/002875_2014-06-01_15-19-00_094959634447_rgbf000151-resize_1-target.png,125,1.9675,9,1915,129,feet,jsons/VE125_randls_75.json,410950,883105,35,Woman
55,983798,DepthScenes,duration_manipulation_targetAtFixation,jsons/VE125_randls_75.json,http://54.235.29.9/FacialAge/BNav_EC2/DepthDuration/v2_depth_duration_MTurk/v2_DepthDuration_HTML.html#23,23,1366,625,1366,768,8-21-2022,9-55-23,56,depth_duration_stimuli/002549_2014-06-24_13-41-39_094959634447_rgbf000022-resize_3/002549_2014-06-24_13-41-39_094959634447_rgbf000022-resize_3-target.png,125,1.476,9,2069,132,feet,jsons/VE125_randls_75.json,410950,883105,35,Woman
56,983798,DepthScenes,duration_manipulation_targetAtFixation,jsons/VE125_randls_75.json,http://54.235.29.9/FacialAge/BNav_EC2/DepthDuration/v2_depth_duration_MTurk/v2_DepthDuration_HTML.html#23,23,1366,625,1366,768,8-21-2022,9-55-23,57,depth_duration_stimuli/002750_2014-06-22_19-08-03_094959634447_rgbf000094-resize_4/002750_2014-06-22_19-08-03_094959634447_rgbf000094-resize_4-target.png,125,2.354,8,1939,125,feet,jsons/VE125_randls_75.json,410950,883105,35,Woman
57,983798,DepthScenes,duration_manipulation_targetAtFixation,jsons/VE125_randls_75.json,http://54.235.29.9/FacialAge/BNav_EC2/DepthDuration/v2_depth_duration_MTurk/v2_DepthDuration_HTML.html#23,23,1366,625,1366,768,8-21-2022,9-55-23,58,depth_duration_stimuli/002725_2014-06-22_11-47-51_094959634447_rgbf000070-resize_1/002725_2014-06-22_11-47-51_094959634447_rgbf000070-resize_1-target.png,125,2.195,9,1986,135,feet,jsons/VE125_randls_75.json,410950,883105,35,Woman
58,983798,DepthScenes,duration_manipulation_targetAtFixation,jsons/VE125_randls_75.json,http://54.235.29.9/FacialAge/BNav_EC2/DepthDuration/v2_depth_duration_MTurk/v2_DepthDuration_HTML.html#23,23,1366,625,1366,768,8-21-2022,9-55-23,59,depth_duration_stimuli/002344_2014-06-28_20-06-29_260595134347_rgbf000030-resize_1/002344_2014-06-28_20-06-29_260595134347_rgbf000030-resize_1-target.png,125,1.5795,9,2057,134,feet,jsons/VE125_randls_75.json,410950,883105,35,Woman
59,983798,DepthScenes,duration_manipulation_targetAtFixation,jsons/VE125_randls_75.json,http://54.235.29.9/FacialAge/BNav_EC2/DepthDuration/v2_depth_duration_MTurk/v2_DepthDuration_HTML.html#23,23,1366,625,1366,768,8-21-2022,9-55-23,60,depth_duration_stimuli/001133_2014-06-17_14-49-16_260595134347_rgbf000100-resize_0/001133_2014-06-17_14-49-16_260595134347_rgbf000100-resize_0-target.png,125,4.2115,8,1842,139,feet,jsons/VE125_randls_75.json,410950,883105,35,Woman
60,983798,DepthScenes,duration_manipulation_targetAtFixation,jsons/VE125_randls_75.json,http://54.235.29.9/FacialAge/BNav_EC2/DepthDuration/v2_depth_duration_MTurk/v2_DepthDuration_HTML.html#23,23,1366,625,1366,768,8-21-2022,9-55-23,61,depth_duration_stimuli/001132_2014-06-17_14-48-54_260595134347_rgbf000100-resize_2/001132_2014-06-17_14-48-54_260595134347_rgbf000100-resize_2-target.png,125,3.753,8,1637,115,feet,jsons/VE125_randls_75.json,410950,883105,35,Woman
61,983798,DepthScenes,duration_manipulation_targetAtFixation,jsons/VE125_randls_75.json,http://54.235.29.9/FacialAge/BNav_EC2/DepthDuration/v2_depth_duration_MTurk/v2_DepthDuration_HTML.html#23,23,1366,625,1366,768,8-21-2022,9-55-23,62,depth_duration_stimuli/002600_2014-06-24_14-27-04_094959634447_rgbf000074-resize_2/002600_2014-06-24_14-27-04_094959634447_rgbf000074-resize_2-target.png,125,2.7575,9,1952,132,feet,jsons/VE125_randls_75.json,410950,883105,35,Woman
62,983798,DepthScenes,duration_manipulation_targetAtFixation,jsons/VE125_randls_75.json,http://54.235.29.9/FacialAge/BNav_EC2/DepthDuration/v2_depth_duration_MTurk/v2_DepthDuration_HTML.html#23,23,1366,625,1366,768,8-21-2022,9-55-23,63,depth_duration_stimuli/003228_2014-05-14_13-42-35_094959634447_rgbf000101-resize_1/003228_2014-05-14_13-42-35_094959634447_rgbf000101-resize_1-target.png,125,1.9680000000000002,8,1818,125,feet,jsons/VE125_randls_75.json,410950,883105,35,Woman
63,983798,DepthScenes,duration_manipulation_targetAtFixation,jsons/VE125_randls_75.json,http://54.235.29.9/FacialAge/BNav_EC2/DepthDuration/v2_depth_duration_MTurk/v2_DepthDuration_HTML.html#23,23,1366,625,1366,768,8-21-2022,9-55-23,64,depth_duration_stimuli/001150_2014-06-17_15-27-34_260595134347_rgbf000108-resize_2/001150_2014-06-17_15-27-34_260595134347_rgbf000108-resize_2-target.png,125,4.0325,8,1836,133,feet,jsons/VE125_randls_75.json,410950,883105,35,Woman
64,983798,DepthScenes,duration_manipulation_targetAtFixation,jsons/VE125_randls_75.json,http://54.235.29.9/FacialAge/BNav_EC2/DepthDuration/v2_depth_duration_MTurk/v2_DepthDuration_HTML.html#23,23,1366,625,1366,768,8-21-2022,9-55-23,65,depth_duration_stimuli/000665_2014-06-09_20-42-35_260595134347_rgbf000110-resize_1/000665_2014-06-09_20-42-35_260595134347_rgbf000110-resize_1-target.png,125,3.057,8,1976,136,feet,jsons/VE125_randls_75.json,410950,883105,35,Woman
65,983798,DepthScenes,duration_manipulation_targetAtFixation,jsons/VE125_randls_75.json,http://54.235.29.9/FacialAge/BNav_EC2/DepthDuration/v2_depth_duration_MTurk/v2_DepthDuration_HTML.html#23,23,1366,625,1366,768,8-21-2022,9-55-23,66,depth_duration_stimuli/001222_2014-06-17_16-24-06_260595134347_rgbf000073-resize_0/001222_2014-06-17_16-24-06_260595134347_rgbf000073-resize-original.jpg,125,1.4385,7,2009,129,feet,jsons/VE125_randls_75.json,410950,883105,35,Woman
66,983798,DepthScenes,duration_manipulation_targetAtFixation,jsons/VE125_randls_75.json,http://54.235.29.9/FacialAge/BNav_EC2/DepthDuration/v2_depth_duration_MTurk/v2_DepthDuration_HTML.html#23,23,1366,625,1366,768,8-21-2022,9-55-23,67,depth_duration_stimuli/001056_2014-06-08_18-46-44_260595134347_rgbf000068-resize_0/001056_2014-06-08_18-46-44_260595134347_rgbf000068-resize_0-target.png,125,2.6625,7,2081,118,feet,jsons/VE125_randls_75.json,410950,883105,35,Woman
67,983798,DepthScenes,duration_manipulation_targetAtFixation,jsons/VE125_randls_75.json,http://54.235.29.9/FacialAge/BNav_EC2/DepthDuration/v2_depth_duration_MTurk/v2_DepthDuration_HTML.html#23,23,1366,625,1366,768,8-21-2022,9-55-23,68,depth_duration_stimuli/002199_2014-06-28_18-33-56_260595134347_rgbf000074-resize_0/002199_2014-06-28_18-33-56_260595134347_rgbf000074-resize_0-target.png,125,1.996,8,1638,126,feet,jsons/VE125_randls_75.json,410950,883105,35,Woman
68,983798,DepthScenes,duration_manipulation_targetAtFixation,jsons/VE125_randls_75.json,http://54.235.29.9/FacialAge/BNav_EC2/DepthDuration/v2_depth_duration_MTurk/v2_DepthDuration_HTML.html#23,23,1366,625,1366,768,8-21-2022,9-55-23,69,depth_duration_stimuli/003534_2014-05-22_15-06-10_094959634447_rgbf000102-resize_4/003534_2014-05-22_15-06-10_094959634447_rgbf000102-resize_4-target.png,125,1.426,8,1804,118,feet,jsons/VE125_randls_75.json,410950,883105,35,Woman
69,983798,DepthScenes,duration_manipulation_targetAtFixation,jsons/VE125_randls_75.json,http://54.235.29.9/FacialAge/BNav_EC2/DepthDuration/v2_depth_duration_MTurk/v2_DepthDuration_HTML.html#23,23,1366,625,1366,768,8-21-2022,9-55-23,70,depth_duration_stimuli/002637_2014-06-24_14-51-13_094959634447_rgbf000066-resize_4/002637_2014-06-24_14-51-13_094959634447_rgbf000066-resize_4-target.png,125,1.9955,9,1905,124,feet,jsons/VE125_randls_75.json,410950,883105,35,Woman
70,983798,DepthScenes,duration_manipulation_targetAtFixation,jsons/VE125_randls_75.json,http://54.235.29.9/FacialAge/BNav_EC2/DepthDuration/v2_depth_duration_MTurk/v2_DepthDuration_HTML.html#23,23,1366,625,1366,768,8-21-2022,9-55-23,71,depth_duration_stimuli/003621_2014-05-23_18-06-08_094959634447_rgbf000101-resize_1/003621_2014-05-23_18-06-08_094959634447_rgbf000101-resize_1-target.png,125,3.9835,9,1818,132,feet,jsons/VE125_randls_75.json,410950,883105,35,Woman
71,983798,DepthScenes,duration_manipulation_targetAtFixation,jsons/VE125_randls_75.json,http://54.235.29.9/FacialAge/BNav_EC2/DepthDuration/v2_depth_duration_MTurk/v2_DepthDuration_HTML.html#23,23,1366,625,1366,768,8-21-2022,9-55-23,72,depth_duration_stimuli/001584_2014-06-20_11-07-43_260595134347_rgbf000002-resize_1/001584_2014-06-20_11-07-43_260595134347_rgbf000002-resize_1-target.png,125,3.53,8,1753,118,feet,jsons/VE125_randls_75.json,410950,883105,35,Woman
72,983798,DepthScenes,duration_manipulation_targetAtFixation,jsons/VE125_randls_75.json,http://54.235.29.9/FacialAge/BNav_EC2/DepthDuration/v2_depth_duration_MTurk/v2_DepthDuration_HTML.html#23,23,1366,625,1366,768,8-21-2022,9-55-23,73,depth_duration_stimuli/001810_2014-06-26_20-51-35_260595134347_rgbf000040-resize_3/001810_2014-06-26_20-51-35_260595134347_rgbf000040-resize_3-target.png,125,2.2525,8,1601,122,feet,jsons/VE125_randls_75.json,410950,883105,35,Woman
73,983798,DepthScenes,duration_manipulation_targetAtFixation,jsons/VE125_randls_75.json,http://54.235.29.9/FacialAge/BNav_EC2/DepthDuration/v2_depth_duration_MTurk/v2_DepthDuration_HTML.html#23,23,1366,625,1366,768,8-21-2022,9-55-23,74,depth_duration_stimuli/003010_2014-06-15_12-54-35_094959634447_rgbf000112-resize_0/003010_2014-06-15_12-54-35_094959634447_rgbf000112-resize_0-target.png,125,3.1185,9,2017,128,feet,jsons/VE125_randls_75.json,410950,883105,35,Woman
74,983798,DepthScenes,duration_manipulation_targetAtFixation,jsons/VE125_randls_75.json,http://54.235.29.9/FacialAge/BNav_EC2/DepthDuration/v2_depth_duration_MTurk/v2_DepthDuration_HTML.html#23,23,1366,625,1366,768,8-21-2022,9-55-23,75,depth_duration_stimuli/001244_2014-06-17_16-47-45_260595134347_rgbf000030-resize_4/001244_2014-06-17_16-47-45_260595134347_rgbf000030-resize_4-target.png,125,2.0425,8,1925,122,feet,jsons/VE125_randls_75.json,410950,883105,35,Woman
75,983798,DepthScenes,duration_manipulation_targetAtFixation,jsons/VE125_randls_75.json,http://54.235.29.9/FacialAge/BNav_EC2/DepthDuration/v2_depth_duration_MTurk/v2_DepthDuration_HTML.html#23,23,1366,625,1366,768,8-21-2022,9-55-23,76,depth_duration_stimuli/003495_2014-05-21_16-01-51_094959634447_rgbf000100-resize_3/003495_2014-05-21_16-01-51_094959634447_rgbf000100-resize_3-target.png,125,1.6255,8,2851,122,feet,jsons/VE125_randls_75.json,410950,883105,35,Woman
76,983798,DepthScenes,duration_manipulation_targetAtFixation,jsons/VE125_randls_75.json,http://54.235.29.9/FacialAge/BNav_EC2/DepthDuration/v2_depth_duration_MTurk/v2_DepthDuration_HTML.html#23,23,1366,625,1366,768,8-21-2022,9-55-23,77,depth_duration_stimuli/001059_2014-06-08_21-53-27_260595134347_rgbf000061-resize_4/001059_2014-06-08_21-53-27_260595134347_rgbf000061-resize_4-target.png,125,2.4185,9,1761,124,feet,jsons/VE125_randls_75.json,410950,883105,35,Woman
77,983798,DepthScenes,duration_manipulation_targetAtFixation,jsons/VE125_randls_75.json,http://54.235.29.9/FacialAge/BNav_EC2/DepthDuration/v2_depth_duration_MTurk/v2_DepthDuration_HTML.html#23,23,1366,625,1366,768,8-21-2022,9-55-23,78,depth_duration_stimuli/001032_2014-06-08_13-23-17_260595134347_rgbf000021-resize_3/001032_2014-06-08_13-23-17_260595134347_rgbf000021-resize_3-target.png,125,3.2725,8,2129,129,feet,jsons/VE125_randls_75.json,410950,883105,35,Woman
78,983798,DepthScenes,duration_manipulation_targetAtFixation,jsons/VE125_randls_75.json,http://54.235.29.9/FacialAge/BNav_EC2/DepthDuration/v2_depth_duration_MTurk/v2_DepthDuration_HTML.html#23,23,1366,625,1366,768,8-21-2022,9-55-23,79,depth_duration_stimuli/000739_2014-06-08_18-45-58_260595134347_rgbf000068-resize_1/000739_2014-06-08_18-45-58_260595134347_rgbf000068-resize_1-target.png,125,3.534,8,1832,118,feet,jsons/VE125_randls_75.json,410950,883105,35,Woman
79,983798,DepthScenes,duration_manipulation_targetAtFixation,jsons/VE125_randls_75.json,http://54.235.29.9/FacialAge/BNav_EC2/DepthDuration/v2_depth_duration_MTurk/v2_DepthDuration_HTML.html#23,23,1366,625,1366,768,8-21-2022,9-55-23,80,depth_duration_stimuli/000734_2014-06-08_17-39-11_260595134347_rgbf000128-resize_2/000734_2014-06-08_17-39-11_260595134347_rgbf000128-resize_2-target.png,125,4.098,9,1957,124,feet,jsons/VE125_randls_75.json,410950,883105,35,Woman
80,983798,DepthScenes,duration_manipulation_targetAtFixation,jsons/VE125_randls_75.json,http://54.235.29.9/FacialAge/BNav_EC2/DepthDuration/v2_depth_duration_MTurk/v2_DepthDuration_HTML.html#23,23,1366,625,1366,768,8-21-2022,9-55-23,81,depth_duration_stimuli/002570_2014-06-24_13-59-54_094959634447_rgbf000059-resize_0/002570_2014-06-24_13-59-54_094959634447_rgbf000059-resize_0-target.png,125,4.037,7,1972,124,feet,jsons/VE125_randls_75.json,410950,883105,35,Woman
81,983798,DepthScenes,duration_manipulation_targetAtFixation,jsons/VE125_randls_75.json,http://54.235.29.9/FacialAge/BNav_EC2/DepthDuration/v2_depth_duration_MTurk/v2_DepthDuration_HTML.html#23,23,1366,625,1366,768,8-21-2022,9-55-23,82,depth_duration_stimuli/002467_2014-06-28_20-38-07_260595134347_rgbf000026-resize_2/002467_2014-06-28_20-38-07_260595134347_rgbf000026-resize_2-target.png,125,4.742,8,2341,125,feet,jsons/VE125_randls_75.json,410950,883105,35,Woman
82,983798,DepthScenes,duration_manipulation_targetAtFixation,jsons/VE125_randls_75.json,http://54.235.29.9/FacialAge/BNav_EC2/DepthDuration/v2_depth_duration_MTurk/v2_DepthDuration_HTML.html#23,23,1366,625,1366,768,8-21-2022,9-55-23,83,depth_duration_stimuli/002213_2014-06-28_18-37-58_260595134347_rgbf000055-resize_1/002213_2014-06-28_18-37-58_260595134347_rgbf000055-resize_1-target.png,125,3.62,9,1783,128,feet,jsons/VE125_randls_75.json,410950,883105,35,Woman
83,983798,DepthScenes,duration_manipulation_targetAtFixation,jsons/VE125_randls_75.json,http://54.235.29.9/FacialAge/BNav_EC2/DepthDuration/v2_depth_duration_MTurk/v2_DepthDuration_HTML.html#23,23,1366,625,1366,768,8-21-2022,9-55-23,84,depth_duration_stimuli/000691_2014-06-08_13-08-50_260595134347_rgbf000132-resize_3/000691_2014-06-08_13-08-50_260595134347_rgbf000132-resize_3-target.png,125,4.1530000000000005,8,2183,130,feet,jsons/VE125_randls_75.json,410950,883105,35,Woman
84,983798,DepthScenes,duration_manipulation_targetAtFixation,jsons/VE125_randls_75.json,http://54.235.29.9/FacialAge/BNav_EC2/DepthDuration/v2_depth_duration_MTurk/v2_DepthDuration_HTML.html#23,23,1366,625,1366,768,8-21-2022,9-55-23,85,depth_duration_stimuli/002153_2014-06-25_21-27-18_260595134347_rgbf000038-resize_5/002153_2014-06-25_21-27-18_260595134347_rgbf000038-resize_5-target.png,125,2.505,9,1932,118,feet,jsons/VE125_randls_75.json,410950,883105,35,Woman
85,983798,DepthScenes,duration_manipulation_targetAtFixation,jsons/VE125_randls_75.json,http://54.235.29.9/FacialAge/BNav_EC2/DepthDuration/v2_depth_duration_MTurk/v2_DepthDuration_HTML.html#23,23,1366,625,1366,768,8-21-2022,9-55-23,86,depth_duration_stimuli/002660_2014-06-13_15-44-18_094959634447_rgbf001878-resize_2/002660_2014-06-13_15-44-18_094959634447_rgbf001878-resize_2-target.png,125,3.576,8,1605,130,feet,jsons/VE125_randls_75.json,410950,883105,35,Woman
86,983798,DepthScenes,duration_manipulation_targetAtFixation,jsons/VE125_randls_75.json,http://54.235.29.9/FacialAge/BNav_EC2/DepthDuration/v2_depth_duration_MTurk/v2_DepthDuration_HTML.html#23,23,1366,625,1366,768,8-21-2022,9-55-23,87,depth_duration_stimuli/002039_2014-06-24_20-22-38_260595134347_rgbf000084-resize_1/002039_2014-06-24_20-22-38_260595134347_rgbf000084-resize_1-target.png,125,4.408,9,1788,130,feet,jsons/VE125_randls_75.json,410950,883105,35,Woman
87,983798,DepthScenes,duration_manipulation_targetAtFixation,jsons/VE125_randls_75.json,http://54.235.29.9/FacialAge/BNav_EC2/DepthDuration/v2_depth_duration_MTurk/v2_DepthDuration_HTML.html#23,23,1366,625,1366,768,8-21-2022,9-55-23,88,depth_duration_stimuli/002103_2014-06-25_20-00-40_260595134347_rgbf000049-resize_0/002103_2014-06-25_20-00-40_260595134347_rgbf000049-resize_0-target.png,125,4.105,8,1580,110,feet,jsons/VE125_randls_75.json,410950,883105,35,Woman
88,983798,DepthScenes,duration_manipulation_targetAtFixation,jsons/VE125_randls_75.json,http://54.235.29.9/FacialAge/BNav_EC2/DepthDuration/v2_depth_duration_MTurk/v2_DepthDuration_HTML.html#23,23,1366,625,1366,768,8-21-2022,9-55-23,89,depth_duration_stimuli/003292_2014-05-14_21-53-49_094959634447_rgbf000100-resize_2/003292_2014-05-14_21-53-49_094959634447_rgbf000100-resize_2-target.png,125,3.4815,8,1750,103,feet,jsons/VE125_randls_75.json,410950,883105,35,Woman
89,983798,DepthScenes,duration_manipulation_targetAtFixation,jsons/VE125_randls_75.json,http://54.235.29.9/FacialAge/BNav_EC2/DepthDuration/v2_depth_duration_MTurk/v2_DepthDuration_HTML.html#23,23,1366,625,1366,768,8-21-2022,9-55-23,90,depth_duration_stimuli/002639_2014-06-24_14-51-37_094959634447_rgbf000074-resize_4/002639_2014-06-24_14-51-37_094959634447_rgbf000074-resize_4-target.png,125,4.0375,8,1565,132,feet,jsons/VE125_randls_75.json,410950,883105,35,Woman
90,983798,DepthScenes,duration_manipulation_targetAtFixation,jsons/VE125_randls_75.json,http://54.235.29.9/FacialAge/BNav_EC2/DepthDuration/v2_depth_duration_MTurk/v2_DepthDuration_HTML.html#23,23,1366,625,1366,768,8-21-2022,9-55-23,91,depth_duration_stimuli/000436_2014-06-09_22-25-11_260595134347_rgbf000137-resize_1/000436_2014-06-09_22-25-11_260595134347_rgbf000137-resize_1-target.png,125,4.0705,9,1744,123,feet,jsons/VE125_randls_75.json,410950,883105,35,Woman
91,983798,DepthScenes,duration_manipulation_targetAtFixation,jsons/VE125_randls_75.json,http://54.235.29.9/FacialAge/BNav_EC2/DepthDuration/v2_depth_duration_MTurk/v2_DepthDuration_HTML.html#23,23,1366,625,1366,768,8-21-2022,9-55-23,92,depth_duration_stimuli/002444_2014-06-28_20-32-08_260595134347_rgbf000027-resize_0/002444_2014-06-28_20-32-08_260595134347_rgbf000027-resize_0-target.png,125,4.388999999999999,9,1802,116,feet,jsons/VE125_randls_75.json,410950,883105,35,Woman
92,983798,DepthScenes,duration_manipulation_targetAtFixation,jsons/VE125_randls_75.json,http://54.235.29.9/FacialAge/BNav_EC2/DepthDuration/v2_depth_duration_MTurk/v2_DepthDuration_HTML.html#23,23,1366,625,1366,768,8-21-2022,9-55-23,93,depth_duration_stimuli/000929_2014-06-09_16-33-19_260595134347_rgbf000139-resize_0/000929_2014-06-09_16-33-19_260595134347_rgbf000139-resize_0-target.png,125,2.8680000000000003,8,1731,125,feet,jsons/VE125_randls_75.json,410950,883105,35,Woman
93,983798,DepthScenes,duration_manipulation_targetAtFixation,jsons/VE125_randls_75.json,http://54.235.29.9/FacialAge/BNav_EC2/DepthDuration/v2_depth_duration_MTurk/v2_DepthDuration_HTML.html#23,23,1366,625,1366,768,8-21-2022,9-55-23,94,depth_duration_stimuli/000457_2014-06-08_16-52-43_260595134347_rgbf000199-resize_1/000457_2014-06-08_16-52-43_260595134347_rgbf000199-resize_1-target.png,125,3.6489999999999996,8,1603,126,feet,jsons/VE125_randls_75.json,410950,883105,35,Woman
94,983798,DepthScenes,duration_manipulation_targetAtFixation,jsons/VE125_randls_75.json,http://54.235.29.9/FacialAge/BNav_EC2/DepthDuration/v2_depth_duration_MTurk/v2_DepthDuration_HTML.html#23,23,1366,625,1366,768,8-21-2022,9-55-23,95,depth_duration_stimuli/001167_2014-06-17_15-38-07_260595134347_rgbf000108-resize_0/001167_2014-06-17_15-38-07_260595134347_rgbf000108-resize_0-target.png,125,1.8505,8,1723,126,feet,jsons/VE125_randls_75.json,410950,883105,35,Woman
95,983798,DepthScenes,duration_manipulation_targetAtFixation,jsons/VE125_randls_75.json,http://54.235.29.9/FacialAge/BNav_EC2/DepthDuration/v2_depth_duration_MTurk/v2_DepthDuration_HTML.html#23,23,1366,625,1366,768,8-21-2022,9-55-23,96,depth_duration_stimuli/003587_2014-05-23_16-48-02_094959634447_rgbf002384-resize_2/003587_2014-05-23_16-48-02_094959634447_rgbf002384-resize_2-target.png,125,1.357,8,1641,124,feet,jsons/VE125_randls_75.json,410950,883105,35,Woman
96,983798,DepthScenes,duration_manipulation_targetAtFixation,jsons/VE125_randls_75.json,http://54.235.29.9/FacialAge/BNav_EC2/DepthDuration/v2_depth_duration_MTurk/v2_DepthDuration_HTML.html#23,23,1366,625,1366,768,8-21-2022,9-55-23,97,depth_duration_stimuli/001555_2014-06-20_17-12-10_260595134347_rgbf000065-resize_4/001555_2014-06-20_17-12-10_260595134347_rgbf000065-resize_4-target.png,125,1.633,9,1802,116,feet,jsons/VE125_randls_75.json,410950,883105,35,Woman
97,983798,DepthScenes,duration_manipulation_targetAtFixation,jsons/VE125_randls_75.json,http://54.235.29.9/FacialAge/BNav_EC2/DepthDuration/v2_depth_duration_MTurk/v2_DepthDuration_HTML.html#23,23,1366,625,1366,768,8-21-2022,9-55-23,98,depth_duration_stimuli/000103_2014-05-14_22-01-17_260595134347_rgbf000152-resize_5/000103_2014-05-14_22-01-17_260595134347_rgbf000152-resize_5-target.png,125,1.993,8,1434,127,feet,jsons/VE125_randls_75.json,410950,883105,35,Woman
98,983798,DepthScenes,duration_manipulation_targetAtFixation,jsons/VE125_randls_75.json,http://54.235.29.9/FacialAge/BNav_EC2/DepthDuration/v2_depth_duration_MTurk/v2_DepthDuration_HTML.html#23,23,1366,625,1366,768,8-21-2022,9-55-23,99,depth_duration_stimuli/001540_2014-06-20_17-01-05_260595134347_rgbf000086-resize_2/001540_2014-06-20_17-01-05_260595134347_rgbf000086-resize-original.jpg,125,1.459,0,2962,124,feet,jsons/VE125_randls_75.json,410950,883105,35,Woman
99,983798,DepthScenes,duration_manipulation_targetAtFixation,jsons/VE125_randls_75.json,http://54.235.29.9/FacialAge/BNav_EC2/DepthDuration/v2_depth_duration_MTurk/v2_DepthDuration_HTML.html#23,23,1366,625,1366,768,8-21-2022,9-55-23,100,depth_duration_stimuli/000682_2014-06-08_23-14-58_260595134347_rgbf000041-resize_5/000682_2014-06-08_23-14-58_260595134347_rgbf000041-resize_5-target.png,125,2.7239999999999998,7,2345,123,feet,jsons/VE125_randls_75.json,410950,883105,35,Woman
100,983798,DepthScenes,duration_manipulation_targetAtFixation,jsons/VE125_randls_75.json,http://54.235.29.9/FacialAge/BNav_EC2/DepthDuration/v2_depth_duration_MTurk/v2_DepthDuration_HTML.html#23,23,1366,625,1366,768,8-21-2022,9-55-23,101,depth_duration_stimuli/001650_2014-06-20_12-09-00_260595134347_rgbf000087-resize_3/001650_2014-06-20_12-09-00_260595134347_rgbf000087-resize_3-target.png,125,1.9505,7,1730,128,feet,jsons/VE125_randls_75.json,410950,883105,35,Woman
101,983798,DepthScenes,duration_manipulation_targetAtFixation,jsons/VE125_randls_75.json,http://54.235.29.9/FacialAge/BNav_EC2/DepthDuration/v2_depth_duration_MTurk/v2_DepthDuration_HTML.html#23,23,1366,625,1366,768,8-21-2022,9-55-23,102,depth_duration_stimuli/002057_2014-06-24_21-00-13_260595134347_rgbf000120-resize_1/002057_2014-06-24_21-00-13_260595134347_rgbf000120-resize_1-target.png,125,2.967,8,1362,130,feet,jsons/VE125_randls_75.json,410950,883105,35,Woman
102,983798,DepthScenes,duration_manipulation_targetAtFixation,jsons/VE125_randls_75.json,http://54.235.29.9/FacialAge/BNav_EC2/DepthDuration/v2_depth_duration_MTurk/v2_DepthDuration_HTML.html#23,23,1366,625,1366,768,8-21-2022,9-55-23,103,depth_duration_stimuli/000709_2014-06-08_13-51-55_260595134347_rgbf000068-resize_3/000709_2014-06-08_13-51-55_260595134347_rgbf000068-resize_3-target.png,125,1.8030000000000002,8,1632,122,feet,jsons/VE125_randls_75.json,410950,883105,35,Woman
103,983798,DepthScenes,duration_manipulation_targetAtFixation,jsons/VE125_randls_75.json,http://54.235.29.9/FacialAge/BNav_EC2/DepthDuration/v2_depth_duration_MTurk/v2_DepthDuration_HTML.html#23,23,1366,625,1366,768,8-21-2022,9-55-23,104,depth_duration_stimuli/002763_2014-06-22_19-13-10_094959634447_rgbf000075-resize_4/002763_2014-06-22_19-13-10_094959634447_rgbf000075-resize_4-target.png,125,1.68375,7,1842,132,feet,jsons/VE125_randls_75.json,410950,883105,35,Woman
104,983798,DepthScenes,duration_manipulation_targetAtFixation,jsons/VE125_randls_75.json,http://54.235.29.9/FacialAge/BNav_EC2/DepthDuration/v2_depth_duration_MTurk/v2_DepthDuration_HTML.html#23,23,1366,625,1366,768,8-21-2022,9-55-23,105,depth_duration_stimuli/002209_2014-06-28_18-36-10_260595134347_rgbf000051-resize_1/002209_2014-06-28_18-36-10_260595134347_rgbf000051-resize_1-target.png,125,2.057,8,1730,124,feet,jsons/VE125_randls_75.json,410950,883105,35,Woman
105,983798,DepthScenes,duration_manipulation_targetAtFixation,jsons/VE125_randls_75.json,http://54.235.29.9/FacialAge/BNav_EC2/DepthDuration/v2_depth_duration_MTurk/v2_DepthDuration_HTML.html#23,23,1366,625,1366,768,8-21-2022,9-55-23,106,depth_duration_stimuli/001066_2014-06-08_22-03-20_260595134347_rgbf000066-resize_4/001066_2014-06-08_22-03-20_260595134347_rgbf000066-resize_4-target.png,125,4.2330000000000005,7,1595,124,feet,jsons/VE125_randls_75.json,410950,883105,35,Woman
106,983798,DepthScenes,duration_manipulation_targetAtFixation,jsons/VE125_randls_75.json,http://54.235.29.9/FacialAge/BNav_EC2/DepthDuration/v2_depth_duration_MTurk/v2_DepthDuration_HTML.html#23,23,1366,625,1366,768,8-21-2022,9-55-23,107,depth_duration_stimuli/000742_2014-06-08_18-48-09_260595134347_rgbf000164-resize_4/000742_2014-06-08_18-48-09_260595134347_rgbf000164-resize_4-target.png,125,4.632,8,1675,113,feet,jsons/VE125_randls_75.json,410950,883105,35,Woman
107,983798,DepthScenes,duration_manipulation_targetAtFixation,jsons/VE125_randls_75.json,http://54.235.29.9/FacialAge/BNav_EC2/DepthDuration/v2_depth_duration_MTurk/v2_DepthDuration_HTML.html#23,23,1366,625,1366,768,8-21-2022,9-55-23,108,depth_duration_stimuli/000493_2014-06-09_21-01-18_260595134347_rgbf000196-resize_3/000493_2014-06-09_21-01-18_260595134347_rgbf000196-resize_3-target.png,125,3.44,7,1800,120,feet,jsons/VE125_randls_75.json,410950,883105,35,Woman
108,983798,DepthScenes,duration_manipulation_targetAtFixation,jsons/VE125_randls_75.json,http://54.235.29.9/FacialAge/BNav_EC2/DepthDuration/v2_depth_duration_MTurk/v2_DepthDuration_HTML.html#23,23,1366,625,1366,768,8-21-2022,9-55-23,109,depth_duration_stimuli/000191_2014-05-12_17-07-38_260595134347_rgbf000199-resize_0/000191_2014-05-12_17-07-38_260595134347_rgbf000199-resize_0-target.png,125,3.7995,8,1595,122,feet,jsons/VE125_randls_75.json,410950,883105,35,Woman
109,983798,DepthScenes,duration_manipulation_targetAtFixation,jsons/VE125_randls_75.json,http://54.235.29.9/FacialAge/BNav_EC2/DepthDuration/v2_depth_duration_MTurk/v2_DepthDuration_HTML.html#23,23,1366,625,1366,768,8-21-2022,9-55-23,110,depth_duration_stimuli/001808_2014-06-26_20-50-58_260595134347_rgbf000029-resize_1/001808_2014-06-26_20-50-58_260595134347_rgbf000029-resize_1-target.png,125,4.249,8,1611,126,feet,jsons/VE125_randls_75.json,410950,883105,35,Woman
110,983798,DepthScenes,duration_manipulation_targetAtFixation,jsons/VE125_randls_75.json,http://54.235.29.9/FacialAge/BNav_EC2/DepthDuration/v2_depth_duration_MTurk/v2_DepthDuration_HTML.html#23,23,1366,625,1366,768,8-21-2022,9-55-23,111,depth_duration_stimuli/001815_2014-06-26_20-52-55_260595134347_rgbf000020-resize_0/001815_2014-06-26_20-52-55_260595134347_rgbf000020-resize_0-target.png,125,3.3865,7,1634,129,feet,jsons/VE125_randls_75.json,410950,883105,35,Woman
111,983798,DepthScenes,duration_manipulation_targetAtFixation,jsons/VE125_randls_75.json,http://54.235.29.9/FacialAge/BNav_EC2/DepthDuration/v2_depth_duration_MTurk/v2_DepthDuration_HTML.html#23,23,1366,625,1366,768,8-21-2022,9-55-23,112,depth_duration_stimuli/000692_2014-06-08_13-09-42_260595134347_rgbf000199-resize_2/000692_2014-06-08_13-09-42_260595134347_rgbf000199-resize_2-target.png,125,3.661,8,1693,128,feet,jsons/VE125_randls_75.json,410950,883105,35,Woman
112,983798,DepthScenes,duration_manipulation_targetAtFixation,jsons/VE125_randls_75.json,http://54.235.29.9/FacialAge/BNav_EC2/DepthDuration/v2_depth_duration_MTurk/v2_DepthDuration_HTML.html#23,23,1366,625,1366,768,8-21-2022,9-55-23,113,depth_duration_stimuli/001094_2014-06-15_17-36-00_260595134347_rgbf000205-resize_0/001094_2014-06-15_17-36-00_260595134347_rgbf000205-resize_0-target.png,125,4.2175,7,1612,123,feet,jsons/VE125_randls_75.json,410950,883105,35,Woman
113,983798,DepthScenes,duration_manipulation_targetAtFixation,jsons/VE125_randls_75.json,http://54.235.29.9/FacialAge/BNav_EC2/DepthDuration/v2_depth_duration_MTurk/v2_DepthDuration_HTML.html#23,23,1366,625,1366,768,8-21-2022,9-55-23,114,depth_duration_stimuli/003070_2014-06-15_14-58-27_094959634447_rgbf000150-resize_3/003070_2014-06-15_14-58-27_094959634447_rgbf000150-resize_3-target.png,125,2.9415,8,1592,133,feet,jsons/VE125_randls_75.json,410950,883105,35,Woman
114,983798,DepthScenes,duration_manipulation_targetAtFixation,jsons/VE125_randls_75.json,http://54.235.29.9/FacialAge/BNav_EC2/DepthDuration/v2_depth_duration_MTurk/v2_DepthDuration_HTML.html#23,23,1366,625,1366,768,8-21-2022,9-55-23,115,depth_duration_stimuli/000943_2014-06-09_19-31-07_260595134347_rgbf000128-resize_1/000943_2014-06-09_19-31-07_260595134347_rgbf000128-resize_1-target.png,125,1.9765,7,1620,115,feet,jsons/VE125_randls_75.json,410950,883105,35,Woman
115,983798,DepthScenes,duration_manipulation_targetAtFixation,jsons/VE125_randls_75.json,http://54.235.29.9/FacialAge/BNav_EC2/DepthDuration/v2_depth_duration_MTurk/v2_DepthDuration_HTML.html#23,23,1366,625,1366,768,8-21-2022,9-55-23,116,depth_duration_stimuli/001170_2014-06-17_15-43-44_260595134347_rgbf000096-resize_6/001170_2014-06-17_15-43-44_260595134347_rgbf000096-resize-original.jpg,125,1.1909999999999998,9,1810,119,feet,jsons/VE125_randls_75.json,410950,883105,35,Woman
116,983798,DepthScenes,duration_manipulation_targetAtFixation,jsons/VE125_randls_75.json,http://54.235.29.9/FacialAge/BNav_EC2/DepthDuration/v2_depth_duration_MTurk/v2_DepthDuration_HTML.html#23,23,1366,625,1366,768,8-21-2022,9-55-23,117,depth_duration_stimuli/000788_2014-06-08_22-34-36_260595134347_rgbf000131-resize_1/000788_2014-06-08_22-34-36_260595134347_rgbf000131-resize_1-target.png,125,3.359,8,1770,122,feet,jsons/VE125_randls_75.json,410950,883105,35,Woman
117,983798,DepthScenes,duration_manipulation_targetAtFixation,jsons/VE125_randls_75.json,http://54.235.29.9/FacialAge/BNav_EC2/DepthDuration/v2_depth_duration_MTurk/v2_DepthDuration_HTML.html#23,23,1366,625,1366,768,8-21-2022,9-55-23,118,depth_duration_stimuli/001235_2014-06-17_16-37-36_260595134347_rgbf000084-resize_4/001235_2014-06-17_16-37-36_260595134347_rgbf000084-resize_4-target.png,125,3.6605,9,1508,127,feet,jsons/VE125_randls_75.json,410950,883105,35,Woman
118,983798,DepthScenes,duration_manipulation_targetAtFixation,jsons/VE125_randls_75.json,http://54.235.29.9/FacialAge/BNav_EC2/DepthDuration/v2_depth_duration_MTurk/v2_DepthDuration_HTML.html#23,23,1366,625,1366,768,8-21-2022,9-55-23,119,depth_duration_stimuli/002043_2014-06-24_20-29-38_260595134347_rgbf000039-resize_4/002043_2014-06-24_20-29-38_260595134347_rgbf000039-resize_4-target.png,125,2.8435,9,1749,122,feet,jsons/VE125_randls_75.json,410950,883105,35,Woman
119,983798,DepthScenes,duration_manipulation_targetAtFixation,jsons/VE125_randls_75.json,http://54.235.29.9/FacialAge/BNav_EC2/DepthDuration/v2_depth_duration_MTurk/v2_DepthDuration_HTML.html#23,23,1366,625,1366,768,8-21-2022,9-55-23,120,depth_duration_stimuli/003048_2014-06-15_13-49-43_094959634447_rgbf000150-resize_1/003048_2014-06-15_13-49-43_094959634447_rgbf000150-resize_1-target.png,125,4.0035,8,1537,115,feet,jsons/VE125_randls_75.json,410950,883105,35,Woman
120,983798,DepthScenes,duration_manipulation_targetAtFixation,jsons/VE125_randls_75.json,http://54.235.29.9/FacialAge/BNav_EC2/DepthDuration/v2_depth_duration_MTurk/v2_DepthDuration_HTML.html#23,23,1366,625,1366,768,8-21-2022,9-55-23,121,depth_duration_stimuli/002445_2014-06-28_20-32-16_260595134347_rgbf000029-resize_4/002445_2014-06-28_20-32-16_260595134347_rgbf000029-resize_4-target.png,125,2.5315,7,1682,136,feet,jsons/VE125_randls_75.json,410950,883105,35,Woman
121,983798,DepthScenes,duration_manipulation_targetAtFixation,jsons/VE125_randls_75.json,http://54.235.29.9/FacialAge/BNav_EC2/DepthDuration/v2_depth_duration_MTurk/v2_DepthDuration_HTML.html#23,23,1366,625,1366,768,8-21-2022,9-55-23,122,depth_duration_stimuli/000780_2014-06-08_22-28-29_260595134347_rgbf000126-resize_1/000780_2014-06-08_22-28-29_260595134347_rgbf000126-resize_1-target.png,125,3.3825,8,1676,120,feet,jsons/VE125_randls_75.json,410950,883105,35,Woman
122,983798,DepthScenes,duration_manipulation_targetAtFixation,jsons/VE125_randls_75.json,http://54.235.29.9/FacialAge/BNav_EC2/DepthDuration/v2_depth_duration_MTurk/v2_DepthDuration_HTML.html#23,23,1366,625,1366,768,8-21-2022,9-55-23,123,depth_duration_stimuli/001055_2014-06-08_18-45-35_260595134347_rgbf000111-resize_4/001055_2014-06-08_18-45-35_260595134347_rgbf000111-resize_4-target.png,125,2.4290000000000003,9,1666,123,feet,jsons/VE125_randls_75.json,410950,883105,35,Woman
123,983798,DepthScenes,duration_manipulation_targetAtFixation,jsons/VE125_randls_75.json,http://54.235.29.9/FacialAge/BNav_EC2/DepthDuration/v2_depth_duration_MTurk/v2_DepthDuration_HTML.html#23,23,1366,625,1366,768,8-21-2022,9-55-23,124,depth_duration_stimuli/000549_2014-06-08_22-10-24_260595134347_rgbf000247-resize_3/000549_2014-06-08_22-10-24_260595134347_rgbf000247-resize_3-target.png,125,1.841,9,1792,120,feet,jsons/VE125_randls_75.json,410950,883105,35,Woman
124,983798,DepthScenes,duration_manipulation_targetAtFixation,jsons/VE125_randls_75.json,http://54.235.29.9/FacialAge/BNav_EC2/DepthDuration/v2_depth_duration_MTurk/v2_DepthDuration_HTML.html#23,23,1366,625,1366,768,8-21-2022,9-55-23,125,depth_duration_stimuli/001449_2014-06-19_17-01-27_260595134347_rgbf000116-resize_2/001449_2014-06-19_17-01-27_260595134347_rgbf000116-resize_2-target.png,125,3.452,8,1729,128,feet,jsons/VE125_randls_75.json,410950,883105,35,Woman
125,983798,DepthScenes,duration_manipulation_targetAtFixation,jsons/VE125_randls_75.json,http://54.235.29.9/FacialAge/BNav_EC2/DepthDuration/v2_depth_duration_MTurk/v2_DepthDuration_HTML.html#23,23,1366,625,1366,768,8-21-2022,9-55-23,126,depth_duration_stimuli/001450_2014-06-19_17-02-03_260595134347_rgbf000203-resize_4/001450_2014-06-19_17-02-03_260595134347_rgbf000203-resize_4-target.png,125,4.0106666666667,9,1706,132,feet,jsons/VE125_randls_75.json,410950,883105,35,Woman
126,983798,DepthScenes,duration_manipulation_targetAtFixation,jsons/VE125_randls_75.json,http://54.235.29.9/FacialAge/BNav_EC2/DepthDuration/v2_depth_duration_MTurk/v2_DepthDuration_HTML.html#23,23,1366,625,1366,768,8-21-2022,9-55-23,127,depth_duration_stimuli/002509_2014-06-24_13-19-22_094959634447_rgbf000077-resize_0/002509_2014-06-24_13-19-22_094959634447_rgbf000077-resize_0-target.png,125,1.3065,7,1616,131,feet,jsons/VE125_randls_75.json,410950,883105,35,Woman
127,983798,DepthScenes,duration_manipulation_targetAtFixation,jsons/VE125_randls_75.json,http://54.235.29.9/FacialAge/BNav_EC2/DepthDuration/v2_depth_duration_MTurk/v2_DepthDuration_HTML.html#23,23,1366,625,1366,768,8-21-2022,9-55-23,128,depth_duration_stimuli/003338_2014-05-20_11-01-23_094959634447_rgbf000051-resize_6/003338_2014-05-20_11-01-23_094959634447_rgbf000051-resize_6-target.png,125,1.693,9,1592,119,feet,jsons/VE125_randls_75.json,410950,883105,35,Woman
128,983798,DepthScenes,duration_manipulation_targetAtFixation,jsons/VE125_randls_75.json,http://54.235.29.9/FacialAge/BNav_EC2/DepthDuration/v2_depth_duration_MTurk/v2_DepthDuration_HTML.html#23,23,1366,625,1366,768,8-21-2022,9-55-23,129,depth_duration_stimuli/000009_2014-05-26_14-32-05_260595134347_rgbf000034-resize_3/000009_2014-05-26_14-32-05_260595134347_rgbf000034-resize_3-target.png,125,3.8715,9,1458,130,feet,jsons/VE125_randls_75.json,410950,883105,35,Woman
129,983798,DepthScenes,duration_manipulation_targetAtFixation,jsons/VE125_randls_75.json,http://54.235.29.9/FacialAge/BNav_EC2/DepthDuration/v2_depth_duration_MTurk/v2_DepthDuration_HTML.html#23,23,1366,625,1366,768,8-21-2022,9-55-23,130,depth_duration_stimuli/001828_2014-06-26_21-40-03_260595134347_rgbf000024-resize_0/001828_2014-06-26_21-40-03_260595134347_rgbf000024-resize_0-target.png,125,4.8260000000000005,8,1635,121,feet,jsons/VE125_randls_75.json,410950,883105,35,Woman
130,983798,DepthScenes,duration_manipulation_targetAtFixation,jsons/VE125_randls_75.json,http://54.235.29.9/FacialAge/BNav_EC2/DepthDuration/v2_depth_duration_MTurk/v2_DepthDuration_HTML.html#23,23,1366,625,1366,768,8-21-2022,9-55-23,131,depth_duration_stimuli/000522_2014-06-08_13-35-06_260595134347_rgbf000244-resize_1/000522_2014-06-08_13-35-06_260595134347_rgbf000244-resize_1-target.png,125,2.3715,7,1948,120,feet,jsons/VE125_randls_75.json,410950,883105,35,Woman
131,983798,DepthScenes,duration_manipulation_targetAtFixation,jsons/VE125_randls_75.json,http://54.235.29.9/FacialAge/BNav_EC2/DepthDuration/v2_depth_duration_MTurk/v2_DepthDuration_HTML.html#23,23,1366,625,1366,768,8-21-2022,9-55-23,132,depth_duration_stimuli/002949_2014-06-26_15-57-42_094959634447_rgbf000079-resize_1/002949_2014-06-26_15-57-42_094959634447_rgbf000079-resize_1-target.png,125,1.8915,8,2185,115,feet,jsons/VE125_randls_75.json,410950,883105,35,Woman
132,983798,DepthScenes,duration_manipulation_targetAtFixation,jsons/VE125_randls_75.json,http://54.235.29.9/FacialAge/BNav_EC2/DepthDuration/v2_depth_duration_MTurk/v2_DepthDuration_HTML.html#23,23,1366,625,1366,768,8-21-2022,9-55-23,133,depth_duration_stimuli/000447_2014-06-08_16-15-46_260595134347_rgbf000130-resize_1/000447_2014-06-08_16-15-46_260595134347_rgbf000130-resize_1-target.png,125,4.479,9,1883,122,feet,jsons/VE125_randls_75.json,410950,883105,35,Woman
133,983798,DepthScenes,duration_manipulation_targetAtFixation,jsons/VE125_randls_75.json,http://54.235.29.9/FacialAge/BNav_EC2/DepthDuration/v2_depth_duration_MTurk/v2_DepthDuration_HTML.html#23,23,1366,625,1366,768,8-21-2022,9-55-23,134,depth_duration_stimuli/001447_2014-06-19_17-00-32_260595134347_rgbf000082-resize_5/001447_2014-06-19_17-00-32_260595134347_rgbf000082-resize_5-target.png,125,4.13775,8,1806,116,feet,jsons/VE125_randls_75.json,410950,883105,35,Woman
134,983798,DepthScenes,duration_manipulation_targetAtFixation,jsons/VE125_randls_75.json,http://54.235.29.9/FacialAge/BNav_EC2/DepthDuration/v2_depth_duration_MTurk/v2_DepthDuration_HTML.html#23,23,1366,625,1366,768,8-21-2022,9-55-23,135,depth_duration_stimuli/002072_2014-06-24_21-48-06_260595134347_rgbf000115-resize_0/002072_2014-06-24_21-48-06_260595134347_rgbf000115-resize-original.jpg,125,4.702,0,2964,131,feet,jsons/VE125_randls_75.json,410950,883105,35,Woman
135,983798,DepthScenes,duration_manipulation_targetAtFixation,jsons/VE125_randls_75.json,http://54.235.29.9/FacialAge/BNav_EC2/DepthDuration/v2_depth_duration_MTurk/v2_DepthDuration_HTML.html#23,23,1366,625,1366,768,8-21-2022,9-55-23,136,depth_duration_stimuli/000642_2014-06-08_16-59-25_260595134347_rgbf000098-resize_2/000642_2014-06-08_16-59-25_260595134347_rgbf000098-resize_2-target.png,125,2.8815,8,2946,130,feet,jsons/VE125_randls_75.json,410950,883105,35,Woman
136,983798,DepthScenes,duration_manipulation_targetAtFixation,jsons/VE125_randls_75.json,http://54.235.29.9/FacialAge/BNav_EC2/DepthDuration/v2_depth_duration_MTurk/v2_DepthDuration_HTML.html#23,23,1366,625,1366,768,8-21-2022,9-55-23,137,depth_duration_stimuli/002425_2014-06-28_20-27-29_260595134347_rgbf000031-resize_8/002425_2014-06-28_20-27-29_260595134347_rgbf000031-resize_8-target.png,125,3.8960000000000004,9,2131,116,feet,jsons/VE125_randls_75.json,410950,883105,35,Woman
137,983798,DepthScenes,duration_manipulation_targetAtFixation,jsons/VE125_randls_75.json,http://54.235.29.9/FacialAge/BNav_EC2/DepthDuration/v2_depth_duration_MTurk/v2_DepthDuration_HTML.html#23,23,1366,625,1366,768,8-21-2022,9-55-23,138,depth_duration_stimuli/000917_2014-06-09_22-45-29_260595134347_rgbf000149-resize_3/000917_2014-06-09_22-45-29_260595134347_rgbf000149-resize_3-target.png,125,4.1865,8,1769,124,feet,jsons/VE125_randls_75.json,410950,883105,35,Woman
138,983798,DepthScenes,duration_manipulation_targetAtFixation,jsons/VE125_randls_75.json,http://54.235.29.9/FacialAge/BNav_EC2/DepthDuration/v2_depth_duration_MTurk/v2_DepthDuration_HTML.html#23,23,1366,625,1366,768,8-21-2022,9-55-23,139,depth_duration_stimuli/002323_2014-06-28_20-01-54_260595134347_rgbf000051-resize_4/002323_2014-06-28_20-01-54_260595134347_rgbf000051-resize_4-target.png,125,3.7310000000000003,7,2549,130,feet,jsons/VE125_randls_75.json,410950,883105,35,Woman
139,983798,DepthScenes,duration_manipulation_targetAtFixation,jsons/VE125_randls_75.json,http://54.235.29.9/FacialAge/BNav_EC2/DepthDuration/v2_depth_duration_MTurk/v2_DepthDuration_HTML.html#23,23,1366,625,1366,768,8-21-2022,9-55-23,140,depth_duration_stimuli/001016_2014-06-09_16-16-10_260595134347_rgbf000112-resize_5/001016_2014-06-09_16-16-10_260595134347_rgbf000112-resize_5-target.png,125,1.6565,8,1776,121,feet,jsons/VE125_randls_75.json,410950,883105,35,Woman
140,983798,DepthScenes,duration_manipulation_targetAtFixation,jsons/VE125_randls_75.json,http://54.235.29.9/FacialAge/BNav_EC2/DepthDuration/v2_depth_duration_MTurk/v2_DepthDuration_HTML.html#23,23,1366,625,1366,768,8-21-2022,9-55-23,141,depth_duration_stimuli/002340_2014-06-28_20-05-46_260595134347_rgbf000113-resize_0/002340_2014-06-28_20-05-46_260595134347_rgbf000113-resize_0-target.png,125,2.4735,9,1547,127,feet,jsons/VE125_randls_75.json,410950,883105,35,Woman
141,983798,DepthScenes,duration_manipulation_targetAtFixation,jsons/VE125_randls_75.json,http://54.235.29.9/FacialAge/BNav_EC2/DepthDuration/v2_depth_duration_MTurk/v2_DepthDuration_HTML.html#23,23,1366,625,1366,768,8-21-2022,9-55-23,142,depth_duration_stimuli/000906_2014-06-08_13-35-43_260595134347_rgbf000155-resize_1/000906_2014-06-08_13-35-43_260595134347_rgbf000155-resize_1-target.png,125,2.8489999999999998,9,1895,126,feet,jsons/VE125_randls_75.json,410950,883105,35,Woman
142,983798,DepthScenes,duration_manipulation_targetAtFixation,jsons/VE125_randls_75.json,http://54.235.29.9/FacialAge/BNav_EC2/DepthDuration/v2_depth_duration_MTurk/v2_DepthDuration_HTML.html#23,23,1366,625,1366,768,8-21-2022,9-55-23,143,depth_duration_stimuli/002805_2014-06-22_19-54-03_094959634447_rgbf000079-resize_1/002805_2014-06-22_19-54-03_094959634447_rgbf000079-resize_1-target.png,125,3.1439999999999997,8,1737,131,feet,jsons/VE125_randls_75.json,410950,883105,35,Woman
143,983798,DepthScenes,duration_manipulation_targetAtFixation,jsons/VE125_randls_75.json,http://54.235.29.9/FacialAge/BNav_EC2/DepthDuration/v2_depth_duration_MTurk/v2_DepthDuration_HTML.html#23,23,1366,625,1366,768,8-21-2022,9-55-23,144,depth_duration_stimuli/001175_2014-06-17_15-45-55_260595134347_rgbf000129-resize_4/001175_2014-06-17_15-45-55_260595134347_rgbf000129-resize_4-target.png,125,4.255,8,1899,125,feet,jsons/VE125_randls_75.json,410950,883105,35,Woman
144,983798,DepthScenes,duration_manipulation_targetAtFixation,jsons/VE125_randls_75.json,http://54.235.29.9/FacialAge/BNav_EC2/DepthDuration/v2_depth_duration_MTurk/v2_DepthDuration_HTML.html#23,23,1366,625,1366,768,8-21-2022,9-55-23,145,depth_duration_stimuli/003490_2014-05-21_15-50-11_094959634447_rgbf000101-resize_3/003490_2014-05-21_15-50-11_094959634447_rgbf000101-resize_3-target.png,125,3.6445,9,1690,126,feet,jsons/VE125_randls_75.json,410950,883105,35,Woman
145,983798,DepthScenes,duration_manipulation_targetAtFixation,jsons/VE125_randls_75.json,http://54.235.29.9/FacialAge/BNav_EC2/DepthDuration/v2_depth_duration_MTurk/v2_DepthDuration_HTML.html#23,23,1366,625,1366,768,8-21-2022,9-55-23,146,depth_duration_stimuli/001498_2014-06-19_17-45-14_260595134347_rgbf000129-resize_4/001498_2014-06-19_17-45-14_260595134347_rgbf000129-resize-original.jpg,125,1.4075,0,3521,123,feet,jsons/VE125_randls_75.json,410950,883105,35,Woman
146,983798,DepthScenes,duration_manipulation_targetAtFixation,jsons/VE125_randls_75.json,http://54.235.29.9/FacialAge/BNav_EC2/DepthDuration/v2_depth_duration_MTurk/v2_DepthDuration_HTML.html#23,23,1366,625,1366,768,8-21-2022,9-55-23,147,depth_duration_stimuli/001092_2014-06-15_17-34-58_260595134347_rgbf000171-resize_3/001092_2014-06-15_17-34-58_260595134347_rgbf000171-resize_3-target.png,125,2.6935,8,2474,114,feet,jsons/VE125_randls_75.json,410950,883105,35,Woman
147,983798,DepthScenes,duration_manipulation_targetAtFixation,jsons/VE125_randls_75.json,http://54.235.29.9/FacialAge/BNav_EC2/DepthDuration/v2_depth_duration_MTurk/v2_DepthDuration_HTML.html#23,23,1366,625,1366,768,8-21-2022,9-55-23,148,depth_duration_stimuli/002545_2014-06-24_13-38-53_094959634447_rgbf000080-resize_4/002545_2014-06-24_13-38-53_094959634447_rgbf000080-resize_4-target.png,125,1.9205,9,1728,123,feet,jsons/VE125_randls_75.json,410950,883105,35,Woman
148,983798,DepthScenes,duration_manipulation_targetAtFixation,jsons/VE125_randls_75.json,http://54.235.29.9/FacialAge/BNav_EC2/DepthDuration/v2_depth_duration_MTurk/v2_DepthDuration_HTML.html#23,23,1366,625,1366,768,8-21-2022,9-55-23,149,depth_duration_stimuli/001199_2014-06-17_16-03-48_260595134347_rgbf000077-resize_0/001199_2014-06-17_16-03-48_260595134347_rgbf000077-resize_0-target.png,125,3.4375,8,1947,130,feet,jsons/VE125_randls_75.json,410950,883105,35,Woman
149,983798,DepthScenes,duration_manipulation_targetAtFixation,jsons/VE125_randls_75.json,http://54.235.29.9/FacialAge/BNav_EC2/DepthDuration/v2_depth_duration_MTurk/v2_DepthDuration_HTML.html#23,23,1366,625,1366,768,8-21-2022,9-55-23,150,depth_duration_stimuli/000502_2014-06-08_23-02-32_260595134347_rgbf000063-resize_4/000502_2014-06-08_23-02-32_260595134347_rgbf000063-resize_4-target.png,125,2.431,8,1796,112,feet,jsons/VE125_randls_75.json,410950,883105,35,Woman
150,983798,DepthScenes,duration_manipulation_targetAtFixation,jsons/VE125_randls_75.json,http://54.235.29.9/FacialAge/BNav_EC2/DepthDuration/v2_depth_duration_MTurk/v2_DepthDuration_HTML.html#23,23,1366,625,1366,768,8-21-2022,9-55-23,151,depth_duration_stimuli/000414_2014-06-04_19-49-13_260595134347_rgbf000044-resize_0/000414_2014-06-04_19-49-13_260595134347_rgbf000044-resize_0-target.png,125,4.329,9,1673,127,feet,jsons/VE125_randls_75.json,410950,883105,35,Woman
151,983798,DepthScenes,duration_manipulation_targetAtFixation,jsons/VE125_randls_75.json,http://54.235.29.9/FacialAge/BNav_EC2/DepthDuration/v2_depth_duration_MTurk/v2_DepthDuration_HTML.html#23,23,1366,625,1366,768,8-21-2022,9-55-23,152,depth_duration_stimuli/003129_2014-05-12_10-48-10_094959634447_rgbf000100-resize_0/003129_2014-05-12_10-48-10_094959634447_rgbf000100-resize_0-target.png,125,4.9305,9,1711,128,feet,jsons/VE125_randls_75.json,410950,883105,35,Woman
152,983798,DepthScenes,duration_manipulation_targetAtFixation,jsons/VE125_randls_75.json,http://54.235.29.9/FacialAge/BNav_EC2/DepthDuration/v2_depth_duration_MTurk/v2_DepthDuration_HTML.html#23,23,1366,625,1366,768,8-21-2022,9-55-23,153,depth_duration_stimuli/002788_2014-06-22_19-36-03_094959634447_rgbf000088-resize_2/002788_2014-06-22_19-36-03_094959634447_rgbf000088-resize_2-target.png,125,1.6465,8,1709,127,feet,jsons/VE125_randls_75.json,410950,883105,35,Woman
153,983798,DepthScenes,duration_manipulation_targetAtFixation,jsons/VE125_randls_75.json,http://54.235.29.9/FacialAge/BNav_EC2/DepthDuration/v2_depth_duration_MTurk/v2_DepthDuration_HTML.html#23,23,1366,625,1366,768,8-21-2022,9-55-23,154,depth_duration_stimuli/000749_2014-06-08_21-55-06_260595134347_rgbf000070-resize_2/000749_2014-06-08_21-55-06_260595134347_rgbf000070-resize_2-target.png,125,2.331,7,2345,128,feet,jsons/VE125_randls_75.json,410950,883105,35,Woman
154,983798,DepthScenes,duration_manipulation_targetAtFixation,jsons/VE125_randls_75.json,http://54.235.29.9/FacialAge/BNav_EC2/DepthDuration/v2_depth_duration_MTurk/v2_DepthDuration_HTML.html#23,23,1366,625,1366,768,8-21-2022,9-55-23,155,depth_duration_stimuli/000878_2014-06-08_22-52-45_260595134347_rgbf000045-resize_2/000878_2014-06-08_22-52-45_260595134347_rgbf000045-resize_2-target.png,125,2.092,8,1881,132,feet,jsons/VE125_randls_75.json,410950,883105,35,Woman
155,983798,DepthScenes,duration_manipulation_targetAtFixation,jsons/VE125_randls_75.json,http://54.235.29.9/FacialAge/BNav_EC2/DepthDuration/v2_depth_duration_MTurk/v2_DepthDuration_HTML.html#23,23,1366,625,1366,768,8-21-2022,9-55-23,156,depth_duration_stimuli/002953_2014-06-08_17-32-18_094959634447_rgbf000059-resize_5/002953_2014-06-08_17-32-18_094959634447_rgbf000059-resize_5-target.png,125,1.551,9,2025,125,feet,jsons/VE125_randls_75.json,410950,883105,35,Woman
156,983798,DepthScenes,duration_manipulation_targetAtFixation,jsons/VE125_randls_75.json,http://54.235.29.9/FacialAge/BNav_EC2/DepthDuration/v2_depth_duration_MTurk/v2_DepthDuration_HTML.html#23,23,1366,625,1366,768,8-21-2022,9-55-23,157,depth_duration_stimuli/000758_2014-06-08_22-05-08_260595134347_rgbf000085-resize_0/000758_2014-06-08_22-05-08_260595134347_rgbf000085-resize_0-target.png,125,3.3810000000000002,0,3591,125,feet,jsons/VE125_randls_75.json,410950,883105,35,Woman
157,983798,DepthScenes,duration_manipulation_targetAtFixation,jsons/VE125_randls_75.json,http://54.235.29.9/FacialAge/BNav_EC2/DepthDuration/v2_depth_duration_MTurk/v2_DepthDuration_HTML.html#23,23,1366,625,1366,768,8-21-2022,9-55-23,158,depth_duration_stimuli/000854_2014-06-09_19-43-13_260595134347_rgbf000066-resize_0/000854_2014-06-09_19-43-13_260595134347_rgbf000066-resize_0-target.png,125,3.068,8,1981,128,feet,jsons/VE125_randls_75.json,410950,883105,35,Woman
158,983798,DepthScenes,duration_manipulation_targetAtFixation,jsons/VE125_randls_75.json,http://54.235.29.9/FacialAge/BNav_EC2/DepthDuration/v2_depth_duration_MTurk/v2_DepthDuration_HTML.html#23,23,1366,625,1366,768,8-21-2022,9-55-23,159,depth_duration_stimuli/001806_2014-06-26_20-50-20_260595134347_rgbf000091-resize_1/001806_2014-06-26_20-50-20_260595134347_rgbf000091-resize_1-target.png,125,2.7305,7,1504,125,feet,jsons/VE125_randls_75.json,410950,883105,35,Woman
159,983798,DepthScenes,duration_manipulation_targetAtFixation,jsons/VE125_randls_75.json,http://54.235.29.9/FacialAge/BNav_EC2/DepthDuration/v2_depth_duration_MTurk/v2_DepthDuration_HTML.html#23,23,1366,625,1366,768,8-21-2022,9-55-23,160,depth_duration_stimuli/001617_2014-06-20_11-35-32_260595134347_rgbf000066-resize_1/001617_2014-06-20_11-35-32_260595134347_rgbf000066-resize_1-target.png,125,3.7910000000000004,9,1510,124,feet,jsons/VE125_randls_75.json,410950,883105,35,Woman
160,983798,DepthScenes,duration_manipulation_targetAtFixation,jsons/VE125_randls_75.json,http://54.235.29.9/FacialAge/BNav_EC2/DepthDuration/v2_depth_duration_MTurk/v2_DepthDuration_HTML.html#23,23,1366,625,1366,768,8-21-2022,9-55-23,161,depth_duration_stimuli/000773_2014-06-08_22-24-54_260595134347_rgbf000093-resize_1/000773_2014-06-08_22-24-54_260595134347_rgbf000093-resize_1-target.png,125,4.973,8,2312,117,feet,jsons/VE125_randls_75.json,410950,883105,35,Woman
161,983798,DepthScenes,duration_manipulation_targetAtFixation,jsons/VE125_randls_75.json,http://54.235.29.9/FacialAge/BNav_EC2/DepthDuration/v2_depth_duration_MTurk/v2_DepthDuration_HTML.html#23,23,1366,625,1366,768,8-21-2022,9-55-23,162,depth_duration_stimuli/002414_2014-06-28_20-24-58_260595134347_rgbf000067-resize_4/002414_2014-06-28_20-24-58_260595134347_rgbf000067-resize_4-target.png,125,4.363,9,2372,123,feet,jsons/VE125_randls_75.json,410950,883105,35,Woman
162,983798,DepthScenes,duration_manipulation_targetAtFixation,jsons/VE125_randls_75.json,http://54.235.29.9/FacialAge/BNav_EC2/DepthDuration/v2_depth_duration_MTurk/v2_DepthDuration_HTML.html#23,23,1366,625,1366,768,8-21-2022,9-55-23,163,depth_duration_stimuli/002118_2014-06-25_20-32-08_260595134347_rgbf000078-resize_1/002118_2014-06-25_20-32-08_260595134347_rgbf000078-resize_1-target.png,125,2.6460000000000004,8,1843,134,feet,jsons/VE125_randls_75.json,410950,883105,35,Woman
163,983798,DepthScenes,duration_manipulation_targetAtFixation,jsons/VE125_randls_75.json,http://54.235.29.9/FacialAge/BNav_EC2/DepthDuration/v2_depth_duration_MTurk/v2_DepthDuration_HTML.html#23,23,1366,625,1366,768,8-21-2022,9-55-23,164,depth_duration_stimuli/001516_2014-06-20_16-25-09_260595134347_rgbf000076-resize_2/001516_2014-06-20_16-25-09_260595134347_rgbf000076-resize_2-target.png,125,1.7445,9,1679,122,feet,jsons/VE125_randls_75.json,410950,883105,35,Woman
