,subjID,experimentName,versionName,sequenceName,url,selected_row,windowWidth,windowHeight,screenWidth,screenHeight,startDate,startTime,trial,stimulus,duration,actual_depth,depth_estimate,trial_RT,log_sceneDuration,unitSelection,seq_filepath,experimentTime,totalTime,age,gender
0,987259,DepthScenes,duration_manipulation_targetAtFixation,jsons/v1_VE1000_randls_23.json,http://54.235.29.9/FacialAge/BNav_EC2/DepthDuration/v2_depth_duration_MTurk/v2_DepthDuration_HTML.html#143,143,1366,625,1366,768,8-22-2022,8-6-20,1,depth_duration_stimuli/000682_2014-06-08_23-14-58_260595134347_rgbf000041-resize_5/000682_2014-06-08_23-14-58_260595134347_rgbf000041-resize_5-target.png,1000,2.7239999999999998,3,3807,988,feet,jsons/v1_VE1000_randls_23.json,790293,1038286,59,Man
1,987259,DepthScenes,duration_manipulation_targetAtFixation,jsons/v1_VE1000_randls_23.json,http://54.235.29.9/FacialAge/BNav_EC2/DepthDuration/v2_depth_duration_MTurk/v2_DepthDuration_HTML.html#143,143,1366,625,1366,768,8-22-2022,8-6-20,2,depth_duration_stimuli/001650_2014-06-20_12-09-00_260595134347_rgbf000087-resize_3/001650_2014-06-20_12-09-00_260595134347_rgbf000087-resize_3-target.png,1000,1.9505,2,3820,1013,feet,jsons/v1_VE1000_randls_23.json,790293,1038286,59,Man
2,987259,DepthScenes,duration_manipulation_targetAtFixation,jsons/v1_VE1000_randls_23.json,http://54.235.29.9/FacialAge/BNav_EC2/DepthDuration/v2_depth_duration_MTurk/v2_DepthDuration_HTML.html#143,143,1366,625,1366,768,8-22-2022,8-6-20,3,depth_duration_stimuli/000436_2014-06-09_22-25-11_260595134347_rgbf000137-resize_1/000436_2014-06-09_22-25-11_260595134347_rgbf000137-resize_1-target.png,1000,4.0705,3,3786,999,feet,jsons/v1_VE1000_randls_23.json,790293,1038286,59,Man
3,987259,DepthScenes,duration_manipulation_targetAtFixation,jsons/v1_VE1000_randls_23.json,http://54.235.29.9/FacialAge/BNav_EC2/DepthDuration/v2_depth_duration_MTurk/v2_DepthDuration_HTML.html#143,143,1366,625,1366,768,8-22-2022,8-6-20,4,depth_duration_stimuli/002444_2014-06-28_20-32-08_260595134347_rgbf000027-resize_0/002444_2014-06-28_20-32-08_260595134347_rgbf000027-resize_0-target.png,1000,4.388999999999999,4,4049,1012,feet,jsons/v1_VE1000_randls_23.json,790293,1038286,59,Man
4,987259,DepthScenes,duration_manipulation_targetAtFixation,jsons/v1_VE1000_randls_23.json,http://54.235.29.9/FacialAge/BNav_EC2/DepthDuration/v2_depth_duration_MTurk/v2_DepthDuration_HTML.html#143,143,1366,625,1366,768,8-22-2022,8-6-20,5,depth_duration_stimuli/001449_2014-06-19_17-01-27_260595134347_rgbf000116-resize_2/001449_2014-06-19_17-01-27_260595134347_rgbf000116-resize_2-target.png,1000,3.452,3,3717,999,feet,jsons/v1_VE1000_randls_23.json,790293,1038286,59,Man
5,987259,DepthScenes,duration_manipulation_targetAtFixation,jsons/v1_VE1000_randls_23.json,http://54.235.29.9/FacialAge/BNav_EC2/DepthDuration/v2_depth_duration_MTurk/v2_DepthDuration_HTML.html#143,143,1366,625,1366,768,8-22-2022,8-6-20,6,depth_duration_stimuli/001450_2014-06-19_17-02-03_260595134347_rgbf000203-resize_4/001450_2014-06-19_17-02-03_260595134347_rgbf000203-resize_4-target.png,1000,4.0106666666667,6,3342,998,feet,jsons/v1_VE1000_randls_23.json,790293,1038286,59,Man
6,987259,DepthScenes,duration_manipulation_targetAtFixation,jsons/v1_VE1000_randls_23.json,http://54.235.29.9/FacialAge/BNav_EC2/DepthDuration/v2_depth_duration_MTurk/v2_DepthDuration_HTML.html#143,143,1366,625,1366,768,8-22-2022,8-6-20,7,depth_duration_stimuli/001150_2014-06-17_15-27-34_260595134347_rgbf000108-resize_2/001150_2014-06-17_15-27-34_260595134347_rgbf000108-resize_2-target.png,1000,4.0325,6,3971,986,feet,jsons/v1_VE1000_randls_23.json,790293,1038286,59,Man
7,987259,DepthScenes,duration_manipulation_targetAtFixation,jsons/v1_VE1000_randls_23.json,http://54.235.29.9/FacialAge/BNav_EC2/DepthDuration/v2_depth_duration_MTurk/v2_DepthDuration_HTML.html#143,143,1366,625,1366,768,8-22-2022,8-6-20,8,depth_duration_stimuli/000665_2014-06-09_20-42-35_260595134347_rgbf000110-resize_1/000665_2014-06-09_20-42-35_260595134347_rgbf000110-resize_1-target.png,1000,3.057,5,5164,994,feet,jsons/v1_VE1000_randls_23.json,790293,1038286,59,Man
8,987259,DepthScenes,duration_manipulation_targetAtFixation,jsons/v1_VE1000_randls_23.json,http://54.235.29.9/FacialAge/BNav_EC2/DepthDuration/v2_depth_duration_MTurk/v2_DepthDuration_HTML.html#143,143,1366,625,1366,768,8-22-2022,8-6-20,9,depth_duration_stimuli/000642_2014-06-08_16-59-25_260595134347_rgbf000098-resize_2/000642_2014-06-08_16-59-25_260595134347_rgbf000098-resize_2-target.png,1000,2.8815,5,7333,994,feet,jsons/v1_VE1000_randls_23.json,790293,1038286,59,Man
9,987259,DepthScenes,duration_manipulation_targetAtFixation,jsons/v1_VE1000_randls_23.json,http://54.235.29.9/FacialAge/BNav_EC2/DepthDuration/v2_depth_duration_MTurk/v2_DepthDuration_HTML.html#143,143,1366,625,1366,768,8-22-2022,8-6-20,10,depth_duration_stimuli/002425_2014-06-28_20-27-29_260595134347_rgbf000031-resize_8/002425_2014-06-28_20-27-29_260595134347_rgbf000031-resize_8-target.png,1000,3.8960000000000004,6,3739,1008,feet,jsons/v1_VE1000_randls_23.json,790293,1038286,59,Man
10,987259,DepthScenes,duration_manipulation_targetAtFixation,jsons/v1_VE1000_randls_23.json,http://54.235.29.9/FacialAge/BNav_EC2/DepthDuration/v2_depth_duration_MTurk/v2_DepthDuration_HTML.html#143,143,1366,625,1366,768,8-22-2022,8-6-20,11,depth_duration_stimuli/001056_2014-06-08_18-46-44_260595134347_rgbf000068-resize_0/001056_2014-06-08_18-46-44_260595134347_rgbf000068-resize_0-target.png,1000,2.6625,4,4062,1002,feet,jsons/v1_VE1000_randls_23.json,790293,1038286,59,Man
11,987259,DepthScenes,duration_manipulation_targetAtFixation,jsons/v1_VE1000_randls_23.json,http://54.235.29.9/FacialAge/BNav_EC2/DepthDuration/v2_depth_duration_MTurk/v2_DepthDuration_HTML.html#143,143,1366,625,1366,768,8-22-2022,8-6-20,12,depth_duration_stimuli/002199_2014-06-28_18-33-56_260595134347_rgbf000074-resize_0/002199_2014-06-28_18-33-56_260595134347_rgbf000074-resize_0-target.png,1000,1.996,1,3921,1006,feet,jsons/v1_VE1000_randls_23.json,790293,1038286,59,Man
12,987259,DepthScenes,duration_manipulation_targetAtFixation,jsons/v1_VE1000_randls_23.json,http://54.235.29.9/FacialAge/BNav_EC2/DepthDuration/v2_depth_duration_MTurk/v2_DepthDuration_HTML.html#143,143,1366,625,1366,768,8-22-2022,8-6-20,13,depth_duration_stimuli/000569_2014-06-09_22-51-47_260595134347_rgbf000141-resize_3/000569_2014-06-09_22-51-47_260595134347_rgbf000141-resize-original.jpg,1000,4.512,0,3685,1005,feet,jsons/v1_VE1000_randls_23.json,790293,1038286,59,Man
13,987259,DepthScenes,duration_manipulation_targetAtFixation,jsons/v1_VE1000_randls_23.json,http://54.235.29.9/FacialAge/BNav_EC2/DepthDuration/v2_depth_duration_MTurk/v2_DepthDuration_HTML.html#143,143,1366,625,1366,768,8-22-2022,8-6-20,14,depth_duration_stimuli/001092_2014-06-15_17-34-58_260595134347_rgbf000171-resize_3/001092_2014-06-15_17-34-58_260595134347_rgbf000171-resize_3-target.png,1000,2.6935,3,4002,989,feet,jsons/v1_VE1000_randls_23.json,790293,1038286,59,Man
14,987259,DepthScenes,duration_manipulation_targetAtFixation,jsons/v1_VE1000_randls_23.json,http://54.235.29.9/FacialAge/BNav_EC2/DepthDuration/v2_depth_duration_MTurk/v2_DepthDuration_HTML.html#143,143,1366,625,1366,768,8-22-2022,8-6-20,15,depth_duration_stimuli/002545_2014-06-24_13-38-53_094959634447_rgbf000080-resize_4/002545_2014-06-24_13-38-53_094959634447_rgbf000080-resize_4-target.png,1000,1.9205,2,3820,998,feet,jsons/v1_VE1000_randls_23.json,790293,1038286,59,Man
15,987259,DepthScenes,duration_manipulation_targetAtFixation,jsons/v1_VE1000_randls_23.json,http://54.235.29.9/FacialAge/BNav_EC2/DepthDuration/v2_depth_duration_MTurk/v2_DepthDuration_HTML.html#143,143,1366,625,1366,768,8-22-2022,8-6-20,16,depth_duration_stimuli/000414_2014-06-04_19-49-13_260595134347_rgbf000044-resize_0/000414_2014-06-04_19-49-13_260595134347_rgbf000044-resize_0-target.png,1000,4.329,7,5159,993,feet,jsons/v1_VE1000_randls_23.json,790293,1038286,59,Man
16,987259,DepthScenes,duration_manipulation_targetAtFixation,jsons/v1_VE1000_randls_23.json,http://54.235.29.9/FacialAge/BNav_EC2/DepthDuration/v2_depth_duration_MTurk/v2_DepthDuration_HTML.html#143,143,1366,625,1366,768,8-22-2022,8-6-20,17,depth_duration_stimuli/003129_2014-05-12_10-48-10_094959634447_rgbf000100-resize_0/003129_2014-05-12_10-48-10_094959634447_rgbf000100-resize_0-target.png,1000,4.9305,8,4037,990,feet,jsons/v1_VE1000_randls_23.json,790293,1038286,59,Man
17,987259,DepthScenes,duration_manipulation_targetAtFixation,jsons/v1_VE1000_randls_23.json,http://54.235.29.9/FacialAge/BNav_EC2/DepthDuration/v2_depth_duration_MTurk/v2_DepthDuration_HTML.html#143,143,1366,625,1366,768,8-22-2022,8-6-20,18,depth_duration_stimuli/003070_2014-06-15_14-58-27_094959634447_rgbf000150-resize_3/003070_2014-06-15_14-58-27_094959634447_rgbf000150-resize_3-target.png,1000,2.9415,6,4321,991,feet,jsons/v1_VE1000_randls_23.json,790293,1038286,59,Man
18,987259,DepthScenes,duration_manipulation_targetAtFixation,jsons/v1_VE1000_randls_23.json,http://54.235.29.9/FacialAge/BNav_EC2/DepthDuration/v2_depth_duration_MTurk/v2_DepthDuration_HTML.html#143,143,1366,625,1366,768,8-22-2022,8-6-20,19,depth_duration_stimuli/000943_2014-06-09_19-31-07_260595134347_rgbf000128-resize_1/000943_2014-06-09_19-31-07_260595134347_rgbf000128-resize_1-target.png,1000,1.9765,4,3829,992,feet,jsons/v1_VE1000_randls_23.json,790293,1038286,59,Man
19,987259,DepthScenes,duration_manipulation_targetAtFixation,jsons/v1_VE1000_randls_23.json,http://54.235.29.9/FacialAge/BNav_EC2/DepthDuration/v2_depth_duration_MTurk/v2_DepthDuration_HTML.html#143,143,1366,625,1366,768,8-22-2022,8-6-20,20,depth_duration_stimuli/002905_2014-06-03_18-04-43_094959634447_rgbf000151-resize_2/002905_2014-06-03_18-04-43_094959634447_rgbf000151-resize_2-target.png,1000,2.0295,5,3564,1000,feet,jsons/v1_VE1000_randls_23.json,790293,1038286,59,Man
20,987259,DepthScenes,duration_manipulation_targetAtFixation,jsons/v1_VE1000_randls_23.json,http://54.235.29.9/FacialAge/BNav_EC2/DepthDuration/v2_depth_duration_MTurk/v2_DepthDuration_HTML.html#143,143,1366,625,1366,768,8-22-2022,8-6-20,21,depth_duration_stimuli/003423_2014-05-21_10-23-26_094959634447_rgbf002665-resize_2/003423_2014-05-21_10-23-26_094959634447_rgbf002665-resize_2-target.png,1000,3.2575,6,3616,1019,feet,jsons/v1_VE1000_randls_23.json,790293,1038286,59,Man
21,987259,DepthScenes,duration_manipulation_targetAtFixation,jsons/v1_VE1000_randls_23.json,http://54.235.29.9/FacialAge/BNav_EC2/DepthDuration/v2_depth_duration_MTurk/v2_DepthDuration_HTML.html#143,143,1366,625,1366,768,8-22-2022,8-6-20,22,depth_duration_stimuli/000486_2014-06-09_20-47-20_260595134347_rgbf000143-resize_2/000486_2014-06-09_20-47-20_260595134347_rgbf000143-resize_2-target.png,1000,4.8325,4,3784,986,feet,jsons/v1_VE1000_randls_23.json,790293,1038286,59,Man
22,987259,DepthScenes,duration_manipulation_targetAtFixation,jsons/v1_VE1000_randls_23.json,http://54.235.29.9/FacialAge/BNav_EC2/DepthDuration/v2_depth_duration_MTurk/v2_DepthDuration_HTML.html#143,143,1366,625,1366,768,8-22-2022,8-6-20,23,depth_duration_stimuli/003083_2014-06-15_15-21-03_094959634447_rgbf000063-resize_1/003083_2014-06-15_15-21-03_094959634447_rgbf000063-resize_1-target.png,1000,4.1405,8,3669,1005,feet,jsons/v1_VE1000_randls_23.json,790293,1038286,59,Man
23,987259,DepthScenes,duration_manipulation_targetAtFixation,jsons/v1_VE1000_randls_23.json,http://54.235.29.9/FacialAge/BNav_EC2/DepthDuration/v2_depth_duration_MTurk/v2_DepthDuration_HTML.html#143,143,1366,625,1366,768,8-22-2022,8-6-20,24,depth_duration_stimuli/002153_2014-06-25_21-27-18_260595134347_rgbf000038-resize_5/002153_2014-06-25_21-27-18_260595134347_rgbf000038-resize_5-target.png,1000,2.505,4,4542,994,feet,jsons/v1_VE1000_randls_23.json,790293,1038286,59,Man
24,987259,DepthScenes,duration_manipulation_targetAtFixation,jsons/v1_VE1000_randls_23.json,http://54.235.29.9/FacialAge/BNav_EC2/DepthDuration/v2_depth_duration_MTurk/v2_DepthDuration_HTML.html#143,143,1366,625,1366,768,8-22-2022,8-6-20,25,depth_duration_stimuli/002660_2014-06-13_15-44-18_094959634447_rgbf001878-resize_2/002660_2014-06-13_15-44-18_094959634447_rgbf001878-resize_2-target.png,1000,3.576,3,3441,993,feet,jsons/v1_VE1000_randls_23.json,790293,1038286,59,Man
25,987259,DepthScenes,duration_manipulation_targetAtFixation,jsons/v1_VE1000_randls_23.json,http://54.235.29.9/FacialAge/BNav_EC2/DepthDuration/v2_depth_duration_MTurk/v2_DepthDuration_HTML.html#143,143,1366,625,1366,768,8-22-2022,8-6-20,26,depth_duration_stimuli/001011_2014-06-08_23-18-54_260595134347_rgbf000044-resize_4/001011_2014-06-08_23-18-54_260595134347_rgbf000044-resize_4-target.png,1000,2.4730000000000003,5,3546,999,feet,jsons/v1_VE1000_randls_23.json,790293,1038286,59,Man
26,987259,DepthScenes,duration_manipulation_targetAtFixation,jsons/v1_VE1000_randls_23.json,http://54.235.29.9/FacialAge/BNav_EC2/DepthDuration/v2_depth_duration_MTurk/v2_DepthDuration_HTML.html#143,143,1366,625,1366,768,8-22-2022,8-6-20,27,depth_duration_stimuli/002875_2014-06-01_15-19-00_094959634447_rgbf000151-resize_1/002875_2014-06-01_15-19-00_094959634447_rgbf000151-resize_1-target.png,1000,1.9675,3,3449,991,feet,jsons/v1_VE1000_randls_23.json,790293,1038286,59,Man
27,987259,DepthScenes,duration_manipulation_targetAtFixation,jsons/v1_VE1000_randls_23.json,http://54.235.29.9/FacialAge/BNav_EC2/DepthDuration/v2_depth_duration_MTurk/v2_DepthDuration_HTML.html#143,143,1366,625,1366,768,8-22-2022,8-6-20,28,depth_duration_stimuli/002988_2014-06-15_12-24-20_094959634447_rgbf000150-resize_1/002988_2014-06-15_12-24-20_094959634447_rgbf000150-resize_1-target.png,1000,4.7669999999999995,7,3550,992,feet,jsons/v1_VE1000_randls_23.json,790293,1038286,59,Man
28,987259,DepthScenes,duration_manipulation_targetAtFixation,jsons/v1_VE1000_randls_23.json,http://54.235.29.9/FacialAge/BNav_EC2/DepthDuration/v2_depth_duration_MTurk/v2_DepthDuration_HTML.html#143,143,1366,625,1366,768,8-22-2022,8-6-20,29,depth_duration_stimuli/001052_2014-06-08_18-24-54_260595134347_rgbf000130-resize_1/001052_2014-06-08_18-24-54_260595134347_rgbf000130-resize_1-target.png,1000,4.1045,8,4129,989,feet,jsons/v1_VE1000_randls_23.json,790293,1038286,59,Man
29,987259,DepthScenes,duration_manipulation_targetAtFixation,jsons/v1_VE1000_randls_23.json,http://54.235.29.9/FacialAge/BNav_EC2/DepthDuration/v2_depth_duration_MTurk/v2_DepthDuration_HTML.html#143,143,1366,625,1366,768,8-22-2022,8-6-20,30,depth_duration_stimuli/000375_2014-06-08_11-17-29_260595134347_rgbf000133-resize_2/000375_2014-06-08_11-17-29_260595134347_rgbf000133-resize-original.jpg,1000,4.718,0,4968,1004,feet,jsons/v1_VE1000_randls_23.json,790293,1038286,59,Man
30,987259,DepthScenes,duration_manipulation_targetAtFixation,jsons/v1_VE1000_randls_23.json,http://54.235.29.9/FacialAge/BNav_EC2/DepthDuration/v2_depth_duration_MTurk/v2_DepthDuration_HTML.html#143,143,1366,625,1366,768,8-22-2022,8-6-20,31,depth_duration_stimuli/002043_2014-06-24_20-29-38_260595134347_rgbf000039-resize_4/002043_2014-06-24_20-29-38_260595134347_rgbf000039-resize_4-target.png,1000,2.8435,4,4769,1004,feet,jsons/v1_VE1000_randls_23.json,790293,1038286,59,Man
31,987259,DepthScenes,duration_manipulation_targetAtFixation,jsons/v1_VE1000_randls_23.json,http://54.235.29.9/FacialAge/BNav_EC2/DepthDuration/v2_depth_duration_MTurk/v2_DepthDuration_HTML.html#143,143,1366,625,1366,768,8-22-2022,8-6-20,32,depth_duration_stimuli/003048_2014-06-15_13-49-43_094959634447_rgbf000150-resize_1/003048_2014-06-15_13-49-43_094959634447_rgbf000150-resize_1-target.png,1000,4.0035,6,4480,997,feet,jsons/v1_VE1000_randls_23.json,790293,1038286,59,Man
32,987259,DepthScenes,duration_manipulation_targetAtFixation,jsons/v1_VE1000_randls_23.json,http://54.235.29.9/FacialAge/BNav_EC2/DepthDuration/v2_depth_duration_MTurk/v2_DepthDuration_HTML.html#143,143,1366,625,1366,768,8-22-2022,8-6-20,33,depth_duration_stimuli/002763_2014-06-22_19-13-10_094959634447_rgbf000075-resize_4/002763_2014-06-22_19-13-10_094959634447_rgbf000075-resize_4-target.png,1000,1.68375,5,4143,1023,feet,jsons/v1_VE1000_randls_23.json,790293,1038286,59,Man
33,987259,DepthScenes,duration_manipulation_targetAtFixation,jsons/v1_VE1000_randls_23.json,http://54.235.29.9/FacialAge/BNav_EC2/DepthDuration/v2_depth_duration_MTurk/v2_DepthDuration_HTML.html#143,143,1366,625,1366,768,8-22-2022,8-6-20,34,depth_duration_stimuli/002209_2014-06-28_18-36-10_260595134347_rgbf000051-resize_1/002209_2014-06-28_18-36-10_260595134347_rgbf000051-resize_1-target.png,1000,2.057,3,3963,1007,feet,jsons/v1_VE1000_randls_23.json,790293,1038286,59,Man
34,987259,DepthScenes,duration_manipulation_targetAtFixation,jsons/v1_VE1000_randls_23.json,http://54.235.29.9/FacialAge/BNav_EC2/DepthDuration/v2_depth_duration_MTurk/v2_DepthDuration_HTML.html#143,143,1366,625,1366,768,8-22-2022,8-6-20,35,depth_duration_stimuli/000522_2014-06-08_13-35-06_260595134347_rgbf000244-resize_1/000522_2014-06-08_13-35-06_260595134347_rgbf000244-resize_1-target.png,1000,2.3715,1,3493,1005,feet,jsons/v1_VE1000_randls_23.json,790293,1038286,59,Man
35,987259,DepthScenes,duration_manipulation_targetAtFixation,jsons/v1_VE1000_randls_23.json,http://54.235.29.9/FacialAge/BNav_EC2/DepthDuration/v2_depth_duration_MTurk/v2_DepthDuration_HTML.html#143,143,1366,625,1366,768,8-22-2022,8-6-20,36,depth_duration_stimuli/002949_2014-06-26_15-57-42_094959634447_rgbf000079-resize_1/002949_2014-06-26_15-57-42_094959634447_rgbf000079-resize_1-target.png,1000,1.8915,2,3572,992,feet,jsons/v1_VE1000_randls_23.json,790293,1038286,59,Man
36,987259,DepthScenes,duration_manipulation_targetAtFixation,jsons/v1_VE1000_randls_23.json,http://54.235.29.9/FacialAge/BNav_EC2/DepthDuration/v2_depth_duration_MTurk/v2_DepthDuration_HTML.html#143,143,1366,625,1366,768,8-22-2022,8-6-20,37,depth_duration_stimuli/000917_2014-06-09_22-45-29_260595134347_rgbf000149-resize_3/000917_2014-06-09_22-45-29_260595134347_rgbf000149-resize_3-target.png,1000,4.1865,4,3996,975,feet,jsons/v1_VE1000_randls_23.json,790293,1038286,59,Man
37,987259,DepthScenes,duration_manipulation_targetAtFixation,jsons/v1_VE1000_randls_23.json,http://54.235.29.9/FacialAge/BNav_EC2/DepthDuration/v2_depth_duration_MTurk/v2_DepthDuration_HTML.html#143,143,1366,625,1366,768,8-22-2022,8-6-20,38,depth_duration_stimuli/002323_2014-06-28_20-01-54_260595134347_rgbf000051-resize_4/002323_2014-06-28_20-01-54_260595134347_rgbf000051-resize_4-target.png,1000,3.7310000000000003,6,4089,998,feet,jsons/v1_VE1000_randls_23.json,790293,1038286,59,Man
38,987259,DepthScenes,duration_manipulation_targetAtFixation,jsons/v1_VE1000_randls_23.json,http://54.235.29.9/FacialAge/BNav_EC2/DepthDuration/v2_depth_duration_MTurk/v2_DepthDuration_HTML.html#143,143,1366,625,1366,768,8-22-2022,8-6-20,39,depth_duration_stimuli/002549_2014-06-24_13-41-39_094959634447_rgbf000022-resize_3/002549_2014-06-24_13-41-39_094959634447_rgbf000022-resize_3-target.png,1000,1.476,5,4047,998,feet,jsons/v1_VE1000_randls_23.json,790293,1038286,59,Man
39,987259,DepthScenes,duration_manipulation_targetAtFixation,jsons/v1_VE1000_randls_23.json,http://54.235.29.9/FacialAge/BNav_EC2/DepthDuration/v2_depth_duration_MTurk/v2_DepthDuration_HTML.html#143,143,1366,625,1366,768,8-22-2022,8-6-20,40,depth_duration_stimuli/002750_2014-06-22_19-08-03_094959634447_rgbf000094-resize_4/002750_2014-06-22_19-08-03_094959634447_rgbf000094-resize_4-target.png,1000,2.354,4,5511,962,feet,jsons/v1_VE1000_randls_23.json,790293,1038286,59,Man
40,987259,DepthScenes,duration_manipulation_targetAtFixation,jsons/v1_VE1000_randls_23.json,http://54.235.29.9/FacialAge/BNav_EC2/DepthDuration/v2_depth_duration_MTurk/v2_DepthDuration_HTML.html#143,143,1366,625,1366,768,8-22-2022,8-6-20,41,depth_duration_stimuli/002600_2014-06-24_14-27-04_094959634447_rgbf000074-resize_2/002600_2014-06-24_14-27-04_094959634447_rgbf000074-resize_2-target.png,1000,2.7575,4,4282,987,feet,jsons/v1_VE1000_randls_23.json,790293,1038286,59,Man
41,987259,DepthScenes,duration_manipulation_targetAtFixation,jsons/v1_VE1000_randls_23.json,http://54.235.29.9/FacialAge/BNav_EC2/DepthDuration/v2_depth_duration_MTurk/v2_DepthDuration_HTML.html#143,143,1366,625,1366,768,8-22-2022,8-6-20,42,depth_duration_stimuli/003228_2014-05-14_13-42-35_094959634447_rgbf000101-resize_1/003228_2014-05-14_13-42-35_094959634447_rgbf000101-resize_1-target.png,1000,1.9680000000000002,5,3664,992,feet,jsons/v1_VE1000_randls_23.json,790293,1038286,59,Man
42,987259,DepthScenes,duration_manipulation_targetAtFixation,jsons/v1_VE1000_randls_23.json,http://54.235.29.9/FacialAge/BNav_EC2/DepthDuration/v2_depth_duration_MTurk/v2_DepthDuration_HTML.html#143,143,1366,625,1366,768,8-22-2022,8-6-20,43,depth_duration_stimuli/001029_2014-06-08_13-17-57_260595134347_rgbf000065-resize_1/001029_2014-06-08_13-17-57_260595134347_rgbf000065-resize_1-target.png,1000,3.0835,6,4028,995,feet,jsons/v1_VE1000_randls_23.json,790293,1038286,59,Man
43,987259,DepthScenes,duration_manipulation_targetAtFixation,jsons/v1_VE1000_randls_23.json,http://54.235.29.9/FacialAge/BNav_EC2/DepthDuration/v2_depth_duration_MTurk/v2_DepthDuration_HTML.html#143,143,1366,625,1366,768,8-22-2022,8-6-20,44,depth_duration_stimuli/000677_2014-06-08_23-10-32_260595134347_rgbf000158-resize_6/000677_2014-06-08_23-10-32_260595134347_rgbf000158-resize_6-target.png,1000,3.556,4,4193,991,feet,jsons/v1_VE1000_randls_23.json,790293,1038286,59,Man
44,987259,DepthScenes,duration_manipulation_targetAtFixation,jsons/v1_VE1000_randls_23.json,http://54.235.29.9/FacialAge/BNav_EC2/DepthDuration/v2_depth_duration_MTurk/v2_DepthDuration_HTML.html#143,143,1366,625,1366,768,8-22-2022,8-6-20,45,depth_duration_stimuli/000787_2014-06-08_22-33-53_260595134347_rgbf000175-resize_1/000787_2014-06-08_22-33-53_260595134347_rgbf000175-resize-original.jpg,1000,4.784,0,3918,994,feet,jsons/v1_VE1000_randls_23.json,790293,1038286,59,Man
45,987259,DepthScenes,duration_manipulation_targetAtFixation,jsons/v1_VE1000_randls_23.json,http://54.235.29.9/FacialAge/BNav_EC2/DepthDuration/v2_depth_duration_MTurk/v2_DepthDuration_HTML.html#143,143,1366,625,1366,768,8-22-2022,8-6-20,46,depth_duration_stimuli/001110_2014-06-15_17-25-28_260595134347_rgbf000150-resize_1/001110_2014-06-15_17-25-28_260595134347_rgbf000150-resize_1-target.png,1000,1.7115,4,4082,976,feet,jsons/v1_VE1000_randls_23.json,790293,1038286,59,Man
46,987259,DepthScenes,duration_manipulation_targetAtFixation,jsons/v1_VE1000_randls_23.json,http://54.235.29.9/FacialAge/BNav_EC2/DepthDuration/v2_depth_duration_MTurk/v2_DepthDuration_HTML.html#143,143,1366,625,1366,768,8-22-2022,8-6-20,47,depth_duration_stimuli/000927_2014-06-09_16-32-30_260595134347_rgbf000123-resize_3/000927_2014-06-09_16-32-30_260595134347_rgbf000123-resize_3-target.png,1000,2.6785,5,3396,1216,feet,jsons/v1_VE1000_randls_23.json,790293,1038286,59,Man
47,987259,DepthScenes,duration_manipulation_targetAtFixation,jsons/v1_VE1000_randls_23.json,http://54.235.29.9/FacialAge/BNav_EC2/DepthDuration/v2_depth_duration_MTurk/v2_DepthDuration_HTML.html#143,143,1366,625,1366,768,8-22-2022,8-6-20,48,depth_duration_stimuli/002663_2014-06-13_15-50-26_094959634447_rgbf000075-resize_1/002663_2014-06-13_15-50-26_094959634447_rgbf000075-resize_1-target.png,1000,4.7495,6,3976,1009,feet,jsons/v1_VE1000_randls_23.json,790293,1038286,59,Man
48,987259,DepthScenes,duration_manipulation_targetAtFixation,jsons/v1_VE1000_randls_23.json,http://54.235.29.9/FacialAge/BNav_EC2/DepthDuration/v2_depth_duration_MTurk/v2_DepthDuration_HTML.html#143,143,1366,625,1366,768,8-22-2022,8-6-20,49,depth_duration_stimuli/000409_2014-06-04_19-23-33_260595134347_rgbf000067-resize_0/000409_2014-06-04_19-23-33_260595134347_rgbf000067-resize_0-target.png,1000,3.7335,5,3585,999,feet,jsons/v1_VE1000_randls_23.json,790293,1038286,59,Man
49,987259,DepthScenes,duration_manipulation_targetAtFixation,jsons/v1_VE1000_randls_23.json,http://54.235.29.9/FacialAge/BNav_EC2/DepthDuration/v2_depth_duration_MTurk/v2_DepthDuration_HTML.html#143,143,1366,625,1366,768,8-22-2022,8-6-20,50,depth_duration_stimuli/001417_2014-06-19_16-25-36_260595134347_rgbf000115-resize_5/001417_2014-06-19_16-25-36_260595134347_rgbf000115-resize_5-target.png,1000,4.6255,6,5188,984,feet,jsons/v1_VE1000_randls_23.json,790293,1038286,59,Man
50,987259,DepthScenes,duration_manipulation_targetAtFixation,jsons/v1_VE1000_randls_23.json,http://54.235.29.9/FacialAge/BNav_EC2/DepthDuration/v2_depth_duration_MTurk/v2_DepthDuration_HTML.html#143,143,1366,625,1366,768,8-22-2022,8-6-20,51,depth_duration_stimuli/003081_2014-06-15_15-19-16_094959634447_rgbf000150-resize_1/003081_2014-06-15_15-19-16_094959634447_rgbf000150-resize_1-target.png,1000,3.9125,5,3333,994,feet,jsons/v1_VE1000_randls_23.json,790293,1038286,59,Man
51,987259,DepthScenes,duration_manipulation_targetAtFixation,jsons/v1_VE1000_randls_23.json,http://54.235.29.9/FacialAge/BNav_EC2/DepthDuration/v2_depth_duration_MTurk/v2_DepthDuration_HTML.html#143,143,1366,625,1366,768,8-22-2022,8-6-20,52,depth_duration_stimuli/002057_2014-06-24_21-00-13_260595134347_rgbf000120-resize_1/002057_2014-06-24_21-00-13_260595134347_rgbf000120-resize_1-target.png,1000,2.967,6,3191,994,feet,jsons/v1_VE1000_randls_23.json,790293,1038286,59,Man
52,987259,DepthScenes,duration_manipulation_targetAtFixation,jsons/v1_VE1000_randls_23.json,http://54.235.29.9/FacialAge/BNav_EC2/DepthDuration/v2_depth_duration_MTurk/v2_DepthDuration_HTML.html#143,143,1366,625,1366,768,8-22-2022,8-6-20,53,depth_duration_stimuli/000709_2014-06-08_13-51-55_260595134347_rgbf000068-resize_3/000709_2014-06-08_13-51-55_260595134347_rgbf000068-resize_3-target.png,1000,1.8030000000000002,5,3202,1004,feet,jsons/v1_VE1000_randls_23.json,790293,1038286,59,Man
53,987259,DepthScenes,duration_manipulation_targetAtFixation,jsons/v1_VE1000_randls_23.json,http://54.235.29.9/FacialAge/BNav_EC2/DepthDuration/v2_depth_duration_MTurk/v2_DepthDuration_HTML.html#143,143,1366,625,1366,768,8-22-2022,8-6-20,54,depth_duration_stimuli/000788_2014-06-08_22-34-36_260595134347_rgbf000131-resize_1/000788_2014-06-08_22-34-36_260595134347_rgbf000131-resize_1-target.png,1000,3.359,5,3508,984,feet,jsons/v1_VE1000_randls_23.json,790293,1038286,59,Man
54,987259,DepthScenes,duration_manipulation_targetAtFixation,jsons/v1_VE1000_randls_23.json,http://54.235.29.9/FacialAge/BNav_EC2/DepthDuration/v2_depth_duration_MTurk/v2_DepthDuration_HTML.html#143,143,1366,625,1366,768,8-22-2022,8-6-20,55,depth_duration_stimuli/001235_2014-06-17_16-37-36_260595134347_rgbf000084-resize_4/001235_2014-06-17_16-37-36_260595134347_rgbf000084-resize_4-target.png,1000,3.6605,4,3779,998,feet,jsons/v1_VE1000_randls_23.json,790293,1038286,59,Man
55,987259,DepthScenes,duration_manipulation_targetAtFixation,jsons/v1_VE1000_randls_23.json,http://54.235.29.9/FacialAge/BNav_EC2/DepthDuration/v2_depth_duration_MTurk/v2_DepthDuration_HTML.html#143,143,1366,625,1366,768,8-22-2022,8-6-20,56,depth_duration_stimuli/000736_2014-06-08_18-24-15_260595134347_rgbf000206-resize_3/000736_2014-06-08_18-24-15_260595134347_rgbf000206-resize_3-target.png,1000,3.515,2,3447,990,feet,jsons/v1_VE1000_randls_23.json,790293,1038286,59,Man
56,987259,DepthScenes,duration_manipulation_targetAtFixation,jsons/v1_VE1000_randls_23.json,http://54.235.29.9/FacialAge/BNav_EC2/DepthDuration/v2_depth_duration_MTurk/v2_DepthDuration_HTML.html#143,143,1366,625,1366,768,8-22-2022,8-6-20,57,depth_duration_stimuli/000137_2014-05-20_17-04-49_260595134347_rgbf000120-resize_1/000137_2014-05-20_17-04-49_260595134347_rgbf000120-resize_1-target.png,1000,3.786,6,3831,996,feet,jsons/v1_VE1000_randls_23.json,790293,1038286,59,Man
57,987259,DepthScenes,duration_manipulation_targetAtFixation,jsons/v1_VE1000_randls_23.json,http://54.235.29.9/FacialAge/BNav_EC2/DepthDuration/v2_depth_duration_MTurk/v2_DepthDuration_HTML.html#143,143,1366,625,1366,768,8-22-2022,8-6-20,58,depth_duration_stimuli/000009_2014-05-26_14-32-05_260595134347_rgbf000034-resize_3/000009_2014-05-26_14-32-05_260595134347_rgbf000034-resize_3-target.png,1000,3.8715,5,3601,1002,feet,jsons/v1_VE1000_randls_23.json,790293,1038286,59,Man
58,987259,DepthScenes,duration_manipulation_targetAtFixation,jsons/v1_VE1000_randls_23.json,http://54.235.29.9/FacialAge/BNav_EC2/DepthDuration/v2_depth_duration_MTurk/v2_DepthDuration_HTML.html#143,143,1366,625,1366,768,8-22-2022,8-6-20,59,depth_duration_stimuli/001828_2014-06-26_21-40-03_260595134347_rgbf000024-resize_0/001828_2014-06-26_21-40-03_260595134347_rgbf000024-resize_0-target.png,1000,4.8260000000000005,5,3656,991,feet,jsons/v1_VE1000_randls_23.json,790293,1038286,59,Man
59,987259,DepthScenes,duration_manipulation_targetAtFixation,jsons/v1_VE1000_randls_23.json,http://54.235.29.9/FacialAge/BNav_EC2/DepthDuration/v2_depth_duration_MTurk/v2_DepthDuration_HTML.html#143,143,1366,625,1366,768,8-22-2022,8-6-20,60,depth_duration_stimuli/002630_2014-06-24_14-47-50_094959634447_rgbf000055-resize_1/002630_2014-06-24_14-47-50_094959634447_rgbf000055-resize_1-target.png,1000,3.0095,4,4111,1029,feet,jsons/v1_VE1000_randls_23.json,790293,1038286,59,Man
60,987259,DepthScenes,duration_manipulation_targetAtFixation,jsons/v1_VE1000_randls_23.json,http://54.235.29.9/FacialAge/BNav_EC2/DepthDuration/v2_depth_duration_MTurk/v2_DepthDuration_HTML.html#143,143,1366,625,1366,768,8-22-2022,8-6-20,61,depth_duration_stimuli/002758_2014-06-22_19-11-20_094959634447_rgbf000128-resize_1/002758_2014-06-22_19-11-20_094959634447_rgbf000128-resize_1-target.png,1000,2.555,3,4169,981,feet,jsons/v1_VE1000_randls_23.json,790293,1038286,59,Man
61,987259,DepthScenes,duration_manipulation_targetAtFixation,jsons/v1_VE1000_randls_23.json,http://54.235.29.9/FacialAge/BNav_EC2/DepthDuration/v2_depth_duration_MTurk/v2_DepthDuration_HTML.html#143,143,1366,625,1366,768,8-22-2022,8-6-20,62,depth_duration_stimuli/001167_2014-06-17_15-38-07_260595134347_rgbf000108-resize_0/001167_2014-06-17_15-38-07_260595134347_rgbf000108-resize_0-target.png,1000,1.8505,2,9392,986,feet,jsons/v1_VE1000_randls_23.json,790293,1038286,59,Man
62,987259,DepthScenes,duration_manipulation_targetAtFixation,jsons/v1_VE1000_randls_23.json,http://54.235.29.9/FacialAge/BNav_EC2/DepthDuration/v2_depth_duration_MTurk/v2_DepthDuration_HTML.html#143,143,1366,625,1366,768,8-22-2022,8-6-20,63,depth_duration_stimuli/003587_2014-05-23_16-48-02_094959634447_rgbf002384-resize_2/003587_2014-05-23_16-48-02_094959634447_rgbf002384-resize_2-target.png,1000,1.357,4,4601,1000,feet,jsons/v1_VE1000_randls_23.json,790293,1038286,59,Man
63,987259,DepthScenes,duration_manipulation_targetAtFixation,jsons/v1_VE1000_randls_23.json,http://54.235.29.9/FacialAge/BNav_EC2/DepthDuration/v2_depth_duration_MTurk/v2_DepthDuration_HTML.html#143,143,1366,625,1366,768,8-22-2022,8-6-20,64,depth_duration_stimuli/000506_2014-06-08_23-21-00_260595134347_rgbf000070-resize_7/000506_2014-06-08_23-21-00_260595134347_rgbf000070-resize_7-target.png,1000,4.0585,6,4426,994,feet,jsons/v1_VE1000_randls_23.json,790293,1038286,59,Man
64,987259,DepthScenes,duration_manipulation_targetAtFixation,jsons/v1_VE1000_randls_23.json,http://54.235.29.9/FacialAge/BNav_EC2/DepthDuration/v2_depth_duration_MTurk/v2_DepthDuration_HTML.html#143,143,1366,625,1366,768,8-22-2022,8-6-20,65,depth_duration_stimuli/003079_2014-06-15_15-18-20_094959634447_rgbf000152-resize_8/003079_2014-06-15_15-18-20_094959634447_rgbf000152-resize_8-target.png,1000,2.8775,5,3624,979,feet,jsons/v1_VE1000_randls_23.json,790293,1038286,59,Man
65,987259,DepthScenes,duration_manipulation_targetAtFixation,jsons/v1_VE1000_randls_23.json,http://54.235.29.9/FacialAge/BNav_EC2/DepthDuration/v2_depth_duration_MTurk/v2_DepthDuration_HTML.html#143,143,1366,625,1366,768,8-22-2022,8-6-20,66,depth_duration_stimuli/001222_2014-06-17_16-24-06_260595134347_rgbf000073-resize_0/001222_2014-06-17_16-24-06_260595134347_rgbf000073-resize-original.jpg,1000,1.4385,0,3464,1011,feet,jsons/v1_VE1000_randls_23.json,790293,1038286,59,Man
66,987259,DepthScenes,duration_manipulation_targetAtFixation,jsons/v1_VE1000_randls_23.json,http://54.235.29.9/FacialAge/BNav_EC2/DepthDuration/v2_depth_duration_MTurk/v2_DepthDuration_HTML.html#143,143,1366,625,1366,768,8-22-2022,8-6-20,67,depth_duration_stimuli/003292_2014-05-14_21-53-49_094959634447_rgbf000100-resize_2/003292_2014-05-14_21-53-49_094959634447_rgbf000100-resize_2-target.png,1000,3.4815,4,3826,998,feet,jsons/v1_VE1000_randls_23.json,790293,1038286,59,Man
67,987259,DepthScenes,duration_manipulation_targetAtFixation,jsons/v1_VE1000_randls_23.json,http://54.235.29.9/FacialAge/BNav_EC2/DepthDuration/v2_depth_duration_MTurk/v2_DepthDuration_HTML.html#143,143,1366,625,1366,768,8-22-2022,8-6-20,68,depth_duration_stimuli/002639_2014-06-24_14-51-37_094959634447_rgbf000074-resize_4/002639_2014-06-24_14-51-37_094959634447_rgbf000074-resize_4-target.png,1000,4.0375,5,4212,988,feet,jsons/v1_VE1000_randls_23.json,790293,1038286,59,Man
68,987259,DepthScenes,duration_manipulation_targetAtFixation,jsons/v1_VE1000_randls_23.json,http://54.235.29.9/FacialAge/BNav_EC2/DepthDuration/v2_depth_duration_MTurk/v2_DepthDuration_HTML.html#143,143,1366,625,1366,768,8-22-2022,8-6-20,69,depth_duration_stimuli/000470_2014-06-09_19-42-40_260595134347_rgbf000094-resize_1/000470_2014-06-09_19-42-40_260595134347_rgbf000094-resize_1-target.png,1000,1.831,4,4183,999,feet,jsons/v1_VE1000_randls_23.json,790293,1038286,59,Man
69,987259,DepthScenes,duration_manipulation_targetAtFixation,jsons/v1_VE1000_randls_23.json,http://54.235.29.9/FacialAge/BNav_EC2/DepthDuration/v2_depth_duration_MTurk/v2_DepthDuration_HTML.html#143,143,1366,625,1366,768,8-22-2022,8-6-20,70,depth_duration_stimuli/000109_2014-05-14_23-41-52_260595134347_rgbf000035-resize_9/000109_2014-05-14_23-41-52_260595134347_rgbf000035-resize_9-target.png,1000,1.3545,2,4925,996,feet,jsons/v1_VE1000_randls_23.json,790293,1038286,59,Man
70,987259,DepthScenes,duration_manipulation_targetAtFixation,jsons/v1_VE1000_randls_23.json,http://54.235.29.9/FacialAge/BNav_EC2/DepthDuration/v2_depth_duration_MTurk/v2_DepthDuration_HTML.html#143,143,1366,625,1366,768,8-22-2022,8-6-20,71,depth_duration_stimuli/002964_2014-06-08_17-46-11_094959634447_rgbf000091-resize_4/002964_2014-06-08_17-46-11_094959634447_rgbf000091-resize_4-target.png,1000,1.6909999999999998,2,3121,1001,feet,jsons/v1_VE1000_randls_23.json,790293,1038286,59,Man
71,987259,DepthScenes,duration_manipulation_targetAtFixation,jsons/v1_VE1000_randls_23.json,http://54.235.29.9/FacialAge/BNav_EC2/DepthDuration/v2_depth_duration_MTurk/v2_DepthDuration_HTML.html#143,143,1366,625,1366,768,8-22-2022,8-6-20,72,depth_duration_stimuli/002136_2014-06-25_21-18-03_260595134347_rgbf000109-resize_3/002136_2014-06-25_21-18-03_260595134347_rgbf000109-resize_3-target.png,1000,1.9569999999999999,2,3500,1001,feet,jsons/v1_VE1000_randls_23.json,790293,1038286,59,Man
72,987259,DepthScenes,duration_manipulation_targetAtFixation,jsons/v1_VE1000_randls_23.json,http://54.235.29.9/FacialAge/BNav_EC2/DepthDuration/v2_depth_duration_MTurk/v2_DepthDuration_HTML.html#143,143,1366,625,1366,768,8-22-2022,8-6-20,73,depth_duration_stimuli/000739_2014-06-08_18-45-58_260595134347_rgbf000068-resize_1/000739_2014-06-08_18-45-58_260595134347_rgbf000068-resize_1-target.png,1000,3.534,3,3635,1000,feet,jsons/v1_VE1000_randls_23.json,790293,1038286,59,Man
73,987259,DepthScenes,duration_manipulation_targetAtFixation,jsons/v1_VE1000_randls_23.json,http://54.235.29.9/FacialAge/BNav_EC2/DepthDuration/v2_depth_duration_MTurk/v2_DepthDuration_HTML.html#143,143,1366,625,1366,768,8-22-2022,8-6-20,74,depth_duration_stimuli/000734_2014-06-08_17-39-11_260595134347_rgbf000128-resize_2/000734_2014-06-08_17-39-11_260595134347_rgbf000128-resize_2-target.png,1000,4.098,3,6593,993,feet,jsons/v1_VE1000_randls_23.json,790293,1038286,59,Man
74,987259,DepthScenes,duration_manipulation_targetAtFixation,jsons/v1_VE1000_randls_23.json,http://54.235.29.9/FacialAge/BNav_EC2/DepthDuration/v2_depth_duration_MTurk/v2_DepthDuration_HTML.html#143,143,1366,625,1366,768,8-22-2022,8-6-20,75,depth_duration_stimuli/000906_2014-06-08_13-35-43_260595134347_rgbf000155-resize_1/000906_2014-06-08_13-35-43_260595134347_rgbf000155-resize_1-target.png,1000,2.8489999999999998,6,3533,1017,feet,jsons/v1_VE1000_randls_23.json,790293,1038286,59,Man
75,987259,DepthScenes,duration_manipulation_targetAtFixation,jsons/v1_VE1000_randls_23.json,http://54.235.29.9/FacialAge/BNav_EC2/DepthDuration/v2_depth_duration_MTurk/v2_DepthDuration_HTML.html#143,143,1366,625,1366,768,8-22-2022,8-6-20,76,depth_duration_stimuli/002805_2014-06-22_19-54-03_094959634447_rgbf000079-resize_1/002805_2014-06-22_19-54-03_094959634447_rgbf000079-resize_1-target.png,1000,3.1439999999999997,5,3674,986,feet,jsons/v1_VE1000_randls_23.json,790293,1038286,59,Man
76,987259,DepthScenes,duration_manipulation_targetAtFixation,jsons/v1_VE1000_randls_23.json,http://54.235.29.9/FacialAge/BNav_EC2/DepthDuration/v2_depth_duration_MTurk/v2_DepthDuration_HTML.html#143,143,1366,625,1366,768,8-22-2022,8-6-20,77,depth_duration_stimuli/001244_2014-06-17_16-47-45_260595134347_rgbf000030-resize_4/001244_2014-06-17_16-47-45_260595134347_rgbf000030-resize_4-target.png,1000,2.0425,3,5559,998,feet,jsons/v1_VE1000_randls_23.json,790293,1038286,59,Man
77,987259,DepthScenes,duration_manipulation_targetAtFixation,jsons/v1_VE1000_randls_23.json,http://54.235.29.9/FacialAge/BNav_EC2/DepthDuration/v2_depth_duration_MTurk/v2_DepthDuration_HTML.html#143,143,1366,625,1366,768,8-22-2022,8-6-20,78,depth_duration_stimuli/003495_2014-05-21_16-01-51_094959634447_rgbf000100-resize_3/003495_2014-05-21_16-01-51_094959634447_rgbf000100-resize_3-target.png,1000,1.6255,1,4242,1000,feet,jsons/v1_VE1000_randls_23.json,790293,1038286,59,Man
78,987259,DepthScenes,duration_manipulation_targetAtFixation,jsons/v1_VE1000_randls_23.json,http://54.235.29.9/FacialAge/BNav_EC2/DepthDuration/v2_depth_duration_MTurk/v2_DepthDuration_HTML.html#143,143,1366,625,1366,768,8-22-2022,8-6-20,79,depth_duration_stimuli/001806_2014-06-26_20-50-20_260595134347_rgbf000091-resize_1/001806_2014-06-26_20-50-20_260595134347_rgbf000091-resize_1-target.png,1000,2.7305,2,3461,985,feet,jsons/v1_VE1000_randls_23.json,790293,1038286,59,Man
79,987259,DepthScenes,duration_manipulation_targetAtFixation,jsons/v1_VE1000_randls_23.json,http://54.235.29.9/FacialAge/BNav_EC2/DepthDuration/v2_depth_duration_MTurk/v2_DepthDuration_HTML.html#143,143,1366,625,1366,768,8-22-2022,8-6-20,80,depth_duration_stimuli/001617_2014-06-20_11-35-32_260595134347_rgbf000066-resize_1/001617_2014-06-20_11-35-32_260595134347_rgbf000066-resize_1-target.png,1000,3.7910000000000004,4,3642,994,feet,jsons/v1_VE1000_randls_23.json,790293,1038286,59,Man
80,987259,DepthScenes,duration_manipulation_targetAtFixation,jsons/v1_VE1000_randls_23.json,http://54.235.29.9/FacialAge/BNav_EC2/DepthDuration/v2_depth_duration_MTurk/v2_DepthDuration_HTML.html#143,143,1366,625,1366,768,8-22-2022,8-6-20,81,depth_duration_stimuli/000878_2014-06-08_22-52-45_260595134347_rgbf000045-resize_2/000878_2014-06-08_22-52-45_260595134347_rgbf000045-resize_2-target.png,1000,2.092,6,3635,987,feet,jsons/v1_VE1000_randls_23.json,790293,1038286,59,Man
81,987259,DepthScenes,duration_manipulation_targetAtFixation,jsons/v1_VE1000_randls_23.json,http://54.235.29.9/FacialAge/BNav_EC2/DepthDuration/v2_depth_duration_MTurk/v2_DepthDuration_HTML.html#143,143,1366,625,1366,768,8-22-2022,8-6-20,82,depth_duration_stimuli/002953_2014-06-08_17-32-18_094959634447_rgbf000059-resize_5/002953_2014-06-08_17-32-18_094959634447_rgbf000059-resize_5-target.png,1000,1.551,2,3956,1013,feet,jsons/v1_VE1000_randls_23.json,790293,1038286,59,Man
82,987259,DepthScenes,duration_manipulation_targetAtFixation,jsons/v1_VE1000_randls_23.json,http://54.235.29.9/FacialAge/BNav_EC2/DepthDuration/v2_depth_duration_MTurk/v2_DepthDuration_HTML.html#143,143,1366,625,1366,768,8-22-2022,8-6-20,83,depth_duration_stimuli/000773_2014-06-08_22-24-54_260595134347_rgbf000093-resize_1/000773_2014-06-08_22-24-54_260595134347_rgbf000093-resize_1-target.png,1000,4.973,3,4701,993,feet,jsons/v1_VE1000_randls_23.json,790293,1038286,59,Man
83,987259,DepthScenes,duration_manipulation_targetAtFixation,jsons/v1_VE1000_randls_23.json,http://54.235.29.9/FacialAge/BNav_EC2/DepthDuration/v2_depth_duration_MTurk/v2_DepthDuration_HTML.html#143,143,1366,625,1366,768,8-22-2022,8-6-20,84,depth_duration_stimuli/002414_2014-06-28_20-24-58_260595134347_rgbf000067-resize_4/002414_2014-06-28_20-24-58_260595134347_rgbf000067-resize_4-target.png,1000,4.363,4,3644,989,feet,jsons/v1_VE1000_randls_23.json,790293,1038286,59,Man
84,987259,DepthScenes,duration_manipulation_targetAtFixation,jsons/v1_VE1000_randls_23.json,http://54.235.29.9/FacialAge/BNav_EC2/DepthDuration/v2_depth_duration_MTurk/v2_DepthDuration_HTML.html#143,143,1366,625,1366,768,8-22-2022,8-6-20,85,depth_duration_stimuli/002039_2014-06-24_20-22-38_260595134347_rgbf000084-resize_1/002039_2014-06-24_20-22-38_260595134347_rgbf000084-resize_1-target.png,1000,4.408,2,4068,1123,feet,jsons/v1_VE1000_randls_23.json,790293,1038286,59,Man
85,987259,DepthScenes,duration_manipulation_targetAtFixation,jsons/v1_VE1000_randls_23.json,http://54.235.29.9/FacialAge/BNav_EC2/DepthDuration/v2_depth_duration_MTurk/v2_DepthDuration_HTML.html#143,143,1366,625,1366,768,8-22-2022,8-6-20,86,depth_duration_stimuli/002103_2014-06-25_20-00-40_260595134347_rgbf000049-resize_0/002103_2014-06-25_20-00-40_260595134347_rgbf000049-resize_0-target.png,1000,4.105,3,3683,999,feet,jsons/v1_VE1000_randls_23.json,790293,1038286,59,Man
86,987259,DepthScenes,duration_manipulation_targetAtFixation,jsons/v1_VE1000_randls_23.json,http://54.235.29.9/FacialAge/BNav_EC2/DepthDuration/v2_depth_duration_MTurk/v2_DepthDuration_HTML.html#143,143,1366,625,1366,768,8-22-2022,8-6-20,87,depth_duration_stimuli/002509_2014-06-24_13-19-22_094959634447_rgbf000077-resize_0/002509_2014-06-24_13-19-22_094959634447_rgbf000077-resize_0-target.png,1000,1.3065,2,3626,995,feet,jsons/v1_VE1000_randls_23.json,790293,1038286,59,Man
87,987259,DepthScenes,duration_manipulation_targetAtFixation,jsons/v1_VE1000_randls_23.json,http://54.235.29.9/FacialAge/BNav_EC2/DepthDuration/v2_depth_duration_MTurk/v2_DepthDuration_HTML.html#143,143,1366,625,1366,768,8-22-2022,8-6-20,88,depth_duration_stimuli/003338_2014-05-20_11-01-23_094959634447_rgbf000051-resize_6/003338_2014-05-20_11-01-23_094959634447_rgbf000051-resize_6-target.png,1000,1.693,3,4461,936,feet,jsons/v1_VE1000_randls_23.json,790293,1038286,59,Man
88,987259,DepthScenes,duration_manipulation_targetAtFixation,jsons/v1_VE1000_randls_23.json,http://54.235.29.9/FacialAge/BNav_EC2/DepthDuration/v2_depth_duration_MTurk/v2_DepthDuration_HTML.html#143,143,1366,625,1366,768,8-22-2022,8-6-20,89,depth_duration_stimuli/002725_2014-06-22_11-47-51_094959634447_rgbf000070-resize_1/002725_2014-06-22_11-47-51_094959634447_rgbf000070-resize_1-target.png,1000,2.195,3,3647,996,feet,jsons/v1_VE1000_randls_23.json,790293,1038286,59,Man
89,987259,DepthScenes,duration_manipulation_targetAtFixation,jsons/v1_VE1000_randls_23.json,http://54.235.29.9/FacialAge/BNav_EC2/DepthDuration/v2_depth_duration_MTurk/v2_DepthDuration_HTML.html#143,143,1366,625,1366,768,8-22-2022,8-6-20,90,depth_duration_stimuli/002344_2014-06-28_20-06-29_260595134347_rgbf000030-resize_1/002344_2014-06-28_20-06-29_260595134347_rgbf000030-resize_1-target.png,1000,1.5795,2,4455,992,feet,jsons/v1_VE1000_randls_23.json,790293,1038286,59,Man
90,987259,DepthScenes,duration_manipulation_targetAtFixation,jsons/v1_VE1000_randls_23.json,http://54.235.29.9/FacialAge/BNav_EC2/DepthDuration/v2_depth_duration_MTurk/v2_DepthDuration_HTML.html#143,143,1366,625,1366,768,8-22-2022,8-6-20,91,depth_duration_stimuli/002445_2014-06-28_20-32-16_260595134347_rgbf000029-resize_4/002445_2014-06-28_20-32-16_260595134347_rgbf000029-resize_4-target.png,1000,2.5315,3,3699,990,feet,jsons/v1_VE1000_randls_23.json,790293,1038286,59,Man
91,987259,DepthScenes,duration_manipulation_targetAtFixation,jsons/v1_VE1000_randls_23.json,http://54.235.29.9/FacialAge/BNav_EC2/DepthDuration/v2_depth_duration_MTurk/v2_DepthDuration_HTML.html#143,143,1366,625,1366,768,8-22-2022,8-6-20,92,depth_duration_stimuli/000780_2014-06-08_22-28-29_260595134347_rgbf000126-resize_1/000780_2014-06-08_22-28-29_260595134347_rgbf000126-resize_1-target.png,1000,3.3825,3,3506,1011,feet,jsons/v1_VE1000_randls_23.json,790293,1038286,59,Man
92,987259,DepthScenes,duration_manipulation_targetAtFixation,jsons/v1_VE1000_randls_23.json,http://54.235.29.9/FacialAge/BNav_EC2/DepthDuration/v2_depth_duration_MTurk/v2_DepthDuration_HTML.html#143,143,1366,625,1366,768,8-22-2022,8-6-20,93,depth_duration_stimuli/001158_2014-06-17_15-32-16_260595134347_rgbf000138-resize_2/001158_2014-06-17_15-32-16_260595134347_rgbf000138-resize_2-target.png,1000,4.5315,3,9578,960,feet,jsons/v1_VE1000_randls_23.json,790293,1038286,59,Man
93,987259,DepthScenes,duration_manipulation_targetAtFixation,jsons/v1_VE1000_randls_23.json,http://54.235.29.9/FacialAge/BNav_EC2/DepthDuration/v2_depth_duration_MTurk/v2_DepthDuration_HTML.html#143,143,1366,625,1366,768,8-22-2022,8-6-20,94,depth_duration_stimuli/000556_2014-06-09_22-42-56_260595134347_rgbf000214-resize_1/000556_2014-06-09_22-42-56_260595134347_rgbf000214-resize_1-target.png,1000,4.8415,4,4493,998,feet,jsons/v1_VE1000_randls_23.json,790293,1038286,59,Man
94,987259,DepthScenes,duration_manipulation_targetAtFixation,jsons/v1_VE1000_randls_23.json,http://54.235.29.9/FacialAge/BNav_EC2/DepthDuration/v2_depth_duration_MTurk/v2_DepthDuration_HTML.html#143,143,1366,625,1366,768,8-22-2022,8-6-20,95,depth_duration_stimuli/002375_2014-06-28_20-13-44_260595134347_rgbf000032-resize_1/002375_2014-06-28_20-13-44_260595134347_rgbf000032-resize_1-target.png,1000,4.0175,6,10138,984,feet,jsons/v1_VE1000_randls_23.json,790293,1038286,59,Man
95,987259,DepthScenes,duration_manipulation_targetAtFixation,jsons/v1_VE1000_randls_23.json,http://54.235.29.9/FacialAge/BNav_EC2/DepthDuration/v2_depth_duration_MTurk/v2_DepthDuration_HTML.html#143,143,1366,625,1366,768,8-22-2022,8-6-20,96,depth_duration_stimuli/002657_2014-06-13_15-29-54_094959634447_rgbf000150-resize_1/002657_2014-06-13_15-29-54_094959634447_rgbf000150-resize_1-target.png,1000,4.919,6,9808,989,feet,jsons/v1_VE1000_randls_23.json,790293,1038286,59,Man
96,987259,DepthScenes,duration_manipulation_targetAtFixation,jsons/v1_VE1000_randls_23.json,http://54.235.29.9/FacialAge/BNav_EC2/DepthDuration/v2_depth_duration_MTurk/v2_DepthDuration_HTML.html#143,143,1366,625,1366,768,8-22-2022,8-6-20,97,depth_duration_stimuli/000493_2014-06-09_21-01-18_260595134347_rgbf000196-resize_3/000493_2014-06-09_21-01-18_260595134347_rgbf000196-resize_3-target.png,1000,3.44,5,17738,1001,feet,jsons/v1_VE1000_randls_23.json,790293,1038286,59,Man
97,987259,DepthScenes,duration_manipulation_targetAtFixation,jsons/v1_VE1000_randls_23.json,http://54.235.29.9/FacialAge/BNav_EC2/DepthDuration/v2_depth_duration_MTurk/v2_DepthDuration_HTML.html#143,143,1366,625,1366,768,8-22-2022,8-6-20,98,depth_duration_stimuli/000191_2014-05-12_17-07-38_260595134347_rgbf000199-resize_0/000191_2014-05-12_17-07-38_260595134347_rgbf000199-resize_0-target.png,1000,3.7995,5,5598,1000,feet,jsons/v1_VE1000_randls_23.json,790293,1038286,59,Man
98,987259,DepthScenes,duration_manipulation_targetAtFixation,jsons/v1_VE1000_randls_23.json,http://54.235.29.9/FacialAge/BNav_EC2/DepthDuration/v2_depth_duration_MTurk/v2_DepthDuration_HTML.html#143,143,1366,625,1366,768,8-22-2022,8-6-20,99,depth_duration_stimuli/001540_2014-06-20_17-01-05_260595134347_rgbf000086-resize_2/001540_2014-06-20_17-01-05_260595134347_rgbf000086-resize-original.jpg,1000,1.459,0,3124,1004,feet,jsons/v1_VE1000_randls_23.json,790293,1038286,59,Man
99,987259,DepthScenes,duration_manipulation_targetAtFixation,jsons/v1_VE1000_randls_23.json,http://54.235.29.9/FacialAge/BNav_EC2/DepthDuration/v2_depth_duration_MTurk/v2_DepthDuration_HTML.html#143,143,1366,625,1366,768,8-22-2022,8-6-20,100,depth_duration_stimuli/001175_2014-06-17_15-45-55_260595134347_rgbf000129-resize_4/001175_2014-06-17_15-45-55_260595134347_rgbf000129-resize_4-target.png,1000,4.255,3,3547,990,feet,jsons/v1_VE1000_randls_23.json,790293,1038286,59,Man
100,987259,DepthScenes,duration_manipulation_targetAtFixation,jsons/v1_VE1000_randls_23.json,http://54.235.29.9/FacialAge/BNav_EC2/DepthDuration/v2_depth_duration_MTurk/v2_DepthDuration_HTML.html#143,143,1366,625,1366,768,8-22-2022,8-6-20,101,depth_duration_stimuli/003490_2014-05-21_15-50-11_094959634447_rgbf000101-resize_3/003490_2014-05-21_15-50-11_094959634447_rgbf000101-resize_3-target.png,1000,3.6445,6,5382,994,feet,jsons/v1_VE1000_randls_23.json,790293,1038286,59,Man
101,987259,DepthScenes,duration_manipulation_targetAtFixation,jsons/v1_VE1000_randls_23.json,http://54.235.29.9/FacialAge/BNav_EC2/DepthDuration/v2_depth_duration_MTurk/v2_DepthDuration_HTML.html#143,143,1366,625,1366,768,8-22-2022,8-6-20,102,depth_duration_stimuli/000469_2014-06-09_19-42-10_260595134347_rgbf000081-resize_1/000469_2014-06-09_19-42-10_260595134347_rgbf000081-resize_1-target.png,1000,1.652,4,7545,985,feet,jsons/v1_VE1000_randls_23.json,790293,1038286,59,Man
102,987259,DepthScenes,duration_manipulation_targetAtFixation,jsons/v1_VE1000_randls_23.json,http://54.235.29.9/FacialAge/BNav_EC2/DepthDuration/v2_depth_duration_MTurk/v2_DepthDuration_HTML.html#143,143,1366,625,1366,768,8-22-2022,8-6-20,103,depth_duration_stimuli/000483_2014-06-09_20-41-45_260595134347_rgbf000116-resize_4/000483_2014-06-09_20-41-45_260595134347_rgbf000116-resize_4-target.png,1000,1.337,2,4007,995,feet,jsons/v1_VE1000_randls_23.json,790293,1038286,59,Man
103,987259,DepthScenes,duration_manipulation_targetAtFixation,jsons/v1_VE1000_randls_23.json,http://54.235.29.9/FacialAge/BNav_EC2/DepthDuration/v2_depth_duration_MTurk/v2_DepthDuration_HTML.html#143,143,1366,625,1366,768,8-22-2022,8-6-20,104,depth_duration_stimuli/000447_2014-06-08_16-15-46_260595134347_rgbf000130-resize_1/000447_2014-06-08_16-15-46_260595134347_rgbf000130-resize_1-target.png,1000,4.479,5,19254,987,feet,jsons/v1_VE1000_randls_23.json,790293,1038286,59,Man
104,987259,DepthScenes,duration_manipulation_targetAtFixation,jsons/v1_VE1000_randls_23.json,http://54.235.29.9/FacialAge/BNav_EC2/DepthDuration/v2_depth_duration_MTurk/v2_DepthDuration_HTML.html#143,143,1366,625,1366,768,8-22-2022,8-6-20,105,depth_duration_stimuli/001447_2014-06-19_17-00-32_260595134347_rgbf000082-resize_5/001447_2014-06-19_17-00-32_260595134347_rgbf000082-resize_5-target.png,1000,4.13775,3,5005,1087,feet,jsons/v1_VE1000_randls_23.json,790293,1038286,59,Man
105,987259,DepthScenes,duration_manipulation_targetAtFixation,jsons/v1_VE1000_randls_23.json,http://54.235.29.9/FacialAge/BNav_EC2/DepthDuration/v2_depth_duration_MTurk/v2_DepthDuration_HTML.html#143,143,1366,625,1366,768,8-22-2022,8-6-20,106,depth_duration_stimuli/000929_2014-06-09_16-33-19_260595134347_rgbf000139-resize_0/000929_2014-06-09_16-33-19_260595134347_rgbf000139-resize_0-target.png,1000,2.8680000000000003,2,3738,1005,feet,jsons/v1_VE1000_randls_23.json,790293,1038286,59,Man
106,987259,DepthScenes,duration_manipulation_targetAtFixation,jsons/v1_VE1000_randls_23.json,http://54.235.29.9/FacialAge/BNav_EC2/DepthDuration/v2_depth_duration_MTurk/v2_DepthDuration_HTML.html#143,143,1366,625,1366,768,8-22-2022,8-6-20,107,depth_duration_stimuli/000457_2014-06-08_16-52-43_260595134347_rgbf000199-resize_1/000457_2014-06-08_16-52-43_260595134347_rgbf000199-resize_1-target.png,1000,3.6489999999999996,4,3908,1000,feet,jsons/v1_VE1000_randls_23.json,790293,1038286,59,Man
107,987259,DepthScenes,duration_manipulation_targetAtFixation,jsons/v1_VE1000_randls_23.json,http://54.235.29.9/FacialAge/BNav_EC2/DepthDuration/v2_depth_duration_MTurk/v2_DepthDuration_HTML.html#143,143,1366,625,1366,768,8-22-2022,8-6-20,108,depth_duration_stimuli/001810_2014-06-26_20-51-35_260595134347_rgbf000040-resize_3/001810_2014-06-26_20-51-35_260595134347_rgbf000040-resize_3-target.png,1000,2.2525,2,3607,999,feet,jsons/v1_VE1000_randls_23.json,790293,1038286,59,Man
108,987259,DepthScenes,duration_manipulation_targetAtFixation,jsons/v1_VE1000_randls_23.json,http://54.235.29.9/FacialAge/BNav_EC2/DepthDuration/v2_depth_duration_MTurk/v2_DepthDuration_HTML.html#143,143,1366,625,1366,768,8-22-2022,8-6-20,109,depth_duration_stimuli/003010_2014-06-15_12-54-35_094959634447_rgbf000112-resize_0/003010_2014-06-15_12-54-35_094959634447_rgbf000112-resize_0-target.png,1000,3.1185,5,3645,996,feet,jsons/v1_VE1000_randls_23.json,790293,1038286,59,Man
109,987259,DepthScenes,duration_manipulation_targetAtFixation,jsons/v1_VE1000_randls_23.json,http://54.235.29.9/FacialAge/BNav_EC2/DepthDuration/v2_depth_duration_MTurk/v2_DepthDuration_HTML.html#143,143,1366,625,1366,768,8-22-2022,8-6-20,110,depth_duration_stimuli/002784_2014-06-22_19-26-30_094959634447_rgbf000083-resize_3/002784_2014-06-22_19-26-30_094959634447_rgbf000083-resize_3-target.png,1000,1.8046666666667,4,3935,1005,feet,jsons/v1_VE1000_randls_23.json,790293,1038286,59,Man
110,987259,DepthScenes,duration_manipulation_targetAtFixation,jsons/v1_VE1000_randls_23.json,http://54.235.29.9/FacialAge/BNav_EC2/DepthDuration/v2_depth_duration_MTurk/v2_DepthDuration_HTML.html#143,143,1366,625,1366,768,8-22-2022,8-6-20,111,depth_duration_stimuli/001100_2014-06-15_17-46-26_260595134347_rgbf000225-resize_2/001100_2014-06-15_17-46-26_260595134347_rgbf000225-resize_2-target.png,1000,2.24,3,3724,984,feet,jsons/v1_VE1000_randls_23.json,790293,1038286,59,Man
111,987259,DepthScenes,duration_manipulation_targetAtFixation,jsons/v1_VE1000_randls_23.json,http://54.235.29.9/FacialAge/BNav_EC2/DepthDuration/v2_depth_duration_MTurk/v2_DepthDuration_HTML.html#143,143,1366,625,1366,768,8-22-2022,8-6-20,112,depth_duration_stimuli/000810_2014-06-08_17-20-01_260595134347_rgbf000105-resize_0/000810_2014-06-08_17-20-01_260595134347_rgbf000105-resize_0-target.png,1000,1.4865,2,3666,989,feet,jsons/v1_VE1000_randls_23.json,790293,1038286,59,Man
112,987259,DepthScenes,duration_manipulation_targetAtFixation,jsons/v1_VE1000_randls_23.json,http://54.235.29.9/FacialAge/BNav_EC2/DepthDuration/v2_depth_duration_MTurk/v2_DepthDuration_HTML.html#143,143,1366,625,1366,768,8-22-2022,8-6-20,113,depth_duration_stimuli/001214_2014-06-17_16-13-55_260595134347_rgbf000111-resize_0/001214_2014-06-17_16-13-55_260595134347_rgbf000111-resize_0-target.png,1000,2.6505,2,3415,1002,feet,jsons/v1_VE1000_randls_23.json,790293,1038286,59,Man
113,987259,DepthScenes,duration_manipulation_targetAtFixation,jsons/v1_VE1000_randls_23.json,http://54.235.29.9/FacialAge/BNav_EC2/DepthDuration/v2_depth_duration_MTurk/v2_DepthDuration_HTML.html#143,143,1366,625,1366,768,8-22-2022,8-6-20,114,depth_duration_stimuli/000692_2014-06-08_13-09-42_260595134347_rgbf000199-resize_2/000692_2014-06-08_13-09-42_260595134347_rgbf000199-resize_2-target.png,1000,3.661,5,3876,981,feet,jsons/v1_VE1000_randls_23.json,790293,1038286,59,Man
114,987259,DepthScenes,duration_manipulation_targetAtFixation,jsons/v1_VE1000_randls_23.json,http://54.235.29.9/FacialAge/BNav_EC2/DepthDuration/v2_depth_duration_MTurk/v2_DepthDuration_HTML.html#143,143,1366,625,1366,768,8-22-2022,8-6-20,115,depth_duration_stimuli/001094_2014-06-15_17-36-00_260595134347_rgbf000205-resize_0/001094_2014-06-15_17-36-00_260595134347_rgbf000205-resize_0-target.png,1000,4.2175,3,6078,991,feet,jsons/v1_VE1000_randls_23.json,790293,1038286,59,Man
115,987259,DepthScenes,duration_manipulation_targetAtFixation,jsons/v1_VE1000_randls_23.json,http://54.235.29.9/FacialAge/BNav_EC2/DepthDuration/v2_depth_duration_MTurk/v2_DepthDuration_HTML.html#143,143,1366,625,1366,768,8-22-2022,8-6-20,116,depth_duration_stimuli/001170_2014-06-17_15-43-44_260595134347_rgbf000096-resize_6/001170_2014-06-17_15-43-44_260595134347_rgbf000096-resize-original.jpg,1000,1.1909999999999998,0,4001,990,feet,jsons/v1_VE1000_randls_23.json,790293,1038286,59,Man
116,987259,DepthScenes,duration_manipulation_targetAtFixation,jsons/v1_VE1000_randls_23.json,http://54.235.29.9/FacialAge/BNav_EC2/DepthDuration/v2_depth_duration_MTurk/v2_DepthDuration_HTML.html#143,143,1366,625,1366,768,8-22-2022,8-6-20,117,depth_duration_stimuli/001133_2014-06-17_14-49-16_260595134347_rgbf000100-resize_0/001133_2014-06-17_14-49-16_260595134347_rgbf000100-resize_0-target.png,1000,4.2115,4,3595,1010,feet,jsons/v1_VE1000_randls_23.json,790293,1038286,59,Man
117,987259,DepthScenes,duration_manipulation_targetAtFixation,jsons/v1_VE1000_randls_23.json,http://54.235.29.9/FacialAge/BNav_EC2/DepthDuration/v2_depth_duration_MTurk/v2_DepthDuration_HTML.html#143,143,1366,625,1366,768,8-22-2022,8-6-20,118,depth_duration_stimuli/001132_2014-06-17_14-48-54_260595134347_rgbf000100-resize_2/001132_2014-06-17_14-48-54_260595134347_rgbf000100-resize_2-target.png,1000,3.753,5,3845,988,feet,jsons/v1_VE1000_randls_23.json,790293,1038286,59,Man
118,987259,DepthScenes,duration_manipulation_targetAtFixation,jsons/v1_VE1000_randls_23.json,http://54.235.29.9/FacialAge/BNav_EC2/DepthDuration/v2_depth_duration_MTurk/v2_DepthDuration_HTML.html#143,143,1366,625,1366,768,8-22-2022,8-6-20,119,depth_duration_stimuli/001016_2014-06-09_16-16-10_260595134347_rgbf000112-resize_5/001016_2014-06-09_16-16-10_260595134347_rgbf000112-resize_5-target.png,1000,1.6565,5,3857,985,feet,jsons/v1_VE1000_randls_23.json,790293,1038286,59,Man
119,987259,DepthScenes,duration_manipulation_targetAtFixation,jsons/v1_VE1000_randls_23.json,http://54.235.29.9/FacialAge/BNav_EC2/DepthDuration/v2_depth_duration_MTurk/v2_DepthDuration_HTML.html#143,143,1366,625,1366,768,8-22-2022,8-6-20,120,depth_duration_stimuli/002340_2014-06-28_20-05-46_260595134347_rgbf000113-resize_0/002340_2014-06-28_20-05-46_260595134347_rgbf000113-resize_0-target.png,1000,2.4735,5,3836,1002,feet,jsons/v1_VE1000_randls_23.json,790293,1038286,59,Man
120,987259,DepthScenes,duration_manipulation_targetAtFixation,jsons/v1_VE1000_randls_23.json,http://54.235.29.9/FacialAge/BNav_EC2/DepthDuration/v2_depth_duration_MTurk/v2_DepthDuration_HTML.html#143,143,1366,625,1366,768,8-22-2022,8-6-20,121,depth_duration_stimuli/002279_2014-06-28_18-55-32_260595134347_rgbf000040-resize_5/002279_2014-06-28_18-55-32_260595134347_rgbf000040-resize_5-target.png,1000,1.5043333333333,4,4178,989,feet,jsons/v1_VE1000_randls_23.json,790293,1038286,59,Man
121,987259,DepthScenes,duration_manipulation_targetAtFixation,jsons/v1_VE1000_randls_23.json,http://54.235.29.9/FacialAge/BNav_EC2/DepthDuration/v2_depth_duration_MTurk/v2_DepthDuration_HTML.html#143,143,1366,625,1366,768,8-22-2022,8-6-20,122,depth_duration_stimuli/000635_2014-06-08_16-38-42_260595134347_rgbf000106-resize_1/000635_2014-06-08_16-38-42_260595134347_rgbf000106-resize_1-target.png,1000,2.074,2,3828,1005,feet,jsons/v1_VE1000_randls_23.json,790293,1038286,59,Man
122,987259,DepthScenes,duration_manipulation_targetAtFixation,jsons/v1_VE1000_randls_23.json,http://54.235.29.9/FacialAge/BNav_EC2/DepthDuration/v2_depth_duration_MTurk/v2_DepthDuration_HTML.html#143,143,1366,625,1366,768,8-22-2022,8-6-20,123,depth_duration_stimuli/001059_2014-06-08_21-53-27_260595134347_rgbf000061-resize_4/001059_2014-06-08_21-53-27_260595134347_rgbf000061-resize_4-target.png,1000,2.4185,4,5116,999,feet,jsons/v1_VE1000_randls_23.json,790293,1038286,59,Man
123,987259,DepthScenes,duration_manipulation_targetAtFixation,jsons/v1_VE1000_randls_23.json,http://54.235.29.9/FacialAge/BNav_EC2/DepthDuration/v2_depth_duration_MTurk/v2_DepthDuration_HTML.html#143,143,1366,625,1366,768,8-22-2022,8-6-20,124,depth_duration_stimuli/001032_2014-06-08_13-23-17_260595134347_rgbf000021-resize_3/001032_2014-06-08_13-23-17_260595134347_rgbf000021-resize_3-target.png,1000,3.2725,4,5196,993,feet,jsons/v1_VE1000_randls_23.json,790293,1038286,59,Man
124,987259,DepthScenes,duration_manipulation_targetAtFixation,jsons/v1_VE1000_randls_23.json,http://54.235.29.9/FacialAge/BNav_EC2/DepthDuration/v2_depth_duration_MTurk/v2_DepthDuration_HTML.html#143,143,1366,625,1366,768,8-22-2022,8-6-20,125,depth_duration_stimuli/001066_2014-06-08_22-03-20_260595134347_rgbf000066-resize_4/001066_2014-06-08_22-03-20_260595134347_rgbf000066-resize_4-target.png,1000,4.2330000000000005,2,3562,994,feet,jsons/v1_VE1000_randls_23.json,790293,1038286,59,Man
125,987259,DepthScenes,duration_manipulation_targetAtFixation,jsons/v1_VE1000_randls_23.json,http://54.235.29.9/FacialAge/BNav_EC2/DepthDuration/v2_depth_duration_MTurk/v2_DepthDuration_HTML.html#143,143,1366,625,1366,768,8-22-2022,8-6-20,126,depth_duration_stimuli/000742_2014-06-08_18-48-09_260595134347_rgbf000164-resize_4/000742_2014-06-08_18-48-09_260595134347_rgbf000164-resize_4-target.png,1000,4.632,5,3353,1006,feet,jsons/v1_VE1000_randls_23.json,790293,1038286,59,Man
126,987259,DepthScenes,duration_manipulation_targetAtFixation,jsons/v1_VE1000_randls_23.json,http://54.235.29.9/FacialAge/BNav_EC2/DepthDuration/v2_depth_duration_MTurk/v2_DepthDuration_HTML.html#143,143,1366,625,1366,768,8-22-2022,8-6-20,127,depth_duration_stimuli/000368_2014-06-09_15-53-01_260595134347_rgbf000155-resize_2/000368_2014-06-09_15-53-01_260595134347_rgbf000155-resize_2-target.png,1000,2.4859999999999998,3,3638,984,feet,jsons/v1_VE1000_randls_23.json,790293,1038286,59,Man
127,987259,DepthScenes,duration_manipulation_targetAtFixation,jsons/v1_VE1000_randls_23.json,http://54.235.29.9/FacialAge/BNav_EC2/DepthDuration/v2_depth_duration_MTurk/v2_DepthDuration_HTML.html#143,143,1366,625,1366,768,8-22-2022,8-6-20,128,depth_duration_stimuli/002678_2014-06-13_16-15-32_094959634447_rgbf000151-resize_6/002678_2014-06-13_16-15-32_094959634447_rgbf000151-resize_6-target.png,1000,2.1830000000000003,4,4242,990,feet,jsons/v1_VE1000_randls_23.json,790293,1038286,59,Man
128,987259,DepthScenes,duration_manipulation_targetAtFixation,jsons/v1_VE1000_randls_23.json,http://54.235.29.9/FacialAge/BNav_EC2/DepthDuration/v2_depth_duration_MTurk/v2_DepthDuration_HTML.html#143,143,1366,625,1366,768,8-22-2022,8-6-20,129,depth_duration_stimuli/000758_2014-06-08_22-05-08_260595134347_rgbf000085-resize_0/000758_2014-06-08_22-05-08_260595134347_rgbf000085-resize_0-target.png,1000,3.3810000000000002,4,4011,989,feet,jsons/v1_VE1000_randls_23.json,790293,1038286,59,Man
129,987259,DepthScenes,duration_manipulation_targetAtFixation,jsons/v1_VE1000_randls_23.json,http://54.235.29.9/FacialAge/BNav_EC2/DepthDuration/v2_depth_duration_MTurk/v2_DepthDuration_HTML.html#143,143,1366,625,1366,768,8-22-2022,8-6-20,130,depth_duration_stimuli/000854_2014-06-09_19-43-13_260595134347_rgbf000066-resize_0/000854_2014-06-09_19-43-13_260595134347_rgbf000066-resize_0-target.png,1000,3.068,2,3491,994,feet,jsons/v1_VE1000_randls_23.json,790293,1038286,59,Man
130,987259,DepthScenes,duration_manipulation_targetAtFixation,jsons/v1_VE1000_randls_23.json,http://54.235.29.9/FacialAge/BNav_EC2/DepthDuration/v2_depth_duration_MTurk/v2_DepthDuration_HTML.html#143,143,1366,625,1366,768,8-22-2022,8-6-20,131,depth_duration_stimuli/003492_2014-05-21_15-50-55_094959634447_rgbf000828-resize_1/003492_2014-05-21_15-50-55_094959634447_rgbf000828-resize_1-target.png,1000,4.06875,4,3765,998,feet,jsons/v1_VE1000_randls_23.json,790293,1038286,59,Man
131,987259,DepthScenes,duration_manipulation_targetAtFixation,jsons/v1_VE1000_randls_23.json,http://54.235.29.9/FacialAge/BNav_EC2/DepthDuration/v2_depth_duration_MTurk/v2_DepthDuration_HTML.html#143,143,1366,625,1366,768,8-22-2022,8-6-20,132,depth_duration_stimuli/002568_2014-06-24_13-59-21_094959634447_rgbf000062-resize_4/002568_2014-06-24_13-59-21_094959634447_rgbf000062-resize_4-target.png,1000,3.015,1,4061,1003,feet,jsons/v1_VE1000_randls_23.json,790293,1038286,59,Man
132,987259,DepthScenes,duration_manipulation_targetAtFixation,jsons/v1_VE1000_randls_23.json,http://54.235.29.9/FacialAge/BNav_EC2/DepthDuration/v2_depth_duration_MTurk/v2_DepthDuration_HTML.html#143,143,1366,625,1366,768,8-22-2022,8-6-20,133,depth_duration_stimuli/002788_2014-06-22_19-36-03_094959634447_rgbf000088-resize_2/002788_2014-06-22_19-36-03_094959634447_rgbf000088-resize_2-target.png,1000,1.6465,3,3465,985,feet,jsons/v1_VE1000_randls_23.json,790293,1038286,59,Man
133,987259,DepthScenes,duration_manipulation_targetAtFixation,jsons/v1_VE1000_randls_23.json,http://54.235.29.9/FacialAge/BNav_EC2/DepthDuration/v2_depth_duration_MTurk/v2_DepthDuration_HTML.html#143,143,1366,625,1366,768,8-22-2022,8-6-20,134,depth_duration_stimuli/000749_2014-06-08_21-55-06_260595134347_rgbf000070-resize_2/000749_2014-06-08_21-55-06_260595134347_rgbf000070-resize_2-target.png,1000,2.331,3,3768,942,feet,jsons/v1_VE1000_randls_23.json,790293,1038286,59,Man
134,987259,DepthScenes,duration_manipulation_targetAtFixation,jsons/v1_VE1000_randls_23.json,http://54.235.29.9/FacialAge/BNav_EC2/DepthDuration/v2_depth_duration_MTurk/v2_DepthDuration_HTML.html#143,143,1366,625,1366,768,8-22-2022,8-6-20,135,depth_duration_stimuli/002072_2014-06-24_21-48-06_260595134347_rgbf000115-resize_0/002072_2014-06-24_21-48-06_260595134347_rgbf000115-resize-original.jpg,1000,4.702,0,3652,992,feet,jsons/v1_VE1000_randls_23.json,790293,1038286,59,Man
135,987259,DepthScenes,duration_manipulation_targetAtFixation,jsons/v1_VE1000_randls_23.json,http://54.235.29.9/FacialAge/BNav_EC2/DepthDuration/v2_depth_duration_MTurk/v2_DepthDuration_HTML.html#143,143,1366,625,1366,768,8-22-2022,8-6-20,136,depth_duration_stimuli/002570_2014-06-24_13-59-54_094959634447_rgbf000059-resize_0/002570_2014-06-24_13-59-54_094959634447_rgbf000059-resize_0-target.png,1000,4.037,2,4472,990,feet,jsons/v1_VE1000_randls_23.json,790293,1038286,59,Man
136,987259,DepthScenes,duration_manipulation_targetAtFixation,jsons/v1_VE1000_randls_23.json,http://54.235.29.9/FacialAge/BNav_EC2/DepthDuration/v2_depth_duration_MTurk/v2_DepthDuration_HTML.html#143,143,1366,625,1366,768,8-22-2022,8-6-20,137,depth_duration_stimuli/002467_2014-06-28_20-38-07_260595134347_rgbf000026-resize_2/002467_2014-06-28_20-38-07_260595134347_rgbf000026-resize_2-target.png,1000,4.742,3,4397,999,feet,jsons/v1_VE1000_randls_23.json,790293,1038286,59,Man
137,987259,DepthScenes,duration_manipulation_targetAtFixation,jsons/v1_VE1000_randls_23.json,http://54.235.29.9/FacialAge/BNav_EC2/DepthDuration/v2_depth_duration_MTurk/v2_DepthDuration_HTML.html#143,143,1366,625,1366,768,8-22-2022,8-6-20,138,depth_duration_stimuli/001555_2014-06-20_17-12-10_260595134347_rgbf000065-resize_4/001555_2014-06-20_17-12-10_260595134347_rgbf000065-resize_4-target.png,1000,1.633,2,4096,988,feet,jsons/v1_VE1000_randls_23.json,790293,1038286,59,Man
138,987259,DepthScenes,duration_manipulation_targetAtFixation,jsons/v1_VE1000_randls_23.json,http://54.235.29.9/FacialAge/BNav_EC2/DepthDuration/v2_depth_duration_MTurk/v2_DepthDuration_HTML.html#143,143,1366,625,1366,768,8-22-2022,8-6-20,139,depth_duration_stimuli/000103_2014-05-14_22-01-17_260595134347_rgbf000152-resize_5/000103_2014-05-14_22-01-17_260595134347_rgbf000152-resize_5-target.png,1000,1.993,3,3908,995,feet,jsons/v1_VE1000_randls_23.json,790293,1038286,59,Man
139,987259,DepthScenes,duration_manipulation_targetAtFixation,jsons/v1_VE1000_randls_23.json,http://54.235.29.9/FacialAge/BNav_EC2/DepthDuration/v2_depth_duration_MTurk/v2_DepthDuration_HTML.html#143,143,1366,625,1366,768,8-22-2022,8-6-20,140,depth_duration_stimuli/001164_2014-06-17_15-35-46_260595134347_rgbf000085-resize_3/001164_2014-06-17_15-35-46_260595134347_rgbf000085-resize_3-target.png,1000,2.354,3,3852,1002,feet,jsons/v1_VE1000_randls_23.json,790293,1038286,59,Man
140,987259,DepthScenes,duration_manipulation_targetAtFixation,jsons/v1_VE1000_randls_23.json,http://54.235.29.9/FacialAge/BNav_EC2/DepthDuration/v2_depth_duration_MTurk/v2_DepthDuration_HTML.html#143,143,1366,625,1366,768,8-22-2022,8-6-20,141,depth_duration_stimuli/001136_2014-06-17_15-19-41_260595134347_rgbf000076-resize_3/001136_2014-06-17_15-19-41_260595134347_rgbf000076-resize_3-target.png,1000,1.8655,2,4101,989,feet,jsons/v1_VE1000_randls_23.json,790293,1038286,59,Man
141,987259,DepthScenes,duration_manipulation_targetAtFixation,jsons/v1_VE1000_randls_23.json,http://54.235.29.9/FacialAge/BNav_EC2/DepthDuration/v2_depth_duration_MTurk/v2_DepthDuration_HTML.html#143,143,1366,625,1366,768,8-22-2022,8-6-20,142,depth_duration_stimuli/002213_2014-06-28_18-37-58_260595134347_rgbf000055-resize_1/002213_2014-06-28_18-37-58_260595134347_rgbf000055-resize_1-target.png,1000,3.62,4,6207,973,feet,jsons/v1_VE1000_randls_23.json,790293,1038286,59,Man
142,987259,DepthScenes,duration_manipulation_targetAtFixation,jsons/v1_VE1000_randls_23.json,http://54.235.29.9/FacialAge/BNav_EC2/DepthDuration/v2_depth_duration_MTurk/v2_DepthDuration_HTML.html#143,143,1366,625,1366,768,8-22-2022,8-6-20,143,depth_duration_stimuli/000691_2014-06-08_13-08-50_260595134347_rgbf000132-resize_3/000691_2014-06-08_13-08-50_260595134347_rgbf000132-resize_3-target.png,1000,4.1530000000000005,4,3917,1006,feet,jsons/v1_VE1000_randls_23.json,790293,1038286,59,Man
143,987259,DepthScenes,duration_manipulation_targetAtFixation,jsons/v1_VE1000_randls_23.json,http://54.235.29.9/FacialAge/BNav_EC2/DepthDuration/v2_depth_duration_MTurk/v2_DepthDuration_HTML.html#143,143,1366,625,1366,768,8-22-2022,8-6-20,144,depth_duration_stimuli/002989_2014-06-15_12-25-03_094959634447_rgbf000150-resize_3/002989_2014-06-15_12-25-03_094959634447_rgbf000150-resize_3-target.png,1000,4.1975,5,3439,996,feet,jsons/v1_VE1000_randls_23.json,790293,1038286,59,Man
144,987259,DepthScenes,duration_manipulation_targetAtFixation,jsons/v1_VE1000_randls_23.json,http://54.235.29.9/FacialAge/BNav_EC2/DepthDuration/v2_depth_duration_MTurk/v2_DepthDuration_HTML.html#143,143,1366,625,1366,768,8-22-2022,8-6-20,145,depth_duration_stimuli/000866_2014-06-09_20-45-42_260595134347_rgbf000139-resize_1/000866_2014-06-09_20-45-42_260595134347_rgbf000139-resize_1-target.png,1000,3.2155,6,3878,998,feet,jsons/v1_VE1000_randls_23.json,790293,1038286,59,Man
145,987259,DepthScenes,duration_manipulation_targetAtFixation,jsons/v1_VE1000_randls_23.json,http://54.235.29.9/FacialAge/BNav_EC2/DepthDuration/v2_depth_duration_MTurk/v2_DepthDuration_HTML.html#143,143,1366,625,1366,768,8-22-2022,8-6-20,146,depth_duration_stimuli/001498_2014-06-19_17-45-14_260595134347_rgbf000129-resize_4/001498_2014-06-19_17-45-14_260595134347_rgbf000129-resize-original.jpg,1000,1.4075,0,3545,994,feet,jsons/v1_VE1000_randls_23.json,790293,1038286,59,Man
146,987259,DepthScenes,duration_manipulation_targetAtFixation,jsons/v1_VE1000_randls_23.json,http://54.235.29.9/FacialAge/BNav_EC2/DepthDuration/v2_depth_duration_MTurk/v2_DepthDuration_HTML.html#143,143,1366,625,1366,768,8-22-2022,8-6-20,147,depth_duration_stimuli/002118_2014-06-25_20-32-08_260595134347_rgbf000078-resize_1/002118_2014-06-25_20-32-08_260595134347_rgbf000078-resize_1-target.png,1000,2.6460000000000004,3,3728,1004,feet,jsons/v1_VE1000_randls_23.json,790293,1038286,59,Man
147,987259,DepthScenes,duration_manipulation_targetAtFixation,jsons/v1_VE1000_randls_23.json,http://54.235.29.9/FacialAge/BNav_EC2/DepthDuration/v2_depth_duration_MTurk/v2_DepthDuration_HTML.html#143,143,1366,625,1366,768,8-22-2022,8-6-20,148,depth_duration_stimuli/001516_2014-06-20_16-25-09_260595134347_rgbf000076-resize_2/001516_2014-06-20_16-25-09_260595134347_rgbf000076-resize_2-target.png,1000,1.7445,2,3541,996,feet,jsons/v1_VE1000_randls_23.json,790293,1038286,59,Man
148,987259,DepthScenes,duration_manipulation_targetAtFixation,jsons/v1_VE1000_randls_23.json,http://54.235.29.9/FacialAge/BNav_EC2/DepthDuration/v2_depth_duration_MTurk/v2_DepthDuration_HTML.html#143,143,1366,625,1366,768,8-22-2022,8-6-20,149,depth_duration_stimuli/002272_2014-06-28_18-53-56_260595134347_rgbf000067-resize_2/002272_2014-06-28_18-53-56_260595134347_rgbf000067-resize_2-target.png,1000,1.138,3,3103,915,feet,jsons/v1_VE1000_randls_23.json,790293,1038286,59,Man
149,987259,DepthScenes,duration_manipulation_targetAtFixation,jsons/v1_VE1000_randls_23.json,http://54.235.29.9/FacialAge/BNav_EC2/DepthDuration/v2_depth_duration_MTurk/v2_DepthDuration_HTML.html#143,143,1366,625,1366,768,8-22-2022,8-6-20,150,depth_duration_stimuli/001571_2014-06-20_17-21-32_260595134347_rgbf000089-resize_1/001571_2014-06-20_17-21-32_260595134347_rgbf000089-resize_1-target.png,1000,1.86,3,3900,1001,feet,jsons/v1_VE1000_randls_23.json,790293,1038286,59,Man
150,987259,DepthScenes,duration_manipulation_targetAtFixation,jsons/v1_VE1000_randls_23.json,http://54.235.29.9/FacialAge/BNav_EC2/DepthDuration/v2_depth_duration_MTurk/v2_DepthDuration_HTML.html#143,143,1366,625,1366,768,8-22-2022,8-6-20,151,depth_duration_stimuli/001055_2014-06-08_18-45-35_260595134347_rgbf000111-resize_4/001055_2014-06-08_18-45-35_260595134347_rgbf000111-resize_4-target.png,1000,2.4290000000000003,4,3672,993,feet,jsons/v1_VE1000_randls_23.json,790293,1038286,59,Man
151,987259,DepthScenes,duration_manipulation_targetAtFixation,jsons/v1_VE1000_randls_23.json,http://54.235.29.9/FacialAge/BNav_EC2/DepthDuration/v2_depth_duration_MTurk/v2_DepthDuration_HTML.html#143,143,1366,625,1366,768,8-22-2022,8-6-20,152,depth_duration_stimuli/000549_2014-06-08_22-10-24_260595134347_rgbf000247-resize_3/000549_2014-06-08_22-10-24_260595134347_rgbf000247-resize_3-target.png,1000,1.841,2,3877,1002,feet,jsons/v1_VE1000_randls_23.json,790293,1038286,59,Man
152,987259,DepthScenes,duration_manipulation_targetAtFixation,jsons/v1_VE1000_randls_23.json,http://54.235.29.9/FacialAge/BNav_EC2/DepthDuration/v2_depth_duration_MTurk/v2_DepthDuration_HTML.html#143,143,1366,625,1366,768,8-22-2022,8-6-20,153,depth_duration_stimuli/002748_2014-06-22_19-07-22_094959634447_rgbf000078-resize_1/002748_2014-06-22_19-07-22_094959634447_rgbf000078-resize_1-target.png,1000,4.6705,6,3762,1000,feet,jsons/v1_VE1000_randls_23.json,790293,1038286,59,Man
153,987259,DepthScenes,duration_manipulation_targetAtFixation,jsons/v1_VE1000_randls_23.json,http://54.235.29.9/FacialAge/BNav_EC2/DepthDuration/v2_depth_duration_MTurk/v2_DepthDuration_HTML.html#143,143,1366,625,1366,768,8-22-2022,8-6-20,154,depth_duration_stimuli/002995_2014-06-15_12-31-26_094959634447_rgbf000150-resize_1/002995_2014-06-15_12-31-26_094959634447_rgbf000150-resize_1-target.png,1000,3.8360000000000003,6,3657,995,feet,jsons/v1_VE1000_randls_23.json,790293,1038286,59,Man
154,987259,DepthScenes,duration_manipulation_targetAtFixation,jsons/v1_VE1000_randls_23.json,http://54.235.29.9/FacialAge/BNav_EC2/DepthDuration/v2_depth_duration_MTurk/v2_DepthDuration_HTML.html#143,143,1366,625,1366,768,8-22-2022,8-6-20,155,depth_duration_stimuli/001808_2014-06-26_20-50-58_260595134347_rgbf000029-resize_1/001808_2014-06-26_20-50-58_260595134347_rgbf000029-resize_1-target.png,1000,4.249,5,3252,998,feet,jsons/v1_VE1000_randls_23.json,790293,1038286,59,Man
155,987259,DepthScenes,duration_manipulation_targetAtFixation,jsons/v1_VE1000_randls_23.json,http://54.235.29.9/FacialAge/BNav_EC2/DepthDuration/v2_depth_duration_MTurk/v2_DepthDuration_HTML.html#143,143,1366,625,1366,768,8-22-2022,8-6-20,156,depth_duration_stimuli/001815_2014-06-26_20-52-55_260595134347_rgbf000020-resize_0/001815_2014-06-26_20-52-55_260595134347_rgbf000020-resize_0-target.png,1000,3.3865,4,3345,1002,feet,jsons/v1_VE1000_randls_23.json,790293,1038286,59,Man
156,987259,DepthScenes,duration_manipulation_targetAtFixation,jsons/v1_VE1000_randls_23.json,http://54.235.29.9/FacialAge/BNav_EC2/DepthDuration/v2_depth_duration_MTurk/v2_DepthDuration_HTML.html#143,143,1366,625,1366,768,8-22-2022,8-6-20,157,depth_duration_stimuli/001570_2014-06-20_17-21-09_260595134347_rgbf000135-resize_4/001570_2014-06-20_17-21-09_260595134347_rgbf000135-resize_4-target.png,1000,4.467,5,3101,1004,feet,jsons/v1_VE1000_randls_23.json,790293,1038286,59,Man
157,987259,DepthScenes,duration_manipulation_targetAtFixation,jsons/v1_VE1000_randls_23.json,http://54.235.29.9/FacialAge/BNav_EC2/DepthDuration/v2_depth_duration_MTurk/v2_DepthDuration_HTML.html#143,143,1366,625,1366,768,8-22-2022,8-6-20,158,depth_duration_stimuli/001392_2014-06-19_16-07-59_260595134347_rgbf000046-resize_1/001392_2014-06-19_16-07-59_260595134347_rgbf000046-resize_1-target.png,1000,4.135,6,3122,984,feet,jsons/v1_VE1000_randls_23.json,790293,1038286,59,Man
158,987259,DepthScenes,duration_manipulation_targetAtFixation,jsons/v1_VE1000_randls_23.json,http://54.235.29.9/FacialAge/BNav_EC2/DepthDuration/v2_depth_duration_MTurk/v2_DepthDuration_HTML.html#143,143,1366,625,1366,768,8-22-2022,8-6-20,159,depth_duration_stimuli/003621_2014-05-23_18-06-08_094959634447_rgbf000101-resize_1/003621_2014-05-23_18-06-08_094959634447_rgbf000101-resize_1-target.png,1000,3.9835,5,3375,1003,feet,jsons/v1_VE1000_randls_23.json,790293,1038286,59,Man
159,987259,DepthScenes,duration_manipulation_targetAtFixation,jsons/v1_VE1000_randls_23.json,http://54.235.29.9/FacialAge/BNav_EC2/DepthDuration/v2_depth_duration_MTurk/v2_DepthDuration_HTML.html#143,143,1366,625,1366,768,8-22-2022,8-6-20,160,depth_duration_stimuli/001584_2014-06-20_11-07-43_260595134347_rgbf000002-resize_1/001584_2014-06-20_11-07-43_260595134347_rgbf000002-resize_1-target.png,1000,3.53,4,3249,972,feet,jsons/v1_VE1000_randls_23.json,790293,1038286,59,Man
160,987259,DepthScenes,duration_manipulation_targetAtFixation,jsons/v1_VE1000_randls_23.json,http://54.235.29.9/FacialAge/BNav_EC2/DepthDuration/v2_depth_duration_MTurk/v2_DepthDuration_HTML.html#143,143,1366,625,1366,768,8-22-2022,8-6-20,161,depth_duration_stimuli/001199_2014-06-17_16-03-48_260595134347_rgbf000077-resize_0/001199_2014-06-17_16-03-48_260595134347_rgbf000077-resize_0-target.png,1000,3.4375,5,3430,969,feet,jsons/v1_VE1000_randls_23.json,790293,1038286,59,Man
161,987259,DepthScenes,duration_manipulation_targetAtFixation,jsons/v1_VE1000_randls_23.json,http://54.235.29.9/FacialAge/BNav_EC2/DepthDuration/v2_depth_duration_MTurk/v2_DepthDuration_HTML.html#143,143,1366,625,1366,768,8-22-2022,8-6-20,162,depth_duration_stimuli/000502_2014-06-08_23-02-32_260595134347_rgbf000063-resize_4/000502_2014-06-08_23-02-32_260595134347_rgbf000063-resize_4-target.png,1000,2.431,3,3532,997,feet,jsons/v1_VE1000_randls_23.json,790293,1038286,59,Man
162,987259,DepthScenes,duration_manipulation_targetAtFixation,jsons/v1_VE1000_randls_23.json,http://54.235.29.9/FacialAge/BNav_EC2/DepthDuration/v2_depth_duration_MTurk/v2_DepthDuration_HTML.html#143,143,1366,625,1366,768,8-22-2022,8-6-20,163,depth_duration_stimuli/003534_2014-05-22_15-06-10_094959634447_rgbf000102-resize_4/003534_2014-05-22_15-06-10_094959634447_rgbf000102-resize_4-target.png,1000,1.426,2,3103,1003,feet,jsons/v1_VE1000_randls_23.json,790293,1038286,59,Man
163,987259,DepthScenes,duration_manipulation_targetAtFixation,jsons/v1_VE1000_randls_23.json,http://54.235.29.9/FacialAge/BNav_EC2/DepthDuration/v2_depth_duration_MTurk/v2_DepthDuration_HTML.html#143,143,1366,625,1366,768,8-22-2022,8-6-20,164,depth_duration_stimuli/002637_2014-06-24_14-51-13_094959634447_rgbf000066-resize_4/002637_2014-06-24_14-51-13_094959634447_rgbf000066-resize_4-target.png,1000,1.9955,4,3799,977,feet,jsons/v1_VE1000_randls_23.json,790293,1038286,59,Man
