,subjID,experimentName,versionName,sequenceName,url,selected_row,windowWidth,windowHeight,screenWidth,screenHeight,startDate,startTime,trial,stimulus,duration,actual_depth,depth_estimate,trial_RT,log_sceneDuration,unitSelection,seq_filepath,experimentTime,totalTime,age,gender
0,987560,DepthScenes,duration_manipulation_targetAtFixation,jsons/VE125_randls_72.json,http://54.235.29.9/FacialAge/BNav_EC2/DepthDuration/v2_depth_duration_MTurk/v2_DepthDuration_HTML.html#126,126,1280,781,1024,768,8-29-2022,10-41-49,1,depth_duration_stimuli/001449_2014-06-19_17-01-27_260595134347_rgbf000116-resize_2/001449_2014-06-19_17-01-27_260595134347_rgbf000116-resize_2-target.png,125,3.452,1,2929,124,meters,jsons/VE125_randls_72.json,435341,2512330,24,Man
1,987560,DepthScenes,duration_manipulation_targetAtFixation,jsons/VE125_randls_72.json,http://54.235.29.9/FacialAge/BNav_EC2/DepthDuration/v2_depth_duration_MTurk/v2_DepthDuration_HTML.html#126,126,1280,781,1024,768,8-29-2022,10-41-49,2,depth_duration_stimuli/001450_2014-06-19_17-02-03_260595134347_rgbf000203-resize_4/001450_2014-06-19_17-02-03_260595134347_rgbf000203-resize_4-target.png,125,4.0106666666667,1,2194,120,meters,jsons/VE125_randls_72.json,435341,2512330,24,Man
2,987560,DepthScenes,duration_manipulation_targetAtFixation,jsons/VE125_randls_72.json,http://54.235.29.9/FacialAge/BNav_EC2/DepthDuration/v2_depth_duration_MTurk/v2_DepthDuration_HTML.html#126,126,1280,781,1024,768,8-29-2022,10-41-49,3,depth_duration_stimuli/001199_2014-06-17_16-03-48_260595134347_rgbf000077-resize_0/001199_2014-06-17_16-03-48_260595134347_rgbf000077-resize_0-target.png,125,3.4375,1,1713,110,meters,jsons/VE125_randls_72.json,435341,2512330,24,Man
3,987560,DepthScenes,duration_manipulation_targetAtFixation,jsons/VE125_randls_72.json,http://54.235.29.9/FacialAge/BNav_EC2/DepthDuration/v2_depth_duration_MTurk/v2_DepthDuration_HTML.html#126,126,1280,781,1024,768,8-29-2022,10-41-49,4,depth_duration_stimuli/000502_2014-06-08_23-02-32_260595134347_rgbf000063-resize_4/000502_2014-06-08_23-02-32_260595134347_rgbf000063-resize_4-target.png,125,2.431,1,1582,123,meters,jsons/VE125_randls_72.json,435341,2512330,24,Man
4,987560,DepthScenes,duration_manipulation_targetAtFixation,jsons/VE125_randls_72.json,http://54.235.29.9/FacialAge/BNav_EC2/DepthDuration/v2_depth_duration_MTurk/v2_DepthDuration_HTML.html#126,126,1280,781,1024,768,8-29-2022,10-41-49,5,depth_duration_stimuli/000929_2014-06-09_16-33-19_260595134347_rgbf000139-resize_0/000929_2014-06-09_16-33-19_260595134347_rgbf000139-resize_0-target.png,125,2.8680000000000003,1,1622,125,meters,jsons/VE125_randls_72.json,435341,2512330,24,Man
5,987560,DepthScenes,duration_manipulation_targetAtFixation,jsons/VE125_randls_72.json,http://54.235.29.9/FacialAge/BNav_EC2/DepthDuration/v2_depth_duration_MTurk/v2_DepthDuration_HTML.html#126,126,1280,781,1024,768,8-29-2022,10-41-49,6,depth_duration_stimuli/000457_2014-06-08_16-52-43_260595134347_rgbf000199-resize_1/000457_2014-06-08_16-52-43_260595134347_rgbf000199-resize_1-target.png,125,3.6489999999999996,1,1924,120,meters,jsons/VE125_randls_72.json,435341,2512330,24,Man
6,987560,DepthScenes,duration_manipulation_targetAtFixation,jsons/VE125_randls_72.json,http://54.235.29.9/FacialAge/BNav_EC2/DepthDuration/v2_depth_duration_MTurk/v2_DepthDuration_HTML.html#126,126,1280,781,1024,768,8-29-2022,10-41-49,7,depth_duration_stimuli/000470_2014-06-09_19-42-40_260595134347_rgbf000094-resize_1/000470_2014-06-09_19-42-40_260595134347_rgbf000094-resize_1-target.png,125,1.831,0,1941,124,meters,jsons/VE125_randls_72.json,435341,2512330,24,Man
7,987560,DepthScenes,duration_manipulation_targetAtFixation,jsons/VE125_randls_72.json,http://54.235.29.9/FacialAge/BNav_EC2/DepthDuration/v2_depth_duration_MTurk/v2_DepthDuration_HTML.html#126,126,1280,781,1024,768,8-29-2022,10-41-49,8,depth_duration_stimuli/000109_2014-05-14_23-41-52_260595134347_rgbf000035-resize_9/000109_2014-05-14_23-41-52_260595134347_rgbf000035-resize_9-target.png,125,1.3545,1,1824,124,meters,jsons/VE125_randls_72.json,435341,2512330,24,Man
8,987560,DepthScenes,duration_manipulation_targetAtFixation,jsons/VE125_randls_72.json,http://54.235.29.9/FacialAge/BNav_EC2/DepthDuration/v2_depth_duration_MTurk/v2_DepthDuration_HTML.html#126,126,1280,781,1024,768,8-29-2022,10-41-49,9,depth_duration_stimuli/001150_2014-06-17_15-27-34_260595134347_rgbf000108-resize_2/001150_2014-06-17_15-27-34_260595134347_rgbf000108-resize_2-target.png,125,4.0325,1,1668,125,meters,jsons/VE125_randls_72.json,435341,2512330,24,Man
9,987560,DepthScenes,duration_manipulation_targetAtFixation,jsons/VE125_randls_72.json,http://54.235.29.9/FacialAge/BNav_EC2/DepthDuration/v2_depth_duration_MTurk/v2_DepthDuration_HTML.html#126,126,1280,781,1024,768,8-29-2022,10-41-49,10,depth_duration_stimuli/000665_2014-06-09_20-42-35_260595134347_rgbf000110-resize_1/000665_2014-06-09_20-42-35_260595134347_rgbf000110-resize_1-target.png,125,3.057,1,1958,123,meters,jsons/VE125_randls_72.json,435341,2512330,24,Man
10,987560,DepthScenes,duration_manipulation_targetAtFixation,jsons/VE125_randls_72.json,http://54.235.29.9/FacialAge/BNav_EC2/DepthDuration/v2_depth_duration_MTurk/v2_DepthDuration_HTML.html#126,126,1280,781,1024,768,8-29-2022,10-41-49,11,depth_duration_stimuli/001016_2014-06-09_16-16-10_260595134347_rgbf000112-resize_5/001016_2014-06-09_16-16-10_260595134347_rgbf000112-resize_5-target.png,125,1.6565,1,1700,123,meters,jsons/VE125_randls_72.json,435341,2512330,24,Man
11,987560,DepthScenes,duration_manipulation_targetAtFixation,jsons/VE125_randls_72.json,http://54.235.29.9/FacialAge/BNav_EC2/DepthDuration/v2_depth_duration_MTurk/v2_DepthDuration_HTML.html#126,126,1280,781,1024,768,8-29-2022,10-41-49,12,depth_duration_stimuli/002340_2014-06-28_20-05-46_260595134347_rgbf000113-resize_0/002340_2014-06-28_20-05-46_260595134347_rgbf000113-resize_0-target.png,125,2.4735,1,1687,143,meters,jsons/VE125_randls_72.json,435341,2512330,24,Man
12,987560,DepthScenes,duration_manipulation_targetAtFixation,jsons/VE125_randls_72.json,http://54.235.29.9/FacialAge/BNav_EC2/DepthDuration/v2_depth_duration_MTurk/v2_DepthDuration_HTML.html#126,126,1280,781,1024,768,8-29-2022,10-41-49,13,depth_duration_stimuli/000569_2014-06-09_22-51-47_260595134347_rgbf000141-resize_3/000569_2014-06-09_22-51-47_260595134347_rgbf000141-resize-original.jpg,125,4.512,1,2343,129,meters,jsons/VE125_randls_72.json,435341,2512330,24,Man
13,987560,DepthScenes,duration_manipulation_targetAtFixation,jsons/VE125_randls_72.json,http://54.235.29.9/FacialAge/BNav_EC2/DepthDuration/v2_depth_duration_MTurk/v2_DepthDuration_HTML.html#126,126,1280,781,1024,768,8-29-2022,10-41-49,14,depth_duration_stimuli/003492_2014-05-21_15-50-55_094959634447_rgbf000828-resize_1/003492_2014-05-21_15-50-55_094959634447_rgbf000828-resize_1-target.png,125,4.06875,1,2363,225,meters,jsons/VE125_randls_72.json,435341,2512330,24,Man
14,987560,DepthScenes,duration_manipulation_targetAtFixation,jsons/VE125_randls_72.json,http://54.235.29.9/FacialAge/BNav_EC2/DepthDuration/v2_depth_duration_MTurk/v2_DepthDuration_HTML.html#126,126,1280,781,1024,768,8-29-2022,10-41-49,15,depth_duration_stimuli/002568_2014-06-24_13-59-21_094959634447_rgbf000062-resize_4/002568_2014-06-24_13-59-21_094959634447_rgbf000062-resize_4-target.png,125,3.015,1,1533,121,meters,jsons/VE125_randls_72.json,435341,2512330,24,Man
15,987560,DepthScenes,duration_manipulation_targetAtFixation,jsons/VE125_randls_72.json,http://54.235.29.9/FacialAge/BNav_EC2/DepthDuration/v2_depth_duration_MTurk/v2_DepthDuration_HTML.html#126,126,1280,781,1024,768,8-29-2022,10-41-49,16,depth_duration_stimuli/002784_2014-06-22_19-26-30_094959634447_rgbf000083-resize_3/002784_2014-06-22_19-26-30_094959634447_rgbf000083-resize_3-target.png,125,1.8046666666667,0,2456,119,meters,jsons/VE125_randls_72.json,435341,2512330,24,Man
16,987560,DepthScenes,duration_manipulation_targetAtFixation,jsons/VE125_randls_72.json,http://54.235.29.9/FacialAge/BNav_EC2/DepthDuration/v2_depth_duration_MTurk/v2_DepthDuration_HTML.html#126,126,1280,781,1024,768,8-29-2022,10-41-49,17,depth_duration_stimuli/001100_2014-06-15_17-46-26_260595134347_rgbf000225-resize_2/001100_2014-06-15_17-46-26_260595134347_rgbf000225-resize_2-target.png,125,2.24,1,1792,116,meters,jsons/VE125_randls_72.json,435341,2512330,24,Man
17,987560,DepthScenes,duration_manipulation_targetAtFixation,jsons/VE125_randls_72.json,http://54.235.29.9/FacialAge/BNav_EC2/DepthDuration/v2_depth_duration_MTurk/v2_DepthDuration_HTML.html#126,126,1280,781,1024,768,8-29-2022,10-41-49,18,depth_duration_stimuli/001175_2014-06-17_15-45-55_260595134347_rgbf000129-resize_4/001175_2014-06-17_15-45-55_260595134347_rgbf000129-resize_4-target.png,125,4.255,1,1795,125,meters,jsons/VE125_randls_72.json,435341,2512330,24,Man
18,987560,DepthScenes,duration_manipulation_targetAtFixation,jsons/VE125_randls_72.json,http://54.235.29.9/FacialAge/BNav_EC2/DepthDuration/v2_depth_duration_MTurk/v2_DepthDuration_HTML.html#126,126,1280,781,1024,768,8-29-2022,10-41-49,19,depth_duration_stimuli/003490_2014-05-21_15-50-11_094959634447_rgbf000101-resize_3/003490_2014-05-21_15-50-11_094959634447_rgbf000101-resize_3-target.png,125,3.6445,1,1850,124,meters,jsons/VE125_randls_72.json,435341,2512330,24,Man
19,987560,DepthScenes,duration_manipulation_targetAtFixation,jsons/VE125_randls_72.json,http://54.235.29.9/FacialAge/BNav_EC2/DepthDuration/v2_depth_duration_MTurk/v2_DepthDuration_HTML.html#126,126,1280,781,1024,768,8-29-2022,10-41-49,20,depth_duration_stimuli/001110_2014-06-15_17-25-28_260595134347_rgbf000150-resize_1/001110_2014-06-15_17-25-28_260595134347_rgbf000150-resize_1-target.png,125,1.7115,1,2146,173,meters,jsons/VE125_randls_72.json,435341,2512330,24,Man
20,987560,DepthScenes,duration_manipulation_targetAtFixation,jsons/VE125_randls_72.json,http://54.235.29.9/FacialAge/BNav_EC2/DepthDuration/v2_depth_duration_MTurk/v2_DepthDuration_HTML.html#126,126,1280,781,1024,768,8-29-2022,10-41-49,21,depth_duration_stimuli/000927_2014-06-09_16-32-30_260595134347_rgbf000123-resize_3/000927_2014-06-09_16-32-30_260595134347_rgbf000123-resize_3-target.png,125,2.6785,0,2031,121,meters,jsons/VE125_randls_72.json,435341,2512330,24,Man
21,987560,DepthScenes,duration_manipulation_targetAtFixation,jsons/VE125_randls_72.json,http://54.235.29.9/FacialAge/BNav_EC2/DepthDuration/v2_depth_duration_MTurk/v2_DepthDuration_HTML.html#126,126,1280,781,1024,768,8-29-2022,10-41-49,22,depth_duration_stimuli/002663_2014-06-13_15-50-26_094959634447_rgbf000075-resize_1/002663_2014-06-13_15-50-26_094959634447_rgbf000075-resize_1-target.png,125,4.7495,1,2187,190,meters,jsons/VE125_randls_72.json,435341,2512330,24,Man
22,987560,DepthScenes,duration_manipulation_targetAtFixation,jsons/VE125_randls_72.json,http://54.235.29.9/FacialAge/BNav_EC2/DepthDuration/v2_depth_duration_MTurk/v2_DepthDuration_HTML.html#126,126,1280,781,1024,768,8-29-2022,10-41-49,23,depth_duration_stimuli/000409_2014-06-04_19-23-33_260595134347_rgbf000067-resize_0/000409_2014-06-04_19-23-33_260595134347_rgbf000067-resize_0-target.png,125,3.7335,1,1875,60,meters,jsons/VE125_randls_72.json,435341,2512330,24,Man
23,987560,DepthScenes,duration_manipulation_targetAtFixation,jsons/VE125_randls_72.json,http://54.235.29.9/FacialAge/BNav_EC2/DepthDuration/v2_depth_duration_MTurk/v2_DepthDuration_HTML.html#126,126,1280,781,1024,768,8-29-2022,10-41-49,24,depth_duration_stimuli/000522_2014-06-08_13-35-06_260595134347_rgbf000244-resize_1/000522_2014-06-08_13-35-06_260595134347_rgbf000244-resize_1-target.png,125,2.3715,0,2034,125,meters,jsons/VE125_randls_72.json,435341,2512330,24,Man
24,987560,DepthScenes,duration_manipulation_targetAtFixation,jsons/VE125_randls_72.json,http://54.235.29.9/FacialAge/BNav_EC2/DepthDuration/v2_depth_duration_MTurk/v2_DepthDuration_HTML.html#126,126,1280,781,1024,768,8-29-2022,10-41-49,25,depth_duration_stimuli/002949_2014-06-26_15-57-42_094959634447_rgbf000079-resize_1/002949_2014-06-26_15-57-42_094959634447_rgbf000079-resize_1-target.png,125,1.8915,1,2252,125,meters,jsons/VE125_randls_72.json,435341,2512330,24,Man
25,987560,DepthScenes,duration_manipulation_targetAtFixation,jsons/VE125_randls_72.json,http://54.235.29.9/FacialAge/BNav_EC2/DepthDuration/v2_depth_duration_MTurk/v2_DepthDuration_HTML.html#126,126,1280,781,1024,768,8-29-2022,10-41-49,26,depth_duration_stimuli/001806_2014-06-26_20-50-20_260595134347_rgbf000091-resize_1/001806_2014-06-26_20-50-20_260595134347_rgbf000091-resize_1-target.png,125,2.7305,0,2628,155,meters,jsons/VE125_randls_72.json,435341,2512330,24,Man
26,987560,DepthScenes,duration_manipulation_targetAtFixation,jsons/VE125_randls_72.json,http://54.235.29.9/FacialAge/BNav_EC2/DepthDuration/v2_depth_duration_MTurk/v2_DepthDuration_HTML.html#126,126,1280,781,1024,768,8-29-2022,10-41-49,27,depth_duration_stimuli/001617_2014-06-20_11-35-32_260595134347_rgbf000066-resize_1/001617_2014-06-20_11-35-32_260595134347_rgbf000066-resize_1-target.png,125,3.7910000000000004,1,3283,120,meters,jsons/VE125_randls_72.json,435341,2512330,24,Man
27,987560,DepthScenes,duration_manipulation_targetAtFixation,jsons/VE125_randls_72.json,http://54.235.29.9/FacialAge/BNav_EC2/DepthDuration/v2_depth_duration_MTurk/v2_DepthDuration_HTML.html#126,126,1280,781,1024,768,8-29-2022,10-41-49,28,depth_duration_stimuli/000414_2014-06-04_19-49-13_260595134347_rgbf000044-resize_0/000414_2014-06-04_19-49-13_260595134347_rgbf000044-resize_0-target.png,125,4.329,0,2297,1,meters,jsons/VE125_randls_72.json,435341,2512330,24,Man
28,987560,DepthScenes,duration_manipulation_targetAtFixation,jsons/VE125_randls_72.json,http://54.235.29.9/FacialAge/BNav_EC2/DepthDuration/v2_depth_duration_MTurk/v2_DepthDuration_HTML.html#126,126,1280,781,1024,768,8-29-2022,10-41-49,29,depth_duration_stimuli/003129_2014-05-12_10-48-10_094959634447_rgbf000100-resize_0/003129_2014-05-12_10-48-10_094959634447_rgbf000100-resize_0-target.png,125,4.9305,1,3122,244,meters,jsons/VE125_randls_72.json,435341,2512330,24,Man
29,987560,DepthScenes,duration_manipulation_targetAtFixation,jsons/VE125_randls_72.json,http://54.235.29.9/FacialAge/BNav_EC2/DepthDuration/v2_depth_duration_MTurk/v2_DepthDuration_HTML.html#126,126,1280,781,1024,768,8-29-2022,10-41-49,30,depth_duration_stimuli/000375_2014-06-08_11-17-29_260595134347_rgbf000133-resize_2/000375_2014-06-08_11-17-29_260595134347_rgbf000133-resize-original.jpg,125,4.718,0,1941,125,meters,jsons/VE125_randls_72.json,435341,2512330,24,Man
30,987560,DepthScenes,duration_manipulation_targetAtFixation,jsons/VE125_randls_72.json,http://54.235.29.9/FacialAge/BNav_EC2/DepthDuration/v2_depth_duration_MTurk/v2_DepthDuration_HTML.html#126,126,1280,781,1024,768,8-29-2022,10-41-49,31,depth_duration_stimuli/001164_2014-06-17_15-35-46_260595134347_rgbf000085-resize_3/001164_2014-06-17_15-35-46_260595134347_rgbf000085-resize_3-target.png,125,2.354,1,2903,439,meters,jsons/VE125_randls_72.json,435341,2512330,24,Man
31,987560,DepthScenes,duration_manipulation_targetAtFixation,jsons/VE125_randls_72.json,http://54.235.29.9/FacialAge/BNav_EC2/DepthDuration/v2_depth_duration_MTurk/v2_DepthDuration_HTML.html#126,126,1280,781,1024,768,8-29-2022,10-41-49,32,depth_duration_stimuli/001136_2014-06-17_15-19-41_260595134347_rgbf000076-resize_3/001136_2014-06-17_15-19-41_260595134347_rgbf000076-resize_3-target.png,125,1.8655,0,5125,123,meters,jsons/VE125_randls_72.json,435341,2512330,24,Man
32,987560,DepthScenes,duration_manipulation_targetAtFixation,jsons/VE125_randls_72.json,http://54.235.29.9/FacialAge/BNav_EC2/DepthDuration/v2_depth_duration_MTurk/v2_DepthDuration_HTML.html#126,126,1280,781,1024,768,8-29-2022,10-41-49,33,depth_duration_stimuli/001808_2014-06-26_20-50-58_260595134347_rgbf000029-resize_1/001808_2014-06-26_20-50-58_260595134347_rgbf000029-resize_1-target.png,125,4.249,1,2377,79,meters,jsons/VE125_randls_72.json,435341,2512330,24,Man
33,987560,DepthScenes,duration_manipulation_targetAtFixation,jsons/VE125_randls_72.json,http://54.235.29.9/FacialAge/BNav_EC2/DepthDuration/v2_depth_duration_MTurk/v2_DepthDuration_HTML.html#126,126,1280,781,1024,768,8-29-2022,10-41-49,34,depth_duration_stimuli/001815_2014-06-26_20-52-55_260595134347_rgbf000020-resize_0/001815_2014-06-26_20-52-55_260595134347_rgbf000020-resize_0-target.png,125,3.3865,1,2137,15,meters,jsons/VE125_randls_72.json,435341,2512330,24,Man
34,987560,DepthScenes,duration_manipulation_targetAtFixation,jsons/VE125_randls_72.json,http://54.235.29.9/FacialAge/BNav_EC2/DepthDuration/v2_depth_duration_MTurk/v2_DepthDuration_HTML.html#126,126,1280,781,1024,768,8-29-2022,10-41-49,35,depth_duration_stimuli/000486_2014-06-09_20-47-20_260595134347_rgbf000143-resize_2/000486_2014-06-09_20-47-20_260595134347_rgbf000143-resize_2-target.png,125,4.8325,1,2611,193,meters,jsons/VE125_randls_72.json,435341,2512330,24,Man
35,987560,DepthScenes,duration_manipulation_targetAtFixation,jsons/VE125_randls_72.json,http://54.235.29.9/FacialAge/BNav_EC2/DepthDuration/v2_depth_duration_MTurk/v2_DepthDuration_HTML.html#126,126,1280,781,1024,768,8-29-2022,10-41-49,36,depth_duration_stimuli/003083_2014-06-15_15-21-03_094959634447_rgbf000063-resize_1/003083_2014-06-15_15-21-03_094959634447_rgbf000063-resize_1-target.png,125,4.1405,0,3256,139,meters,jsons/VE125_randls_72.json,435341,2512330,24,Man
36,987560,DepthScenes,duration_manipulation_targetAtFixation,jsons/VE125_randls_72.json,http://54.235.29.9/FacialAge/BNav_EC2/DepthDuration/v2_depth_duration_MTurk/v2_DepthDuration_HTML.html#126,126,1280,781,1024,768,8-29-2022,10-41-49,37,depth_duration_stimuli/001092_2014-06-15_17-34-58_260595134347_rgbf000171-resize_3/001092_2014-06-15_17-34-58_260595134347_rgbf000171-resize_3-target.png,125,2.6935,0,1851,150,meters,jsons/VE125_randls_72.json,435341,2512330,24,Man
37,987560,DepthScenes,duration_manipulation_targetAtFixation,jsons/VE125_randls_72.json,http://54.235.29.9/FacialAge/BNav_EC2/DepthDuration/v2_depth_duration_MTurk/v2_DepthDuration_HTML.html#126,126,1280,781,1024,768,8-29-2022,10-41-49,38,depth_duration_stimuli/002545_2014-06-24_13-38-53_094959634447_rgbf000080-resize_4/002545_2014-06-24_13-38-53_094959634447_rgbf000080-resize_4-target.png,125,1.9205,0,2858,139,meters,jsons/VE125_randls_72.json,435341,2512330,24,Man
38,987560,DepthScenes,duration_manipulation_targetAtFixation,jsons/VE125_randls_72.json,http://54.235.29.9/FacialAge/BNav_EC2/DepthDuration/v2_depth_duration_MTurk/v2_DepthDuration_HTML.html#126,126,1280,781,1024,768,8-29-2022,10-41-49,39,depth_duration_stimuli/000739_2014-06-08_18-45-58_260595134347_rgbf000068-resize_1/000739_2014-06-08_18-45-58_260595134347_rgbf000068-resize_1-target.png,125,3.534,1,2424,124,meters,jsons/VE125_randls_72.json,435341,2512330,24,Man
39,987560,DepthScenes,duration_manipulation_targetAtFixation,jsons/VE125_randls_72.json,http://54.235.29.9/FacialAge/BNav_EC2/DepthDuration/v2_depth_duration_MTurk/v2_DepthDuration_HTML.html#126,126,1280,781,1024,768,8-29-2022,10-41-49,40,depth_duration_stimuli/000734_2014-06-08_17-39-11_260595134347_rgbf000128-resize_2/000734_2014-06-08_17-39-11_260595134347_rgbf000128-resize_2-target.png,125,4.098,0,2356,125,meters,jsons/VE125_randls_72.json,435341,2512330,24,Man
40,987560,DepthScenes,duration_manipulation_targetAtFixation,jsons/VE125_randls_72.json,http://54.235.29.9/FacialAge/BNav_EC2/DepthDuration/v2_depth_duration_MTurk/v2_DepthDuration_HTML.html#126,126,1280,781,1024,768,8-29-2022,10-41-49,41,depth_duration_stimuli/001167_2014-06-17_15-38-07_260595134347_rgbf000108-resize_0/001167_2014-06-17_15-38-07_260595134347_rgbf000108-resize_0-target.png,125,1.8505,1,2587,284,meters,jsons/VE125_randls_72.json,435341,2512330,24,Man
41,987560,DepthScenes,duration_manipulation_targetAtFixation,jsons/VE125_randls_72.json,http://54.235.29.9/FacialAge/BNav_EC2/DepthDuration/v2_depth_duration_MTurk/v2_DepthDuration_HTML.html#126,126,1280,781,1024,768,8-29-2022,10-41-49,42,depth_duration_stimuli/003587_2014-05-23_16-48-02_094959634447_rgbf002384-resize_2/003587_2014-05-23_16-48-02_094959634447_rgbf002384-resize_2-target.png,125,1.357,1,1924,124,meters,jsons/VE125_randls_72.json,435341,2512330,24,Man
42,987560,DepthScenes,duration_manipulation_targetAtFixation,jsons/VE125_randls_72.json,http://54.235.29.9/FacialAge/BNav_EC2/DepthDuration/v2_depth_duration_MTurk/v2_DepthDuration_HTML.html#126,126,1280,781,1024,768,8-29-2022,10-41-49,43,depth_duration_stimuli/002213_2014-06-28_18-37-58_260595134347_rgbf000055-resize_1/002213_2014-06-28_18-37-58_260595134347_rgbf000055-resize_1-target.png,125,3.62,1,2064,164,meters,jsons/VE125_randls_72.json,435341,2512330,24,Man
43,987560,DepthScenes,duration_manipulation_targetAtFixation,jsons/VE125_randls_72.json,http://54.235.29.9/FacialAge/BNav_EC2/DepthDuration/v2_depth_duration_MTurk/v2_DepthDuration_HTML.html#126,126,1280,781,1024,768,8-29-2022,10-41-49,44,depth_duration_stimuli/000691_2014-06-08_13-08-50_260595134347_rgbf000132-resize_3/000691_2014-06-08_13-08-50_260595134347_rgbf000132-resize_3-target.png,125,4.1530000000000005,1,2131,124,meters,jsons/VE125_randls_72.json,435341,2512330,24,Man
44,987560,DepthScenes,duration_manipulation_targetAtFixation,jsons/VE125_randls_72.json,http://54.235.29.9/FacialAge/BNav_EC2/DepthDuration/v2_depth_duration_MTurk/v2_DepthDuration_HTML.html#126,126,1280,781,1024,768,8-29-2022,10-41-49,45,depth_duration_stimuli/000787_2014-06-08_22-33-53_260595134347_rgbf000175-resize_1/000787_2014-06-08_22-33-53_260595134347_rgbf000175-resize-original.jpg,125,4.784,0,2000,124,meters,jsons/VE125_randls_72.json,435341,2512330,24,Man
45,987560,DepthScenes,duration_manipulation_targetAtFixation,jsons/VE125_randls_72.json,http://54.235.29.9/FacialAge/BNav_EC2/DepthDuration/v2_depth_duration_MTurk/v2_DepthDuration_HTML.html#126,126,1280,781,1024,768,8-29-2022,10-41-49,46,depth_duration_stimuli/000788_2014-06-08_22-34-36_260595134347_rgbf000131-resize_1/000788_2014-06-08_22-34-36_260595134347_rgbf000131-resize_1-target.png,125,3.359,1,1572,125,meters,jsons/VE125_randls_72.json,435341,2512330,24,Man
46,987560,DepthScenes,duration_manipulation_targetAtFixation,jsons/VE125_randls_72.json,http://54.235.29.9/FacialAge/BNav_EC2/DepthDuration/v2_depth_duration_MTurk/v2_DepthDuration_HTML.html#126,126,1280,781,1024,768,8-29-2022,10-41-49,47,depth_duration_stimuli/001235_2014-06-17_16-37-36_260595134347_rgbf000084-resize_4/001235_2014-06-17_16-37-36_260595134347_rgbf000084-resize_4-target.png,125,3.6605,1,1477,125,meters,jsons/VE125_randls_72.json,435341,2512330,24,Man
47,987560,DepthScenes,duration_manipulation_targetAtFixation,jsons/VE125_randls_72.json,http://54.235.29.9/FacialAge/BNav_EC2/DepthDuration/v2_depth_duration_MTurk/v2_DepthDuration_HTML.html#126,126,1280,781,1024,768,8-29-2022,10-41-49,48,depth_duration_stimuli/001056_2014-06-08_18-46-44_260595134347_rgbf000068-resize_0/001056_2014-06-08_18-46-44_260595134347_rgbf000068-resize_0-target.png,125,2.6625,1,1551,125,meters,jsons/VE125_randls_72.json,435341,2512330,24,Man
48,987560,DepthScenes,duration_manipulation_targetAtFixation,jsons/VE125_randls_72.json,http://54.235.29.9/FacialAge/BNav_EC2/DepthDuration/v2_depth_duration_MTurk/v2_DepthDuration_HTML.html#126,126,1280,781,1024,768,8-29-2022,10-41-49,49,depth_duration_stimuli/002199_2014-06-28_18-33-56_260595134347_rgbf000074-resize_0/002199_2014-06-28_18-33-56_260595134347_rgbf000074-resize_0-target.png,125,1.996,0,1607,125,meters,jsons/VE125_randls_72.json,435341,2512330,24,Man
49,987560,DepthScenes,duration_manipulation_targetAtFixation,jsons/VE125_randls_72.json,http://54.235.29.9/FacialAge/BNav_EC2/DepthDuration/v2_depth_duration_MTurk/v2_DepthDuration_HTML.html#126,126,1280,781,1024,768,8-29-2022,10-41-49,50,depth_duration_stimuli/000878_2014-06-08_22-52-45_260595134347_rgbf000045-resize_2/000878_2014-06-08_22-52-45_260595134347_rgbf000045-resize_2-target.png,125,2.092,1,1826,124,meters,jsons/VE125_randls_72.json,435341,2512330,24,Man
50,987560,DepthScenes,duration_manipulation_targetAtFixation,jsons/VE125_randls_72.json,http://54.235.29.9/FacialAge/BNav_EC2/DepthDuration/v2_depth_duration_MTurk/v2_DepthDuration_HTML.html#126,126,1280,781,1024,768,8-29-2022,10-41-49,51,depth_duration_stimuli/002953_2014-06-08_17-32-18_094959634447_rgbf000059-resize_5/002953_2014-06-08_17-32-18_094959634447_rgbf000059-resize_5-target.png,125,1.551,1,1764,112,meters,jsons/VE125_randls_72.json,435341,2512330,24,Man
51,987560,DepthScenes,duration_manipulation_targetAtFixation,jsons/VE125_randls_72.json,http://54.235.29.9/FacialAge/BNav_EC2/DepthDuration/v2_depth_duration_MTurk/v2_DepthDuration_HTML.html#126,126,1280,781,1024,768,8-29-2022,10-41-49,52,depth_duration_stimuli/000493_2014-06-09_21-01-18_260595134347_rgbf000196-resize_3/000493_2014-06-09_21-01-18_260595134347_rgbf000196-resize_3-target.png,125,3.44,1,1973,123,meters,jsons/VE125_randls_72.json,435341,2512330,24,Man
52,987560,DepthScenes,duration_manipulation_targetAtFixation,jsons/VE125_randls_72.json,http://54.235.29.9/FacialAge/BNav_EC2/DepthDuration/v2_depth_duration_MTurk/v2_DepthDuration_HTML.html#126,126,1280,781,1024,768,8-29-2022,10-41-49,53,depth_duration_stimuli/000191_2014-05-12_17-07-38_260595134347_rgbf000199-resize_0/000191_2014-05-12_17-07-38_260595134347_rgbf000199-resize_0-target.png,125,3.7995,0,1740,147,meters,jsons/VE125_randls_72.json,435341,2512330,24,Man
53,987560,DepthScenes,duration_manipulation_targetAtFixation,jsons/VE125_randls_72.json,http://54.235.29.9/FacialAge/BNav_EC2/DepthDuration/v2_depth_duration_MTurk/v2_DepthDuration_HTML.html#126,126,1280,781,1024,768,8-29-2022,10-41-49,54,depth_duration_stimuli/002549_2014-06-24_13-41-39_094959634447_rgbf000022-resize_3/002549_2014-06-24_13-41-39_094959634447_rgbf000022-resize_3-target.png,125,1.476,0,3881,126,meters,jsons/VE125_randls_72.json,435341,2512330,24,Man
54,987560,DepthScenes,duration_manipulation_targetAtFixation,jsons/VE125_randls_72.json,http://54.235.29.9/FacialAge/BNav_EC2/DepthDuration/v2_depth_duration_MTurk/v2_DepthDuration_HTML.html#126,126,1280,781,1024,768,8-29-2022,10-41-49,55,depth_duration_stimuli/002750_2014-06-22_19-08-03_094959634447_rgbf000094-resize_4/002750_2014-06-22_19-08-03_094959634447_rgbf000094-resize_4-target.png,125,2.354,1,2375,118,meters,jsons/VE125_randls_72.json,435341,2512330,24,Man
55,987560,DepthScenes,duration_manipulation_targetAtFixation,jsons/VE125_randls_72.json,http://54.235.29.9/FacialAge/BNav_EC2/DepthDuration/v2_depth_duration_MTurk/v2_DepthDuration_HTML.html#126,126,1280,781,1024,768,8-29-2022,10-41-49,56,depth_duration_stimuli/002964_2014-06-08_17-46-11_094959634447_rgbf000091-resize_4/002964_2014-06-08_17-46-11_094959634447_rgbf000091-resize_4-target.png,125,1.6909999999999998,1,1656,124,meters,jsons/VE125_randls_72.json,435341,2512330,24,Man
56,987560,DepthScenes,duration_manipulation_targetAtFixation,jsons/VE125_randls_72.json,http://54.235.29.9/FacialAge/BNav_EC2/DepthDuration/v2_depth_duration_MTurk/v2_DepthDuration_HTML.html#126,126,1280,781,1024,768,8-29-2022,10-41-49,57,depth_duration_stimuli/002136_2014-06-25_21-18-03_260595134347_rgbf000109-resize_3/002136_2014-06-25_21-18-03_260595134347_rgbf000109-resize_3-target.png,125,1.9569999999999999,1,1529,124,meters,jsons/VE125_randls_72.json,435341,2512330,24,Man
57,987560,DepthScenes,duration_manipulation_targetAtFixation,jsons/VE125_randls_72.json,http://54.235.29.9/FacialAge/BNav_EC2/DepthDuration/v2_depth_duration_MTurk/v2_DepthDuration_HTML.html#126,126,1280,781,1024,768,8-29-2022,10-41-49,58,depth_duration_stimuli/000682_2014-06-08_23-14-58_260595134347_rgbf000041-resize_5/000682_2014-06-08_23-14-58_260595134347_rgbf000041-resize_5-target.png,125,2.7239999999999998,1,1828,124,meters,jsons/VE125_randls_72.json,435341,2512330,24,Man
58,987560,DepthScenes,duration_manipulation_targetAtFixation,jsons/VE125_randls_72.json,http://54.235.29.9/FacialAge/BNav_EC2/DepthDuration/v2_depth_duration_MTurk/v2_DepthDuration_HTML.html#126,126,1280,781,1024,768,8-29-2022,10-41-49,59,depth_duration_stimuli/001650_2014-06-20_12-09-00_260595134347_rgbf000087-resize_3/001650_2014-06-20_12-09-00_260595134347_rgbf000087-resize_3-target.png,125,1.9505,1,1932,124,meters,jsons/VE125_randls_72.json,435341,2512330,24,Man
59,987560,DepthScenes,duration_manipulation_targetAtFixation,jsons/VE125_randls_72.json,http://54.235.29.9/FacialAge/BNav_EC2/DepthDuration/v2_depth_duration_MTurk/v2_DepthDuration_HTML.html#126,126,1280,781,1024,768,8-29-2022,10-41-49,60,depth_duration_stimuli/001570_2014-06-20_17-21-09_260595134347_rgbf000135-resize_4/001570_2014-06-20_17-21-09_260595134347_rgbf000135-resize_4-target.png,125,4.467,1,1560,125,meters,jsons/VE125_randls_72.json,435341,2512330,24,Man
60,987560,DepthScenes,duration_manipulation_targetAtFixation,jsons/VE125_randls_72.json,http://54.235.29.9/FacialAge/BNav_EC2/DepthDuration/v2_depth_duration_MTurk/v2_DepthDuration_HTML.html#126,126,1280,781,1024,768,8-29-2022,10-41-49,61,depth_duration_stimuli/001392_2014-06-19_16-07-59_260595134347_rgbf000046-resize_1/001392_2014-06-19_16-07-59_260595134347_rgbf000046-resize_1-target.png,125,4.135,1,1610,122,meters,jsons/VE125_randls_72.json,435341,2512330,24,Man
61,987560,DepthScenes,duration_manipulation_targetAtFixation,jsons/VE125_randls_72.json,http://54.235.29.9/FacialAge/BNav_EC2/DepthDuration/v2_depth_duration_MTurk/v2_DepthDuration_HTML.html#126,126,1280,781,1024,768,8-29-2022,10-41-49,62,depth_duration_stimuli/002988_2014-06-15_12-24-20_094959634447_rgbf000150-resize_1/002988_2014-06-15_12-24-20_094959634447_rgbf000150-resize_1-target.png,125,4.7669999999999995,1,1993,123,meters,jsons/VE125_randls_72.json,435341,2512330,24,Man
62,987560,DepthScenes,duration_manipulation_targetAtFixation,jsons/VE125_randls_72.json,http://54.235.29.9/FacialAge/BNav_EC2/DepthDuration/v2_depth_duration_MTurk/v2_DepthDuration_HTML.html#126,126,1280,781,1024,768,8-29-2022,10-41-49,63,depth_duration_stimuli/001052_2014-06-08_18-24-54_260595134347_rgbf000130-resize_1/001052_2014-06-08_18-24-54_260595134347_rgbf000130-resize_1-target.png,125,4.1045,0,2026,125,meters,jsons/VE125_randls_72.json,435341,2512330,24,Man
63,987560,DepthScenes,duration_manipulation_targetAtFixation,jsons/VE125_randls_72.json,http://54.235.29.9/FacialAge/BNav_EC2/DepthDuration/v2_depth_duration_MTurk/v2_DepthDuration_HTML.html#126,126,1280,781,1024,768,8-29-2022,10-41-49,64,depth_duration_stimuli/002748_2014-06-22_19-07-22_094959634447_rgbf000078-resize_1/002748_2014-06-22_19-07-22_094959634447_rgbf000078-resize_1-target.png,125,4.6705,1,1530,124,meters,jsons/VE125_randls_72.json,435341,2512330,24,Man
64,987560,DepthScenes,duration_manipulation_targetAtFixation,jsons/VE125_randls_72.json,http://54.235.29.9/FacialAge/BNav_EC2/DepthDuration/v2_depth_duration_MTurk/v2_DepthDuration_HTML.html#126,126,1280,781,1024,768,8-29-2022,10-41-49,65,depth_duration_stimuli/002995_2014-06-15_12-31-26_094959634447_rgbf000150-resize_1/002995_2014-06-15_12-31-26_094959634447_rgbf000150-resize_1-target.png,125,3.8360000000000003,1,1585,124,meters,jsons/VE125_randls_72.json,435341,2512330,24,Man
65,987560,DepthScenes,duration_manipulation_targetAtFixation,jsons/VE125_randls_72.json,http://54.235.29.9/FacialAge/BNav_EC2/DepthDuration/v2_depth_duration_MTurk/v2_DepthDuration_HTML.html#126,126,1280,781,1024,768,8-29-2022,10-41-49,66,depth_duration_stimuli/001222_2014-06-17_16-24-06_260595134347_rgbf000073-resize_0/001222_2014-06-17_16-24-06_260595134347_rgbf000073-resize-original.jpg,125,1.4385,0,1898,124,meters,jsons/VE125_randls_72.json,435341,2512330,24,Man
66,987560,DepthScenes,duration_manipulation_targetAtFixation,jsons/VE125_randls_72.json,http://54.235.29.9/FacialAge/BNav_EC2/DepthDuration/v2_depth_duration_MTurk/v2_DepthDuration_HTML.html#126,126,1280,781,1024,768,8-29-2022,10-41-49,67,depth_duration_stimuli/002725_2014-06-22_11-47-51_094959634447_rgbf000070-resize_1/002725_2014-06-22_11-47-51_094959634447_rgbf000070-resize_1-target.png,125,2.195,1,1447,125,meters,jsons/VE125_randls_72.json,435341,2512330,24,Man
67,987560,DepthScenes,duration_manipulation_targetAtFixation,jsons/VE125_randls_72.json,http://54.235.29.9/FacialAge/BNav_EC2/DepthDuration/v2_depth_duration_MTurk/v2_DepthDuration_HTML.html#126,126,1280,781,1024,768,8-29-2022,10-41-49,68,depth_duration_stimuli/002344_2014-06-28_20-06-29_260595134347_rgbf000030-resize_1/002344_2014-06-28_20-06-29_260595134347_rgbf000030-resize_1-target.png,125,1.5795,1,1563,123,meters,jsons/VE125_randls_72.json,435341,2512330,24,Man
68,987560,DepthScenes,duration_manipulation_targetAtFixation,jsons/VE125_randls_72.json,http://54.235.29.9/FacialAge/BNav_EC2/DepthDuration/v2_depth_duration_MTurk/v2_DepthDuration_HTML.html#126,126,1280,781,1024,768,8-29-2022,10-41-49,69,depth_duration_stimuli/003621_2014-05-23_18-06-08_094959634447_rgbf000101-resize_1/003621_2014-05-23_18-06-08_094959634447_rgbf000101-resize_1-target.png,125,3.9835,1,1786,124,meters,jsons/VE125_randls_72.json,435341,2512330,24,Man
69,987560,DepthScenes,duration_manipulation_targetAtFixation,jsons/VE125_randls_72.json,http://54.235.29.9/FacialAge/BNav_EC2/DepthDuration/v2_depth_duration_MTurk/v2_DepthDuration_HTML.html#126,126,1280,781,1024,768,8-29-2022,10-41-49,70,depth_duration_stimuli/001584_2014-06-20_11-07-43_260595134347_rgbf000002-resize_1/001584_2014-06-20_11-07-43_260595134347_rgbf000002-resize_1-target.png,125,3.53,0,2889,127,meters,jsons/VE125_randls_72.json,435341,2512330,24,Man
70,987560,DepthScenes,duration_manipulation_targetAtFixation,jsons/VE125_randls_72.json,http://54.235.29.9/FacialAge/BNav_EC2/DepthDuration/v2_depth_duration_MTurk/v2_DepthDuration_HTML.html#126,126,1280,781,1024,768,8-29-2022,10-41-49,71,depth_duration_stimuli/001059_2014-06-08_21-53-27_260595134347_rgbf000061-resize_4/001059_2014-06-08_21-53-27_260595134347_rgbf000061-resize_4-target.png,125,2.4185,1,2477,125,meters,jsons/VE125_randls_72.json,435341,2512330,24,Man
71,987560,DepthScenes,duration_manipulation_targetAtFixation,jsons/VE125_randls_72.json,http://54.235.29.9/FacialAge/BNav_EC2/DepthDuration/v2_depth_duration_MTurk/v2_DepthDuration_HTML.html#126,126,1280,781,1024,768,8-29-2022,10-41-49,72,depth_duration_stimuli/001032_2014-06-08_13-23-17_260595134347_rgbf000021-resize_3/001032_2014-06-08_13-23-17_260595134347_rgbf000021-resize_3-target.png,125,3.2725,0,2249,127,meters,jsons/VE125_randls_72.json,435341,2512330,24,Man
72,987560,DepthScenes,duration_manipulation_targetAtFixation,jsons/VE125_randls_72.json,http://54.235.29.9/FacialAge/BNav_EC2/DepthDuration/v2_depth_duration_MTurk/v2_DepthDuration_HTML.html#126,126,1280,781,1024,768,8-29-2022,10-41-49,73,depth_duration_stimuli/000009_2014-05-26_14-32-05_260595134347_rgbf000034-resize_3/000009_2014-05-26_14-32-05_260595134347_rgbf000034-resize_3-target.png,125,3.8715,0,1937,120,meters,jsons/VE125_randls_72.json,435341,2512330,24,Man
73,987560,DepthScenes,duration_manipulation_targetAtFixation,jsons/VE125_randls_72.json,http://54.235.29.9/FacialAge/BNav_EC2/DepthDuration/v2_depth_duration_MTurk/v2_DepthDuration_HTML.html#126,126,1280,781,1024,768,8-29-2022,10-41-49,74,depth_duration_stimuli/001828_2014-06-26_21-40-03_260595134347_rgbf000024-resize_0/001828_2014-06-26_21-40-03_260595134347_rgbf000024-resize_0-target.png,125,4.8260000000000005,1,1594,124,meters,jsons/VE125_randls_72.json,435341,2512330,24,Man
74,987560,DepthScenes,duration_manipulation_targetAtFixation,jsons/VE125_randls_72.json,http://54.235.29.9/FacialAge/BNav_EC2/DepthDuration/v2_depth_duration_MTurk/v2_DepthDuration_HTML.html#126,126,1280,781,1024,768,8-29-2022,10-41-49,75,depth_duration_stimuli/000642_2014-06-08_16-59-25_260595134347_rgbf000098-resize_2/000642_2014-06-08_16-59-25_260595134347_rgbf000098-resize_2-target.png,125,2.8815,1,2081,125,meters,jsons/VE125_randls_72.json,435341,2512330,24,Man
75,987560,DepthScenes,duration_manipulation_targetAtFixation,jsons/VE125_randls_72.json,http://54.235.29.9/FacialAge/BNav_EC2/DepthDuration/v2_depth_duration_MTurk/v2_DepthDuration_HTML.html#126,126,1280,781,1024,768,8-29-2022,10-41-49,76,depth_duration_stimuli/002425_2014-06-28_20-27-29_260595134347_rgbf000031-resize_8/002425_2014-06-28_20-27-29_260595134347_rgbf000031-resize_8-target.png,125,3.8960000000000004,1,1994,125,meters,jsons/VE125_randls_72.json,435341,2512330,24,Man
76,987560,DepthScenes,duration_manipulation_targetAtFixation,jsons/VE125_randls_72.json,http://54.235.29.9/FacialAge/BNav_EC2/DepthDuration/v2_depth_duration_MTurk/v2_DepthDuration_HTML.html#126,126,1280,781,1024,768,8-29-2022,10-41-49,77,depth_duration_stimuli/002630_2014-06-24_14-47-50_094959634447_rgbf000055-resize_1/002630_2014-06-24_14-47-50_094959634447_rgbf000055-resize_1-target.png,125,3.0095,1,1473,123,meters,jsons/VE125_randls_72.json,435341,2512330,24,Man
77,987560,DepthScenes,duration_manipulation_targetAtFixation,jsons/VE125_randls_72.json,http://54.235.29.9/FacialAge/BNav_EC2/DepthDuration/v2_depth_duration_MTurk/v2_DepthDuration_HTML.html#126,126,1280,781,1024,768,8-29-2022,10-41-49,78,depth_duration_stimuli/002758_2014-06-22_19-11-20_094959634447_rgbf000128-resize_1/002758_2014-06-22_19-11-20_094959634447_rgbf000128-resize_1-target.png,125,2.555,1,1694,125,meters,jsons/VE125_randls_72.json,435341,2512330,24,Man
78,987560,DepthScenes,duration_manipulation_targetAtFixation,jsons/VE125_randls_72.json,http://54.235.29.9/FacialAge/BNav_EC2/DepthDuration/v2_depth_duration_MTurk/v2_DepthDuration_HTML.html#126,126,1280,781,1024,768,8-29-2022,10-41-49,79,depth_duration_stimuli/002118_2014-06-25_20-32-08_260595134347_rgbf000078-resize_1/002118_2014-06-25_20-32-08_260595134347_rgbf000078-resize_1-target.png,125,2.6460000000000004,0,6330,124,meters,jsons/VE125_randls_72.json,435341,2512330,24,Man
79,987560,DepthScenes,duration_manipulation_targetAtFixation,jsons/VE125_randls_72.json,http://54.235.29.9/FacialAge/BNav_EC2/DepthDuration/v2_depth_duration_MTurk/v2_DepthDuration_HTML.html#126,126,1280,781,1024,768,8-29-2022,10-41-49,80,depth_duration_stimuli/001516_2014-06-20_16-25-09_260595134347_rgbf000076-resize_2/001516_2014-06-20_16-25-09_260595134347_rgbf000076-resize_2-target.png,125,1.7445,1,2191,125,meters,jsons/VE125_randls_72.json,435341,2512330,24,Man
80,987560,DepthScenes,duration_manipulation_targetAtFixation,jsons/VE125_randls_72.json,http://54.235.29.9/FacialAge/BNav_EC2/DepthDuration/v2_depth_duration_MTurk/v2_DepthDuration_HTML.html#126,126,1280,781,1024,768,8-29-2022,10-41-49,81,depth_duration_stimuli/001555_2014-06-20_17-12-10_260595134347_rgbf000065-resize_4/001555_2014-06-20_17-12-10_260595134347_rgbf000065-resize_4-target.png,125,1.633,0,1970,125,meters,jsons/VE125_randls_72.json,435341,2512330,24,Man
81,987560,DepthScenes,duration_manipulation_targetAtFixation,jsons/VE125_randls_72.json,http://54.235.29.9/FacialAge/BNav_EC2/DepthDuration/v2_depth_duration_MTurk/v2_DepthDuration_HTML.html#126,126,1280,781,1024,768,8-29-2022,10-41-49,82,depth_duration_stimuli/000103_2014-05-14_22-01-17_260595134347_rgbf000152-resize_5/000103_2014-05-14_22-01-17_260595134347_rgbf000152-resize_5-target.png,125,1.993,0,3586,125,meters,jsons/VE125_randls_72.json,435341,2512330,24,Man
82,987560,DepthScenes,duration_manipulation_targetAtFixation,jsons/VE125_randls_72.json,http://54.235.29.9/FacialAge/BNav_EC2/DepthDuration/v2_depth_duration_MTurk/v2_DepthDuration_HTML.html#126,126,1280,781,1024,768,8-29-2022,10-41-49,83,depth_duration_stimuli/001029_2014-06-08_13-17-57_260595134347_rgbf000065-resize_1/001029_2014-06-08_13-17-57_260595134347_rgbf000065-resize_1-target.png,125,3.0835,1,1460,143,meters,jsons/VE125_randls_72.json,435341,2512330,24,Man
83,987560,DepthScenes,duration_manipulation_targetAtFixation,jsons/VE125_randls_72.json,http://54.235.29.9/FacialAge/BNav_EC2/DepthDuration/v2_depth_duration_MTurk/v2_DepthDuration_HTML.html#126,126,1280,781,1024,768,8-29-2022,10-41-49,84,depth_duration_stimuli/000677_2014-06-08_23-10-32_260595134347_rgbf000158-resize_6/000677_2014-06-08_23-10-32_260595134347_rgbf000158-resize_6-target.png,125,3.556,0,1946,127,meters,jsons/VE125_randls_72.json,435341,2512330,24,Man
84,987560,DepthScenes,duration_manipulation_targetAtFixation,jsons/VE125_randls_72.json,http://54.235.29.9/FacialAge/BNav_EC2/DepthDuration/v2_depth_duration_MTurk/v2_DepthDuration_HTML.html#126,126,1280,781,1024,768,8-29-2022,10-41-49,85,depth_duration_stimuli/003070_2014-06-15_14-58-27_094959634447_rgbf000150-resize_3/003070_2014-06-15_14-58-27_094959634447_rgbf000150-resize_3-target.png,125,2.9415,1,2171,121,meters,jsons/VE125_randls_72.json,435341,2512330,24,Man
85,987560,DepthScenes,duration_manipulation_targetAtFixation,jsons/VE125_randls_72.json,http://54.235.29.9/FacialAge/BNav_EC2/DepthDuration/v2_depth_duration_MTurk/v2_DepthDuration_HTML.html#126,126,1280,781,1024,768,8-29-2022,10-41-49,86,depth_duration_stimuli/000943_2014-06-09_19-31-07_260595134347_rgbf000128-resize_1/000943_2014-06-09_19-31-07_260595134347_rgbf000128-resize_1-target.png,125,1.9765,1,1875,124,meters,jsons/VE125_randls_72.json,435341,2512330,24,Man
86,987560,DepthScenes,duration_manipulation_targetAtFixation,jsons/VE125_randls_72.json,http://54.235.29.9/FacialAge/BNav_EC2/DepthDuration/v2_depth_duration_MTurk/v2_DepthDuration_HTML.html#126,126,1280,781,1024,768,8-29-2022,10-41-49,87,depth_duration_stimuli/000506_2014-06-08_23-21-00_260595134347_rgbf000070-resize_7/000506_2014-06-08_23-21-00_260595134347_rgbf000070-resize_7-target.png,125,4.0585,1,11317,126,meters,jsons/VE125_randls_72.json,435341,2512330,24,Man
87,987560,DepthScenes,duration_manipulation_targetAtFixation,jsons/VE125_randls_72.json,http://54.235.29.9/FacialAge/BNav_EC2/DepthDuration/v2_depth_duration_MTurk/v2_DepthDuration_HTML.html#126,126,1280,781,1024,768,8-29-2022,10-41-49,88,depth_duration_stimuli/003079_2014-06-15_15-18-20_094959634447_rgbf000152-resize_8/003079_2014-06-15_15-18-20_094959634447_rgbf000152-resize_8-target.png,125,2.8775,0,3192,119,meters,jsons/VE125_randls_72.json,435341,2512330,24,Man
88,987560,DepthScenes,duration_manipulation_targetAtFixation,jsons/VE125_randls_72.json,http://54.235.29.9/FacialAge/BNav_EC2/DepthDuration/v2_depth_duration_MTurk/v2_DepthDuration_HTML.html#126,126,1280,781,1024,768,8-29-2022,10-41-49,89,depth_duration_stimuli/001158_2014-06-17_15-32-16_260595134347_rgbf000138-resize_2/001158_2014-06-17_15-32-16_260595134347_rgbf000138-resize_2-target.png,125,4.5315,0,1695,124,meters,jsons/VE125_randls_72.json,435341,2512330,24,Man
89,987560,DepthScenes,duration_manipulation_targetAtFixation,jsons/VE125_randls_72.json,http://54.235.29.9/FacialAge/BNav_EC2/DepthDuration/v2_depth_duration_MTurk/v2_DepthDuration_HTML.html#126,126,1280,781,1024,768,8-29-2022,10-41-49,90,depth_duration_stimuli/000556_2014-06-09_22-42-56_260595134347_rgbf000214-resize_1/000556_2014-06-09_22-42-56_260595134347_rgbf000214-resize_1-target.png,125,4.8415,0,1880,124,meters,jsons/VE125_randls_72.json,435341,2512330,24,Man
90,987560,DepthScenes,duration_manipulation_targetAtFixation,jsons/VE125_randls_72.json,http://54.235.29.9/FacialAge/BNav_EC2/DepthDuration/v2_depth_duration_MTurk/v2_DepthDuration_HTML.html#126,126,1280,781,1024,768,8-29-2022,10-41-49,91,depth_duration_stimuli/002153_2014-06-25_21-27-18_260595134347_rgbf000038-resize_5/002153_2014-06-25_21-27-18_260595134347_rgbf000038-resize_5-target.png,125,2.505,1,1690,132,meters,jsons/VE125_randls_72.json,435341,2512330,24,Man
91,987560,DepthScenes,duration_manipulation_targetAtFixation,jsons/VE125_randls_72.json,http://54.235.29.9/FacialAge/BNav_EC2/DepthDuration/v2_depth_duration_MTurk/v2_DepthDuration_HTML.html#126,126,1280,781,1024,768,8-29-2022,10-41-49,92,depth_duration_stimuli/002660_2014-06-13_15-44-18_094959634447_rgbf001878-resize_2/002660_2014-06-13_15-44-18_094959634447_rgbf001878-resize_2-target.png,125,3.576,0,1942,136,meters,jsons/VE125_randls_72.json,435341,2512330,24,Man
92,987560,DepthScenes,duration_manipulation_targetAtFixation,jsons/VE125_randls_72.json,http://54.235.29.9/FacialAge/BNav_EC2/DepthDuration/v2_depth_duration_MTurk/v2_DepthDuration_HTML.html#126,126,1280,781,1024,768,8-29-2022,10-41-49,93,depth_duration_stimuli/002905_2014-06-03_18-04-43_094959634447_rgbf000151-resize_2/002905_2014-06-03_18-04-43_094959634447_rgbf000151-resize_2-target.png,125,2.0295,1,2104,41,meters,jsons/VE125_randls_72.json,435341,2512330,24,Man
93,987560,DepthScenes,duration_manipulation_targetAtFixation,jsons/VE125_randls_72.json,http://54.235.29.9/FacialAge/BNav_EC2/DepthDuration/v2_depth_duration_MTurk/v2_DepthDuration_HTML.html#126,126,1280,781,1024,768,8-29-2022,10-41-49,94,depth_duration_stimuli/003423_2014-05-21_10-23-26_094959634447_rgbf002665-resize_2/003423_2014-05-21_10-23-26_094959634447_rgbf002665-resize_2-target.png,125,3.2575,1,1641,161,meters,jsons/VE125_randls_72.json,435341,2512330,24,Man
94,987560,DepthScenes,duration_manipulation_targetAtFixation,jsons/VE125_randls_72.json,http://54.235.29.9/FacialAge/BNav_EC2/DepthDuration/v2_depth_duration_MTurk/v2_DepthDuration_HTML.html#126,126,1280,781,1024,768,8-29-2022,10-41-49,95,depth_duration_stimuli/000736_2014-06-08_18-24-15_260595134347_rgbf000206-resize_3/000736_2014-06-08_18-24-15_260595134347_rgbf000206-resize_3-target.png,125,3.515,1,1309,125,meters,jsons/VE125_randls_72.json,435341,2512330,24,Man
95,987560,DepthScenes,duration_manipulation_targetAtFixation,jsons/VE125_randls_72.json,http://54.235.29.9/FacialAge/BNav_EC2/DepthDuration/v2_depth_duration_MTurk/v2_DepthDuration_HTML.html#126,126,1280,781,1024,768,8-29-2022,10-41-49,96,depth_duration_stimuli/000137_2014-05-20_17-04-49_260595134347_rgbf000120-resize_1/000137_2014-05-20_17-04-49_260595134347_rgbf000120-resize_1-target.png,125,3.786,1,1642,123,meters,jsons/VE125_randls_72.json,435341,2512330,24,Man
96,987560,DepthScenes,duration_manipulation_targetAtFixation,jsons/VE125_randls_72.json,http://54.235.29.9/FacialAge/BNav_EC2/DepthDuration/v2_depth_duration_MTurk/v2_DepthDuration_HTML.html#126,126,1280,781,1024,768,8-29-2022,10-41-49,97,depth_duration_stimuli/002043_2014-06-24_20-29-38_260595134347_rgbf000039-resize_4/002043_2014-06-24_20-29-38_260595134347_rgbf000039-resize_4-target.png,125,2.8435,1,2594,124,meters,jsons/VE125_randls_72.json,435341,2512330,24,Man
97,987560,DepthScenes,duration_manipulation_targetAtFixation,jsons/VE125_randls_72.json,http://54.235.29.9/FacialAge/BNav_EC2/DepthDuration/v2_depth_duration_MTurk/v2_DepthDuration_HTML.html#126,126,1280,781,1024,768,8-29-2022,10-41-49,98,depth_duration_stimuli/003048_2014-06-15_13-49-43_094959634447_rgbf000150-resize_1/003048_2014-06-15_13-49-43_094959634447_rgbf000150-resize_1-target.png,125,4.0035,1,2386,124,meters,jsons/VE125_randls_72.json,435341,2512330,24,Man
98,987560,DepthScenes,duration_manipulation_targetAtFixation,jsons/VE125_randls_72.json,http://54.235.29.9/FacialAge/BNav_EC2/DepthDuration/v2_depth_duration_MTurk/v2_DepthDuration_HTML.html#126,126,1280,781,1024,768,8-29-2022,10-41-49,99,depth_duration_stimuli/001540_2014-06-20_17-01-05_260595134347_rgbf000086-resize_2/001540_2014-06-20_17-01-05_260595134347_rgbf000086-resize-original.jpg,125,1.459,1,1506,146,meters,jsons/VE125_randls_72.json,435341,2512330,24,Man
99,987560,DepthScenes,duration_manipulation_targetAtFixation,jsons/VE125_randls_72.json,http://54.235.29.9/FacialAge/BNav_EC2/DepthDuration/v2_depth_duration_MTurk/v2_DepthDuration_HTML.html#126,126,1280,781,1024,768,8-29-2022,10-41-49,100,depth_duration_stimuli/002600_2014-06-24_14-27-04_094959634447_rgbf000074-resize_2/002600_2014-06-24_14-27-04_094959634447_rgbf000074-resize_2-target.png,125,2.7575,1,1625,182,meters,jsons/VE125_randls_72.json,435341,2512330,24,Man
100,987560,DepthScenes,duration_manipulation_targetAtFixation,jsons/VE125_randls_72.json,http://54.235.29.9/FacialAge/BNav_EC2/DepthDuration/v2_depth_duration_MTurk/v2_DepthDuration_HTML.html#126,126,1280,781,1024,768,8-29-2022,10-41-49,101,depth_duration_stimuli/003228_2014-05-14_13-42-35_094959634447_rgbf000101-resize_1/003228_2014-05-14_13-42-35_094959634447_rgbf000101-resize_1-target.png,125,1.9680000000000002,1,1803,111,meters,jsons/VE125_randls_72.json,435341,2512330,24,Man
101,987560,DepthScenes,duration_manipulation_targetAtFixation,jsons/VE125_randls_72.json,http://54.235.29.9/FacialAge/BNav_EC2/DepthDuration/v2_depth_duration_MTurk/v2_DepthDuration_HTML.html#126,126,1280,781,1024,768,8-29-2022,10-41-49,102,depth_duration_stimuli/002445_2014-06-28_20-32-16_260595134347_rgbf000029-resize_4/002445_2014-06-28_20-32-16_260595134347_rgbf000029-resize_4-target.png,125,2.5315,0,1965,126,meters,jsons/VE125_randls_72.json,435341,2512330,24,Man
102,987560,DepthScenes,duration_manipulation_targetAtFixation,jsons/VE125_randls_72.json,http://54.235.29.9/FacialAge/BNav_EC2/DepthDuration/v2_depth_duration_MTurk/v2_DepthDuration_HTML.html#126,126,1280,781,1024,768,8-29-2022,10-41-49,103,depth_duration_stimuli/000780_2014-06-08_22-28-29_260595134347_rgbf000126-resize_1/000780_2014-06-08_22-28-29_260595134347_rgbf000126-resize_1-target.png,125,3.3825,0,2809,348,meters,jsons/VE125_randls_72.json,435341,2512330,24,Man
103,987560,DepthScenes,duration_manipulation_targetAtFixation,jsons/VE125_randls_72.json,http://54.235.29.9/FacialAge/BNav_EC2/DepthDuration/v2_depth_duration_MTurk/v2_DepthDuration_HTML.html#126,126,1280,781,1024,768,8-29-2022,10-41-49,104,depth_duration_stimuli/002039_2014-06-24_20-22-38_260595134347_rgbf000084-resize_1/002039_2014-06-24_20-22-38_260595134347_rgbf000084-resize_1-target.png,125,4.408,0,2324,210,meters,jsons/VE125_randls_72.json,435341,2512330,24,Man
104,987560,DepthScenes,duration_manipulation_targetAtFixation,jsons/VE125_randls_72.json,http://54.235.29.9/FacialAge/BNav_EC2/DepthDuration/v2_depth_duration_MTurk/v2_DepthDuration_HTML.html#126,126,1280,781,1024,768,8-29-2022,10-41-49,105,depth_duration_stimuli/002103_2014-06-25_20-00-40_260595134347_rgbf000049-resize_0/002103_2014-06-25_20-00-40_260595134347_rgbf000049-resize_0-target.png,125,4.105,1,3107,124,meters,jsons/VE125_randls_72.json,435341,2512330,24,Man
105,987560,DepthScenes,duration_manipulation_targetAtFixation,jsons/VE125_randls_72.json,http://54.235.29.9/FacialAge/BNav_EC2/DepthDuration/v2_depth_duration_MTurk/v2_DepthDuration_HTML.html#126,126,1280,781,1024,768,8-29-2022,10-41-49,106,depth_duration_stimuli/002788_2014-06-22_19-36-03_094959634447_rgbf000088-resize_2/002788_2014-06-22_19-36-03_094959634447_rgbf000088-resize_2-target.png,125,1.6465,1,1739,125,meters,jsons/VE125_randls_72.json,435341,2512330,24,Man
106,987560,DepthScenes,duration_manipulation_targetAtFixation,jsons/VE125_randls_72.json,http://54.235.29.9/FacialAge/BNav_EC2/DepthDuration/v2_depth_duration_MTurk/v2_DepthDuration_HTML.html#126,126,1280,781,1024,768,8-29-2022,10-41-49,107,depth_duration_stimuli/000749_2014-06-08_21-55-06_260595134347_rgbf000070-resize_2/000749_2014-06-08_21-55-06_260595134347_rgbf000070-resize_2-target.png,125,2.331,1,2042,124,meters,jsons/VE125_randls_72.json,435341,2512330,24,Man
107,987560,DepthScenes,duration_manipulation_targetAtFixation,jsons/VE125_randls_72.json,http://54.235.29.9/FacialAge/BNav_EC2/DepthDuration/v2_depth_duration_MTurk/v2_DepthDuration_HTML.html#126,126,1280,781,1024,768,8-29-2022,10-41-49,108,depth_duration_stimuli/000692_2014-06-08_13-09-42_260595134347_rgbf000199-resize_2/000692_2014-06-08_13-09-42_260595134347_rgbf000199-resize_2-target.png,125,3.661,1,1891,124,meters,jsons/VE125_randls_72.json,435341,2512330,24,Man
108,987560,DepthScenes,duration_manipulation_targetAtFixation,jsons/VE125_randls_72.json,http://54.235.29.9/FacialAge/BNav_EC2/DepthDuration/v2_depth_duration_MTurk/v2_DepthDuration_HTML.html#126,126,1280,781,1024,768,8-29-2022,10-41-49,109,depth_duration_stimuli/001094_2014-06-15_17-36-00_260595134347_rgbf000205-resize_0/001094_2014-06-15_17-36-00_260595134347_rgbf000205-resize_0-target.png,125,4.2175,0,2584,175,meters,jsons/VE125_randls_72.json,435341,2512330,24,Man
109,987560,DepthScenes,duration_manipulation_targetAtFixation,jsons/VE125_randls_72.json,http://54.235.29.9/FacialAge/BNav_EC2/DepthDuration/v2_depth_duration_MTurk/v2_DepthDuration_HTML.html#126,126,1280,781,1024,768,8-29-2022,10-41-49,110,depth_duration_stimuli/002509_2014-06-24_13-19-22_094959634447_rgbf000077-resize_0/002509_2014-06-24_13-19-22_094959634447_rgbf000077-resize_0-target.png,125,1.3065,0,3339,86,meters,jsons/VE125_randls_72.json,435341,2512330,24,Man
110,987560,DepthScenes,duration_manipulation_targetAtFixation,jsons/VE125_randls_72.json,http://54.235.29.9/FacialAge/BNav_EC2/DepthDuration/v2_depth_duration_MTurk/v2_DepthDuration_HTML.html#126,126,1280,781,1024,768,8-29-2022,10-41-49,111,depth_duration_stimuli/003338_2014-05-20_11-01-23_094959634447_rgbf000051-resize_6/003338_2014-05-20_11-01-23_094959634447_rgbf000051-resize_6-target.png,125,1.693,1,1945,123,meters,jsons/VE125_randls_72.json,435341,2512330,24,Man
111,987560,DepthScenes,duration_manipulation_targetAtFixation,jsons/VE125_randls_72.json,http://54.235.29.9/FacialAge/BNav_EC2/DepthDuration/v2_depth_duration_MTurk/v2_DepthDuration_HTML.html#126,126,1280,781,1024,768,8-29-2022,10-41-49,112,depth_duration_stimuli/000906_2014-06-08_13-35-43_260595134347_rgbf000155-resize_1/000906_2014-06-08_13-35-43_260595134347_rgbf000155-resize_1-target.png,125,2.8489999999999998,0,1834,124,meters,jsons/VE125_randls_72.json,435341,2512330,24,Man
112,987560,DepthScenes,duration_manipulation_targetAtFixation,jsons/VE125_randls_72.json,http://54.235.29.9/FacialAge/BNav_EC2/DepthDuration/v2_depth_duration_MTurk/v2_DepthDuration_HTML.html#126,126,1280,781,1024,768,8-29-2022,10-41-49,113,depth_duration_stimuli/002805_2014-06-22_19-54-03_094959634447_rgbf000079-resize_1/002805_2014-06-22_19-54-03_094959634447_rgbf000079-resize_1-target.png,125,3.1439999999999997,0,2003,127,meters,jsons/VE125_randls_72.json,435341,2512330,24,Man
113,987560,DepthScenes,duration_manipulation_targetAtFixation,jsons/VE125_randls_72.json,http://54.235.29.9/FacialAge/BNav_EC2/DepthDuration/v2_depth_duration_MTurk/v2_DepthDuration_HTML.html#126,126,1280,781,1024,768,8-29-2022,10-41-49,114,depth_duration_stimuli/001244_2014-06-17_16-47-45_260595134347_rgbf000030-resize_4/001244_2014-06-17_16-47-45_260595134347_rgbf000030-resize_4-target.png,125,2.0425,0,2116,124,meters,jsons/VE125_randls_72.json,435341,2512330,24,Man
114,987560,DepthScenes,duration_manipulation_targetAtFixation,jsons/VE125_randls_72.json,http://54.235.29.9/FacialAge/BNav_EC2/DepthDuration/v2_depth_duration_MTurk/v2_DepthDuration_HTML.html#126,126,1280,781,1024,768,8-29-2022,10-41-49,115,depth_duration_stimuli/003495_2014-05-21_16-01-51_094959634447_rgbf000100-resize_3/003495_2014-05-21_16-01-51_094959634447_rgbf000100-resize_3-target.png,125,1.6255,1,2199,116,meters,jsons/VE125_randls_72.json,435341,2512330,24,Man
115,987560,DepthScenes,duration_manipulation_targetAtFixation,jsons/VE125_randls_72.json,http://54.235.29.9/FacialAge/BNav_EC2/DepthDuration/v2_depth_duration_MTurk/v2_DepthDuration_HTML.html#126,126,1280,781,1024,768,8-29-2022,10-41-49,116,depth_duration_stimuli/001170_2014-06-17_15-43-44_260595134347_rgbf000096-resize_6/001170_2014-06-17_15-43-44_260595134347_rgbf000096-resize-original.jpg,125,1.1909999999999998,1,1618,124,meters,jsons/VE125_randls_72.json,435341,2512330,24,Man
116,987560,DepthScenes,duration_manipulation_targetAtFixation,jsons/VE125_randls_72.json,http://54.235.29.9/FacialAge/BNav_EC2/DepthDuration/v2_depth_duration_MTurk/v2_DepthDuration_HTML.html#126,126,1280,781,1024,768,8-29-2022,10-41-49,117,depth_duration_stimuli/003534_2014-05-22_15-06-10_094959634447_rgbf000102-resize_4/003534_2014-05-22_15-06-10_094959634447_rgbf000102-resize_4-target.png,125,1.426,0,1907,124,meters,jsons/VE125_randls_72.json,435341,2512330,24,Man
117,987560,DepthScenes,duration_manipulation_targetAtFixation,jsons/VE125_randls_72.json,http://54.235.29.9/FacialAge/BNav_EC2/DepthDuration/v2_depth_duration_MTurk/v2_DepthDuration_HTML.html#126,126,1280,781,1024,768,8-29-2022,10-41-49,118,depth_duration_stimuli/002637_2014-06-24_14-51-13_094959634447_rgbf000066-resize_4/002637_2014-06-24_14-51-13_094959634447_rgbf000066-resize_4-target.png,125,1.9955,0,1776,126,meters,jsons/VE125_randls_72.json,435341,2512330,24,Man
118,987560,DepthScenes,duration_manipulation_targetAtFixation,jsons/VE125_randls_72.json,http://54.235.29.9/FacialAge/BNav_EC2/DepthDuration/v2_depth_duration_MTurk/v2_DepthDuration_HTML.html#126,126,1280,781,1024,768,8-29-2022,10-41-49,119,depth_duration_stimuli/002279_2014-06-28_18-55-32_260595134347_rgbf000040-resize_5/002279_2014-06-28_18-55-32_260595134347_rgbf000040-resize_5-target.png,125,1.5043333333333,1,2450,125,meters,jsons/VE125_randls_72.json,435341,2512330,24,Man
119,987560,DepthScenes,duration_manipulation_targetAtFixation,jsons/VE125_randls_72.json,http://54.235.29.9/FacialAge/BNav_EC2/DepthDuration/v2_depth_duration_MTurk/v2_DepthDuration_HTML.html#126,126,1280,781,1024,768,8-29-2022,10-41-49,120,depth_duration_stimuli/000635_2014-06-08_16-38-42_260595134347_rgbf000106-resize_1/000635_2014-06-08_16-38-42_260595134347_rgbf000106-resize_1-target.png,125,2.074,0,1907,124,meters,jsons/VE125_randls_72.json,435341,2512330,24,Man
120,987560,DepthScenes,duration_manipulation_targetAtFixation,jsons/VE125_randls_72.json,http://54.235.29.9/FacialAge/BNav_EC2/DepthDuration/v2_depth_duration_MTurk/v2_DepthDuration_HTML.html#126,126,1280,781,1024,768,8-29-2022,10-41-49,121,depth_duration_stimuli/002272_2014-06-28_18-53-56_260595134347_rgbf000067-resize_2/002272_2014-06-28_18-53-56_260595134347_rgbf000067-resize_2-target.png,125,1.138,1,2009,112,meters,jsons/VE125_randls_72.json,435341,2512330,24,Man
121,987560,DepthScenes,duration_manipulation_targetAtFixation,jsons/VE125_randls_72.json,http://54.235.29.9/FacialAge/BNav_EC2/DepthDuration/v2_depth_duration_MTurk/v2_DepthDuration_HTML.html#126,126,1280,781,1024,768,8-29-2022,10-41-49,122,depth_duration_stimuli/001571_2014-06-20_17-21-32_260595134347_rgbf000089-resize_1/001571_2014-06-20_17-21-32_260595134347_rgbf000089-resize_1-target.png,125,1.86,0,1939,123,meters,jsons/VE125_randls_72.json,435341,2512330,24,Man
122,987560,DepthScenes,duration_manipulation_targetAtFixation,jsons/VE125_randls_72.json,http://54.235.29.9/FacialAge/BNav_EC2/DepthDuration/v2_depth_duration_MTurk/v2_DepthDuration_HTML.html#126,126,1280,781,1024,768,8-29-2022,10-41-49,123,depth_duration_stimuli/001011_2014-06-08_23-18-54_260595134347_rgbf000044-resize_4/001011_2014-06-08_23-18-54_260595134347_rgbf000044-resize_4-target.png,125,2.4730000000000003,1,2488,124,meters,jsons/VE125_randls_72.json,435341,2512330,24,Man
123,987560,DepthScenes,duration_manipulation_targetAtFixation,jsons/VE125_randls_72.json,http://54.235.29.9/FacialAge/BNav_EC2/DepthDuration/v2_depth_duration_MTurk/v2_DepthDuration_HTML.html#126,126,1280,781,1024,768,8-29-2022,10-41-49,124,depth_duration_stimuli/002875_2014-06-01_15-19-00_094959634447_rgbf000151-resize_1/002875_2014-06-01_15-19-00_094959634447_rgbf000151-resize_1-target.png,125,1.9675,1,1487,125,meters,jsons/VE125_randls_72.json,435341,2512330,24,Man
124,987560,DepthScenes,duration_manipulation_targetAtFixation,jsons/VE125_randls_72.json,http://54.235.29.9/FacialAge/BNav_EC2/DepthDuration/v2_depth_duration_MTurk/v2_DepthDuration_HTML.html#126,126,1280,781,1024,768,8-29-2022,10-41-49,125,depth_duration_stimuli/000773_2014-06-08_22-24-54_260595134347_rgbf000093-resize_1/000773_2014-06-08_22-24-54_260595134347_rgbf000093-resize_1-target.png,125,4.973,1,3147,123,meters,jsons/VE125_randls_72.json,435341,2512330,24,Man
125,987560,DepthScenes,duration_manipulation_targetAtFixation,jsons/VE125_randls_72.json,http://54.235.29.9/FacialAge/BNav_EC2/DepthDuration/v2_depth_duration_MTurk/v2_DepthDuration_HTML.html#126,126,1280,781,1024,768,8-29-2022,10-41-49,126,depth_duration_stimuli/002414_2014-06-28_20-24-58_260595134347_rgbf000067-resize_4/002414_2014-06-28_20-24-58_260595134347_rgbf000067-resize_4-target.png,125,4.363,0,2523,121,meters,jsons/VE125_randls_72.json,435341,2512330,24,Man
126,987560,DepthScenes,duration_manipulation_targetAtFixation,jsons/VE125_randls_72.json,http://54.235.29.9/FacialAge/BNav_EC2/DepthDuration/v2_depth_duration_MTurk/v2_DepthDuration_HTML.html#126,126,1280,781,1024,768,8-29-2022,10-41-49,127,depth_duration_stimuli/001055_2014-06-08_18-45-35_260595134347_rgbf000111-resize_4/001055_2014-06-08_18-45-35_260595134347_rgbf000111-resize_4-target.png,125,2.4290000000000003,1,1443,123,meters,jsons/VE125_randls_72.json,435341,2512330,24,Man
127,987560,DepthScenes,duration_manipulation_targetAtFixation,jsons/VE125_randls_72.json,http://54.235.29.9/FacialAge/BNav_EC2/DepthDuration/v2_depth_duration_MTurk/v2_DepthDuration_HTML.html#126,126,1280,781,1024,768,8-29-2022,10-41-49,128,depth_duration_stimuli/000549_2014-06-08_22-10-24_260595134347_rgbf000247-resize_3/000549_2014-06-08_22-10-24_260595134347_rgbf000247-resize_3-target.png,125,1.841,1,2605,126,meters,jsons/VE125_randls_72.json,435341,2512330,24,Man
128,987560,DepthScenes,duration_manipulation_targetAtFixation,jsons/VE125_randls_72.json,http://54.235.29.9/FacialAge/BNav_EC2/DepthDuration/v2_depth_duration_MTurk/v2_DepthDuration_HTML.html#126,126,1280,781,1024,768,8-29-2022,10-41-49,129,depth_duration_stimuli/000917_2014-06-09_22-45-29_260595134347_rgbf000149-resize_3/000917_2014-06-09_22-45-29_260595134347_rgbf000149-resize_3-target.png,125,4.1865,1,1482,124,meters,jsons/VE125_randls_72.json,435341,2512330,24,Man
129,987560,DepthScenes,duration_manipulation_targetAtFixation,jsons/VE125_randls_72.json,http://54.235.29.9/FacialAge/BNav_EC2/DepthDuration/v2_depth_duration_MTurk/v2_DepthDuration_HTML.html#126,126,1280,781,1024,768,8-29-2022,10-41-49,130,depth_duration_stimuli/002323_2014-06-28_20-01-54_260595134347_rgbf000051-resize_4/002323_2014-06-28_20-01-54_260595134347_rgbf000051-resize_4-target.png,125,3.7310000000000003,1,1639,123,meters,jsons/VE125_randls_72.json,435341,2512330,24,Man
130,987560,DepthScenes,duration_manipulation_targetAtFixation,jsons/VE125_randls_72.json,http://54.235.29.9/FacialAge/BNav_EC2/DepthDuration/v2_depth_duration_MTurk/v2_DepthDuration_HTML.html#126,126,1280,781,1024,768,8-29-2022,10-41-49,131,depth_duration_stimuli/002057_2014-06-24_21-00-13_260595134347_rgbf000120-resize_1/002057_2014-06-24_21-00-13_260595134347_rgbf000120-resize_1-target.png,125,2.967,1,1439,125,meters,jsons/VE125_randls_72.json,435341,2512330,24,Man
131,987560,DepthScenes,duration_manipulation_targetAtFixation,jsons/VE125_randls_72.json,http://54.235.29.9/FacialAge/BNav_EC2/DepthDuration/v2_depth_duration_MTurk/v2_DepthDuration_HTML.html#126,126,1280,781,1024,768,8-29-2022,10-41-49,132,depth_duration_stimuli/000709_2014-06-08_13-51-55_260595134347_rgbf000068-resize_3/000709_2014-06-08_13-51-55_260595134347_rgbf000068-resize_3-target.png,125,1.8030000000000002,0,1625,123,meters,jsons/VE125_randls_72.json,435341,2512330,24,Man
132,987560,DepthScenes,duration_manipulation_targetAtFixation,jsons/VE125_randls_72.json,http://54.235.29.9/FacialAge/BNav_EC2/DepthDuration/v2_depth_duration_MTurk/v2_DepthDuration_HTML.html#126,126,1280,781,1024,768,8-29-2022,10-41-49,133,depth_duration_stimuli/002989_2014-06-15_12-25-03_094959634447_rgbf000150-resize_3/002989_2014-06-15_12-25-03_094959634447_rgbf000150-resize_3-target.png,125,4.1975,1,2185,124,meters,jsons/VE125_randls_72.json,435341,2512330,24,Man
133,987560,DepthScenes,duration_manipulation_targetAtFixation,jsons/VE125_randls_72.json,http://54.235.29.9/FacialAge/BNav_EC2/DepthDuration/v2_depth_duration_MTurk/v2_DepthDuration_HTML.html#126,126,1280,781,1024,768,8-29-2022,10-41-49,134,depth_duration_stimuli/000866_2014-06-09_20-45-42_260595134347_rgbf000139-resize_1/000866_2014-06-09_20-45-42_260595134347_rgbf000139-resize_1-target.png,125,3.2155,0,2196,119,meters,jsons/VE125_randls_72.json,435341,2512330,24,Man
134,987560,DepthScenes,duration_manipulation_targetAtFixation,jsons/VE125_randls_72.json,http://54.235.29.9/FacialAge/BNav_EC2/DepthDuration/v2_depth_duration_MTurk/v2_DepthDuration_HTML.html#126,126,1280,781,1024,768,8-29-2022,10-41-49,135,depth_duration_stimuli/002072_2014-06-24_21-48-06_260595134347_rgbf000115-resize_0/002072_2014-06-24_21-48-06_260595134347_rgbf000115-resize-original.jpg,125,4.702,0,1496,123,meters,jsons/VE125_randls_72.json,435341,2512330,24,Man
135,987560,DepthScenes,duration_manipulation_targetAtFixation,jsons/VE125_randls_72.json,http://54.235.29.9/FacialAge/BNav_EC2/DepthDuration/v2_depth_duration_MTurk/v2_DepthDuration_HTML.html#126,126,1280,781,1024,768,8-29-2022,10-41-49,136,depth_duration_stimuli/001133_2014-06-17_14-49-16_260595134347_rgbf000100-resize_0/001133_2014-06-17_14-49-16_260595134347_rgbf000100-resize_0-target.png,125,4.2115,0,1860,119,meters,jsons/VE125_randls_72.json,435341,2512330,24,Man
136,987560,DepthScenes,duration_manipulation_targetAtFixation,jsons/VE125_randls_72.json,http://54.235.29.9/FacialAge/BNav_EC2/DepthDuration/v2_depth_duration_MTurk/v2_DepthDuration_HTML.html#126,126,1280,781,1024,768,8-29-2022,10-41-49,137,depth_duration_stimuli/001132_2014-06-17_14-48-54_260595134347_rgbf000100-resize_2/001132_2014-06-17_14-48-54_260595134347_rgbf000100-resize_2-target.png,125,3.753,0,3419,119,meters,jsons/VE125_randls_72.json,435341,2512330,24,Man
137,987560,DepthScenes,duration_manipulation_targetAtFixation,jsons/VE125_randls_72.json,http://54.235.29.9/FacialAge/BNav_EC2/DepthDuration/v2_depth_duration_MTurk/v2_DepthDuration_HTML.html#126,126,1280,781,1024,768,8-29-2022,10-41-49,138,depth_duration_stimuli/000469_2014-06-09_19-42-10_260595134347_rgbf000081-resize_1/000469_2014-06-09_19-42-10_260595134347_rgbf000081-resize_1-target.png,125,1.652,0,3878,126,meters,jsons/VE125_randls_72.json,435341,2512330,24,Man
138,987560,DepthScenes,duration_manipulation_targetAtFixation,jsons/VE125_randls_72.json,http://54.235.29.9/FacialAge/BNav_EC2/DepthDuration/v2_depth_duration_MTurk/v2_DepthDuration_HTML.html#126,126,1280,781,1024,768,8-29-2022,10-41-49,139,depth_duration_stimuli/000483_2014-06-09_20-41-45_260595134347_rgbf000116-resize_4/000483_2014-06-09_20-41-45_260595134347_rgbf000116-resize_4-target.png,125,1.337,0,2070,77,meters,jsons/VE125_randls_72.json,435341,2512330,24,Man
139,987560,DepthScenes,duration_manipulation_targetAtFixation,jsons/VE125_randls_72.json,http://54.235.29.9/FacialAge/BNav_EC2/DepthDuration/v2_depth_duration_MTurk/v2_DepthDuration_HTML.html#126,126,1280,781,1024,768,8-29-2022,10-41-49,140,depth_duration_stimuli/001417_2014-06-19_16-25-36_260595134347_rgbf000115-resize_5/001417_2014-06-19_16-25-36_260595134347_rgbf000115-resize_5-target.png,125,4.6255,0,1881,121,meters,jsons/VE125_randls_72.json,435341,2512330,24,Man
140,987560,DepthScenes,duration_manipulation_targetAtFixation,jsons/VE125_randls_72.json,http://54.235.29.9/FacialAge/BNav_EC2/DepthDuration/v2_depth_duration_MTurk/v2_DepthDuration_HTML.html#126,126,1280,781,1024,768,8-29-2022,10-41-49,141,depth_duration_stimuli/003081_2014-06-15_15-19-16_094959634447_rgbf000150-resize_1/003081_2014-06-15_15-19-16_094959634447_rgbf000150-resize_1-target.png,125,3.9125,1,1609,123,meters,jsons/VE125_randls_72.json,435341,2512330,24,Man
141,987560,DepthScenes,duration_manipulation_targetAtFixation,jsons/VE125_randls_72.json,http://54.235.29.9/FacialAge/BNav_EC2/DepthDuration/v2_depth_duration_MTurk/v2_DepthDuration_HTML.html#126,126,1280,781,1024,768,8-29-2022,10-41-49,142,depth_duration_stimuli/002375_2014-06-28_20-13-44_260595134347_rgbf000032-resize_1/002375_2014-06-28_20-13-44_260595134347_rgbf000032-resize_1-target.png,125,4.0175,1,1719,125,meters,jsons/VE125_randls_72.json,435341,2512330,24,Man
142,987560,DepthScenes,duration_manipulation_targetAtFixation,jsons/VE125_randls_72.json,http://54.235.29.9/FacialAge/BNav_EC2/DepthDuration/v2_depth_duration_MTurk/v2_DepthDuration_HTML.html#126,126,1280,781,1024,768,8-29-2022,10-41-49,143,depth_duration_stimuli/002657_2014-06-13_15-29-54_094959634447_rgbf000150-resize_1/002657_2014-06-13_15-29-54_094959634447_rgbf000150-resize_1-target.png,125,4.919,1,1438,204,meters,jsons/VE125_randls_72.json,435341,2512330,24,Man
143,987560,DepthScenes,duration_manipulation_targetAtFixation,jsons/VE125_randls_72.json,http://54.235.29.9/FacialAge/BNav_EC2/DepthDuration/v2_depth_duration_MTurk/v2_DepthDuration_HTML.html#126,126,1280,781,1024,768,8-29-2022,10-41-49,144,depth_duration_stimuli/000810_2014-06-08_17-20-01_260595134347_rgbf000105-resize_0/000810_2014-06-08_17-20-01_260595134347_rgbf000105-resize_0-target.png,125,1.4865,0,2368,125,meters,jsons/VE125_randls_72.json,435341,2512330,24,Man
144,987560,DepthScenes,duration_manipulation_targetAtFixation,jsons/VE125_randls_72.json,http://54.235.29.9/FacialAge/BNav_EC2/DepthDuration/v2_depth_duration_MTurk/v2_DepthDuration_HTML.html#126,126,1280,781,1024,768,8-29-2022,10-41-49,145,depth_duration_stimuli/001214_2014-06-17_16-13-55_260595134347_rgbf000111-resize_0/001214_2014-06-17_16-13-55_260595134347_rgbf000111-resize_0-target.png,125,2.6505,0,2044,132,meters,jsons/VE125_randls_72.json,435341,2512330,24,Man
145,987560,DepthScenes,duration_manipulation_targetAtFixation,jsons/VE125_randls_72.json,http://54.235.29.9/FacialAge/BNav_EC2/DepthDuration/v2_depth_duration_MTurk/v2_DepthDuration_HTML.html#126,126,1280,781,1024,768,8-29-2022,10-41-49,146,depth_duration_stimuli/001498_2014-06-19_17-45-14_260595134347_rgbf000129-resize_4/001498_2014-06-19_17-45-14_260595134347_rgbf000129-resize-original.jpg,125,1.4075,0,1449,123,meters,jsons/VE125_randls_72.json,435341,2512330,24,Man
146,987560,DepthScenes,duration_manipulation_targetAtFixation,jsons/VE125_randls_72.json,http://54.235.29.9/FacialAge/BNav_EC2/DepthDuration/v2_depth_duration_MTurk/v2_DepthDuration_HTML.html#126,126,1280,781,1024,768,8-29-2022,10-41-49,147,depth_duration_stimuli/002570_2014-06-24_13-59-54_094959634447_rgbf000059-resize_0/002570_2014-06-24_13-59-54_094959634447_rgbf000059-resize_0-target.png,125,4.037,1,1846,126,meters,jsons/VE125_randls_72.json,435341,2512330,24,Man
147,987560,DepthScenes,duration_manipulation_targetAtFixation,jsons/VE125_randls_72.json,http://54.235.29.9/FacialAge/BNav_EC2/DepthDuration/v2_depth_duration_MTurk/v2_DepthDuration_HTML.html#126,126,1280,781,1024,768,8-29-2022,10-41-49,148,depth_duration_stimuli/002467_2014-06-28_20-38-07_260595134347_rgbf000026-resize_2/002467_2014-06-28_20-38-07_260595134347_rgbf000026-resize_2-target.png,125,4.742,1,1459,125,meters,jsons/VE125_randls_72.json,435341,2512330,24,Man
148,987560,DepthScenes,duration_manipulation_targetAtFixation,jsons/VE125_randls_72.json,http://54.235.29.9/FacialAge/BNav_EC2/DepthDuration/v2_depth_duration_MTurk/v2_DepthDuration_HTML.html#126,126,1280,781,1024,768,8-29-2022,10-41-49,149,depth_duration_stimuli/001066_2014-06-08_22-03-20_260595134347_rgbf000066-resize_4/001066_2014-06-08_22-03-20_260595134347_rgbf000066-resize_4-target.png,125,4.2330000000000005,1,1267,118,meters,jsons/VE125_randls_72.json,435341,2512330,24,Man
149,987560,DepthScenes,duration_manipulation_targetAtFixation,jsons/VE125_randls_72.json,http://54.235.29.9/FacialAge/BNav_EC2/DepthDuration/v2_depth_duration_MTurk/v2_DepthDuration_HTML.html#126,126,1280,781,1024,768,8-29-2022,10-41-49,150,depth_duration_stimuli/000742_2014-06-08_18-48-09_260595134347_rgbf000164-resize_4/000742_2014-06-08_18-48-09_260595134347_rgbf000164-resize_4-target.png,125,4.632,0,3654,124,meters,jsons/VE125_randls_72.json,435341,2512330,24,Man
150,987560,DepthScenes,duration_manipulation_targetAtFixation,jsons/VE125_randls_72.json,http://54.235.29.9/FacialAge/BNav_EC2/DepthDuration/v2_depth_duration_MTurk/v2_DepthDuration_HTML.html#126,126,1280,781,1024,768,8-29-2022,10-41-49,151,depth_duration_stimuli/000436_2014-06-09_22-25-11_260595134347_rgbf000137-resize_1/000436_2014-06-09_22-25-11_260595134347_rgbf000137-resize_1-target.png,125,4.0705,1,1565,125,meters,jsons/VE125_randls_72.json,435341,2512330,24,Man
151,987560,DepthScenes,duration_manipulation_targetAtFixation,jsons/VE125_randls_72.json,http://54.235.29.9/FacialAge/BNav_EC2/DepthDuration/v2_depth_duration_MTurk/v2_DepthDuration_HTML.html#126,126,1280,781,1024,768,8-29-2022,10-41-49,152,depth_duration_stimuli/002444_2014-06-28_20-32-08_260595134347_rgbf000027-resize_0/002444_2014-06-28_20-32-08_260595134347_rgbf000027-resize_0-target.png,125,4.388999999999999,1,1929,124,meters,jsons/VE125_randls_72.json,435341,2512330,24,Man
152,987560,DepthScenes,duration_manipulation_targetAtFixation,jsons/VE125_randls_72.json,http://54.235.29.9/FacialAge/BNav_EC2/DepthDuration/v2_depth_duration_MTurk/v2_DepthDuration_HTML.html#126,126,1280,781,1024,768,8-29-2022,10-41-49,153,depth_duration_stimuli/000447_2014-06-08_16-15-46_260595134347_rgbf000130-resize_1/000447_2014-06-08_16-15-46_260595134347_rgbf000130-resize_1-target.png,125,4.479,1,1658,127,meters,jsons/VE125_randls_72.json,435341,2512330,24,Man
153,987560,DepthScenes,duration_manipulation_targetAtFixation,jsons/VE125_randls_72.json,http://54.235.29.9/FacialAge/BNav_EC2/DepthDuration/v2_depth_duration_MTurk/v2_DepthDuration_HTML.html#126,126,1280,781,1024,768,8-29-2022,10-41-49,154,depth_duration_stimuli/001447_2014-06-19_17-00-32_260595134347_rgbf000082-resize_5/001447_2014-06-19_17-00-32_260595134347_rgbf000082-resize_5-target.png,125,4.13775,1,2090,122,meters,jsons/VE125_randls_72.json,435341,2512330,24,Man
154,987560,DepthScenes,duration_manipulation_targetAtFixation,jsons/VE125_randls_72.json,http://54.235.29.9/FacialAge/BNav_EC2/DepthDuration/v2_depth_duration_MTurk/v2_DepthDuration_HTML.html#126,126,1280,781,1024,768,8-29-2022,10-41-49,155,depth_duration_stimuli/002763_2014-06-22_19-13-10_094959634447_rgbf000075-resize_4/002763_2014-06-22_19-13-10_094959634447_rgbf000075-resize_4-target.png,125,1.68375,1,1614,123,meters,jsons/VE125_randls_72.json,435341,2512330,24,Man
155,987560,DepthScenes,duration_manipulation_targetAtFixation,jsons/VE125_randls_72.json,http://54.235.29.9/FacialAge/BNav_EC2/DepthDuration/v2_depth_duration_MTurk/v2_DepthDuration_HTML.html#126,126,1280,781,1024,768,8-29-2022,10-41-49,156,depth_duration_stimuli/002209_2014-06-28_18-36-10_260595134347_rgbf000051-resize_1/002209_2014-06-28_18-36-10_260595134347_rgbf000051-resize_1-target.png,125,2.057,1,2076,123,meters,jsons/VE125_randls_72.json,435341,2512330,24,Man
156,987560,DepthScenes,duration_manipulation_targetAtFixation,jsons/VE125_randls_72.json,http://54.235.29.9/FacialAge/BNav_EC2/DepthDuration/v2_depth_duration_MTurk/v2_DepthDuration_HTML.html#126,126,1280,781,1024,768,8-29-2022,10-41-49,157,depth_duration_stimuli/000368_2014-06-09_15-53-01_260595134347_rgbf000155-resize_2/000368_2014-06-09_15-53-01_260595134347_rgbf000155-resize_2-target.png,125,2.4859999999999998,1,1500,124,meters,jsons/VE125_randls_72.json,435341,2512330,24,Man
157,987560,DepthScenes,duration_manipulation_targetAtFixation,jsons/VE125_randls_72.json,http://54.235.29.9/FacialAge/BNav_EC2/DepthDuration/v2_depth_duration_MTurk/v2_DepthDuration_HTML.html#126,126,1280,781,1024,768,8-29-2022,10-41-49,158,depth_duration_stimuli/002678_2014-06-13_16-15-32_094959634447_rgbf000151-resize_6/002678_2014-06-13_16-15-32_094959634447_rgbf000151-resize_6-target.png,125,2.1830000000000003,0,3104,124,meters,jsons/VE125_randls_72.json,435341,2512330,24,Man
158,987560,DepthScenes,duration_manipulation_targetAtFixation,jsons/VE125_randls_72.json,http://54.235.29.9/FacialAge/BNav_EC2/DepthDuration/v2_depth_duration_MTurk/v2_DepthDuration_HTML.html#126,126,1280,781,1024,768,8-29-2022,10-41-49,159,depth_duration_stimuli/001810_2014-06-26_20-51-35_260595134347_rgbf000040-resize_3/001810_2014-06-26_20-51-35_260595134347_rgbf000040-resize_3-target.png,125,2.2525,1,2904,123,meters,jsons/VE125_randls_72.json,435341,2512330,24,Man
159,987560,DepthScenes,duration_manipulation_targetAtFixation,jsons/VE125_randls_72.json,http://54.235.29.9/FacialAge/BNav_EC2/DepthDuration/v2_depth_duration_MTurk/v2_DepthDuration_HTML.html#126,126,1280,781,1024,768,8-29-2022,10-41-49,160,depth_duration_stimuli/003010_2014-06-15_12-54-35_094959634447_rgbf000112-resize_0/003010_2014-06-15_12-54-35_094959634447_rgbf000112-resize_0-target.png,125,3.1185,0,1755,131,meters,jsons/VE125_randls_72.json,435341,2512330,24,Man
160,987560,DepthScenes,duration_manipulation_targetAtFixation,jsons/VE125_randls_72.json,http://54.235.29.9/FacialAge/BNav_EC2/DepthDuration/v2_depth_duration_MTurk/v2_DepthDuration_HTML.html#126,126,1280,781,1024,768,8-29-2022,10-41-49,161,depth_duration_stimuli/000758_2014-06-08_22-05-08_260595134347_rgbf000085-resize_0/000758_2014-06-08_22-05-08_260595134347_rgbf000085-resize_0-target.png,125,3.3810000000000002,1,1562,118,meters,jsons/VE125_randls_72.json,435341,2512330,24,Man
161,987560,DepthScenes,duration_manipulation_targetAtFixation,jsons/VE125_randls_72.json,http://54.235.29.9/FacialAge/BNav_EC2/DepthDuration/v2_depth_duration_MTurk/v2_DepthDuration_HTML.html#126,126,1280,781,1024,768,8-29-2022,10-41-49,162,depth_duration_stimuli/000854_2014-06-09_19-43-13_260595134347_rgbf000066-resize_0/000854_2014-06-09_19-43-13_260595134347_rgbf000066-resize_0-target.png,125,3.068,0,1567,122,meters,jsons/VE125_randls_72.json,435341,2512330,24,Man
162,987560,DepthScenes,duration_manipulation_targetAtFixation,jsons/VE125_randls_72.json,http://54.235.29.9/FacialAge/BNav_EC2/DepthDuration/v2_depth_duration_MTurk/v2_DepthDuration_HTML.html#126,126,1280,781,1024,768,8-29-2022,10-41-49,163,depth_duration_stimuli/003292_2014-05-14_21-53-49_094959634447_rgbf000100-resize_2/003292_2014-05-14_21-53-49_094959634447_rgbf000100-resize_2-target.png,125,3.4815,1,1438,121,meters,jsons/VE125_randls_72.json,435341,2512330,24,Man
163,987560,DepthScenes,duration_manipulation_targetAtFixation,jsons/VE125_randls_72.json,http://54.235.29.9/FacialAge/BNav_EC2/DepthDuration/v2_depth_duration_MTurk/v2_DepthDuration_HTML.html#126,126,1280,781,1024,768,8-29-2022,10-41-49,164,depth_duration_stimuli/002639_2014-06-24_14-51-37_094959634447_rgbf000074-resize_4/002639_2014-06-24_14-51-37_094959634447_rgbf000074-resize_4-target.png,125,4.0375,1,1693,123,meters,jsons/VE125_randls_72.json,435341,2512330,24,Man
