,subjID,experimentName,versionName,sequenceName,url,selected_row,windowWidth,windowHeight,screenWidth,screenHeight,startDate,startTime,trial,stimulus,duration,actual_depth,depth_estimate,trial_RT,log_sceneDuration,unitSelection,seq_filepath,experimentTime,totalTime,age,gender
0,988435,DepthScenes,duration_manipulation_targetAtFixation,jsons/v1_VE250_randls_38.json,http://54.235.29.9/FacialAge/BNav_EC2/DepthDuration/v2_depth_duration_MTurk/v2_DepthDuration_HTML.html#24,24,1440,789,1440,900,8-20-2022,11-1-7,1,depth_duration_stimuli/001199_2014-06-17_16-03-48_260595134347_rgbf000077-resize_0/001199_2014-06-17_16-03-48_260595134347_rgbf000077-resize_0-target.png,250,3.4375,9.0,2747,250,meters,jsons/v1_VE250_randls_38.json,389198,2874272,46,Woman
1,988435,DepthScenes,duration_manipulation_targetAtFixation,jsons/v1_VE250_randls_38.json,http://54.235.29.9/FacialAge/BNav_EC2/DepthDuration/v2_depth_duration_MTurk/v2_DepthDuration_HTML.html#24,24,1440,789,1440,900,8-20-2022,11-1-7,2,depth_duration_stimuli/000502_2014-06-08_23-02-32_260595134347_rgbf000063-resize_4/000502_2014-06-08_23-02-32_260595134347_rgbf000063-resize_4-target.png,250,2.431,8.0,1754,251,meters,jsons/v1_VE250_randls_38.json,389198,2874272,46,Woman
2,988435,DepthScenes,duration_manipulation_targetAtFixation,jsons/v1_VE250_randls_38.json,http://54.235.29.9/FacialAge/BNav_EC2/DepthDuration/v2_depth_duration_MTurk/v2_DepthDuration_HTML.html#24,24,1440,789,1440,900,8-20-2022,11-1-7,3,depth_duration_stimuli/002279_2014-06-28_18-55-32_260595134347_rgbf000040-resize_5/002279_2014-06-28_18-55-32_260595134347_rgbf000040-resize_5-target.png,250,1.5043333333333,7.0,1714,249,meters,jsons/v1_VE250_randls_38.json,389198,2874272,46,Woman
3,988435,DepthScenes,duration_manipulation_targetAtFixation,jsons/v1_VE250_randls_38.json,http://54.235.29.9/FacialAge/BNav_EC2/DepthDuration/v2_depth_duration_MTurk/v2_DepthDuration_HTML.html#24,24,1440,789,1440,900,8-20-2022,11-1-7,4,depth_duration_stimuli/000635_2014-06-08_16-38-42_260595134347_rgbf000106-resize_1/000635_2014-06-08_16-38-42_260595134347_rgbf000106-resize_1-target.png,250,2.074,6.0,1788,248,meters,jsons/v1_VE250_randls_38.json,389198,2874272,46,Woman
4,988435,DepthScenes,duration_manipulation_targetAtFixation,jsons/v1_VE250_randls_38.json,http://54.235.29.9/FacialAge/BNav_EC2/DepthDuration/v2_depth_duration_MTurk/v2_DepthDuration_HTML.html#24,24,1440,789,1440,900,8-20-2022,11-1-7,5,depth_duration_stimuli/001555_2014-06-20_17-12-10_260595134347_rgbf000065-resize_4/001555_2014-06-20_17-12-10_260595134347_rgbf000065-resize_4-target.png,250,1.633,5.0,1657,249,meters,jsons/v1_VE250_randls_38.json,389198,2874272,46,Woman
5,988435,DepthScenes,duration_manipulation_targetAtFixation,jsons/v1_VE250_randls_38.json,http://54.235.29.9/FacialAge/BNav_EC2/DepthDuration/v2_depth_duration_MTurk/v2_DepthDuration_HTML.html#24,24,1440,789,1440,900,8-20-2022,11-1-7,6,depth_duration_stimuli/000103_2014-05-14_22-01-17_260595134347_rgbf000152-resize_5/000103_2014-05-14_22-01-17_260595134347_rgbf000152-resize_5-target.png,250,1.993,4.0,2659,250,meters,jsons/v1_VE250_randls_38.json,389198,2874272,46,Woman
6,988435,DepthScenes,duration_manipulation_targetAtFixation,jsons/v1_VE250_randls_38.json,http://54.235.29.9/FacialAge/BNav_EC2/DepthDuration/v2_depth_duration_MTurk/v2_DepthDuration_HTML.html#24,24,1440,789,1440,900,8-20-2022,11-1-7,7,depth_duration_stimuli/001011_2014-06-08_23-18-54_260595134347_rgbf000044-resize_4/001011_2014-06-08_23-18-54_260595134347_rgbf000044-resize_4-target.png,250,2.4730000000000003,3.0,2131,249,meters,jsons/v1_VE250_randls_38.json,389198,2874272,46,Woman
7,988435,DepthScenes,duration_manipulation_targetAtFixation,jsons/v1_VE250_randls_38.json,http://54.235.29.9/FacialAge/BNav_EC2/DepthDuration/v2_depth_duration_MTurk/v2_DepthDuration_HTML.html#24,24,1440,789,1440,900,8-20-2022,11-1-7,8,depth_duration_stimuli/002875_2014-06-01_15-19-00_094959634447_rgbf000151-resize_1/002875_2014-06-01_15-19-00_094959634447_rgbf000151-resize_1-target.png,250,1.9675,2.0,1624,249,meters,jsons/v1_VE250_randls_38.json,389198,2874272,46,Woman
8,988435,DepthScenes,duration_manipulation_targetAtFixation,jsons/v1_VE250_randls_38.json,http://54.235.29.9/FacialAge/BNav_EC2/DepthDuration/v2_depth_duration_MTurk/v2_DepthDuration_HTML.html#24,24,1440,789,1440,900,8-20-2022,11-1-7,9,depth_duration_stimuli/001056_2014-06-08_18-46-44_260595134347_rgbf000068-resize_0/001056_2014-06-08_18-46-44_260595134347_rgbf000068-resize_0-target.png,250,2.6625,1.0,1763,256,meters,jsons/v1_VE250_randls_38.json,389198,2874272,46,Woman
9,988435,DepthScenes,duration_manipulation_targetAtFixation,jsons/v1_VE250_randls_38.json,http://54.235.29.9/FacialAge/BNav_EC2/DepthDuration/v2_depth_duration_MTurk/v2_DepthDuration_HTML.html#24,24,1440,789,1440,900,8-20-2022,11-1-7,10,depth_duration_stimuli/002199_2014-06-28_18-33-56_260595134347_rgbf000074-resize_0/002199_2014-06-28_18-33-56_260595134347_rgbf000074-resize_0-target.png,250,1.996,9.0,1729,246,meters,jsons/v1_VE250_randls_38.json,389198,2874272,46,Woman
10,988435,DepthScenes,duration_manipulation_targetAtFixation,jsons/v1_VE250_randls_38.json,http://54.235.29.9/FacialAge/BNav_EC2/DepthDuration/v2_depth_duration_MTurk/v2_DepthDuration_HTML.html#24,24,1440,789,1440,900,8-20-2022,11-1-7,11,depth_duration_stimuli/003621_2014-05-23_18-06-08_094959634447_rgbf000101-resize_1/003621_2014-05-23_18-06-08_094959634447_rgbf000101-resize_1-target.png,250,3.9835,8.0,1585,249,meters,jsons/v1_VE250_randls_38.json,389198,2874272,46,Woman
11,988435,DepthScenes,duration_manipulation_targetAtFixation,jsons/v1_VE250_randls_38.json,http://54.235.29.9/FacialAge/BNav_EC2/DepthDuration/v2_depth_duration_MTurk/v2_DepthDuration_HTML.html#24,24,1440,789,1440,900,8-20-2022,11-1-7,12,depth_duration_stimuli/001584_2014-06-20_11-07-43_260595134347_rgbf000002-resize_1/001584_2014-06-20_11-07-43_260595134347_rgbf000002-resize_1-target.png,250,3.53,7.0,1659,249,meters,jsons/v1_VE250_randls_38.json,389198,2874272,46,Woman
12,988435,DepthScenes,duration_manipulation_targetAtFixation,jsons/v1_VE250_randls_38.json,http://54.235.29.9/FacialAge/BNav_EC2/DepthDuration/v2_depth_duration_MTurk/v2_DepthDuration_HTML.html#24,24,1440,789,1440,900,8-20-2022,11-1-7,13,depth_duration_stimuli/000569_2014-06-09_22-51-47_260595134347_rgbf000141-resize_3/000569_2014-06-09_22-51-47_260595134347_rgbf000141-resize-original.jpg,250,4.512,0.0,1760,250,meters,jsons/v1_VE250_randls_38.json,389198,2874272,46,Woman
13,988435,DepthScenes,duration_manipulation_targetAtFixation,jsons/v1_VE250_randls_38.json,http://54.235.29.9/FacialAge/BNav_EC2/DepthDuration/v2_depth_duration_MTurk/v2_DepthDuration_HTML.html#24,24,1440,789,1440,900,8-20-2022,11-1-7,14,depth_duration_stimuli/000642_2014-06-08_16-59-25_260595134347_rgbf000098-resize_2/000642_2014-06-08_16-59-25_260595134347_rgbf000098-resize_2-target.png,250,2.8815,6.0,1714,250,meters,jsons/v1_VE250_randls_38.json,389198,2874272,46,Woman
14,988435,DepthScenes,duration_manipulation_targetAtFixation,jsons/v1_VE250_randls_38.json,http://54.235.29.9/FacialAge/BNav_EC2/DepthDuration/v2_depth_duration_MTurk/v2_DepthDuration_HTML.html#24,24,1440,789,1440,900,8-20-2022,11-1-7,15,depth_duration_stimuli/002425_2014-06-28_20-27-29_260595134347_rgbf000031-resize_8/002425_2014-06-28_20-27-29_260595134347_rgbf000031-resize_8-target.png,250,3.8960000000000004,5.0,1869,245,meters,jsons/v1_VE250_randls_38.json,389198,2874272,46,Woman
15,988435,DepthScenes,duration_manipulation_targetAtFixation,jsons/v1_VE250_randls_38.json,http://54.235.29.9/FacialAge/BNav_EC2/DepthDuration/v2_depth_duration_MTurk/v2_DepthDuration_HTML.html#24,24,1440,789,1440,900,8-20-2022,11-1-7,16,depth_duration_stimuli/001092_2014-06-15_17-34-58_260595134347_rgbf000171-resize_3/001092_2014-06-15_17-34-58_260595134347_rgbf000171-resize_3-target.png,250,2.6935,4.0,1674,249,meters,jsons/v1_VE250_randls_38.json,389198,2874272,46,Woman
16,988435,DepthScenes,duration_manipulation_targetAtFixation,jsons/v1_VE250_randls_38.json,http://54.235.29.9/FacialAge/BNav_EC2/DepthDuration/v2_depth_duration_MTurk/v2_DepthDuration_HTML.html#24,24,1440,789,1440,900,8-20-2022,11-1-7,17,depth_duration_stimuli/002545_2014-06-24_13-38-53_094959634447_rgbf000080-resize_4/002545_2014-06-24_13-38-53_094959634447_rgbf000080-resize_4-target.png,250,1.9205,3.0,1947,250,meters,jsons/v1_VE250_randls_38.json,389198,2874272,46,Woman
17,988435,DepthScenes,duration_manipulation_targetAtFixation,jsons/v1_VE250_randls_38.json,http://54.235.29.9/FacialAge/BNav_EC2/DepthDuration/v2_depth_duration_MTurk/v2_DepthDuration_HTML.html#24,24,1440,789,1440,900,8-20-2022,11-1-7,18,depth_duration_stimuli/001167_2014-06-17_15-38-07_260595134347_rgbf000108-resize_0/001167_2014-06-17_15-38-07_260595134347_rgbf000108-resize_0-target.png,250,1.8505,2.0,1800,249,meters,jsons/v1_VE250_randls_38.json,389198,2874272,46,Woman
18,988435,DepthScenes,duration_manipulation_targetAtFixation,jsons/v1_VE250_randls_38.json,http://54.235.29.9/FacialAge/BNav_EC2/DepthDuration/v2_depth_duration_MTurk/v2_DepthDuration_HTML.html#24,24,1440,789,1440,900,8-20-2022,11-1-7,19,depth_duration_stimuli/003587_2014-05-23_16-48-02_094959634447_rgbf002384-resize_2/003587_2014-05-23_16-48-02_094959634447_rgbf002384-resize_2-target.png,250,1.357,1.0,1625,249,meters,jsons/v1_VE250_randls_38.json,389198,2874272,46,Woman
19,988435,DepthScenes,duration_manipulation_targetAtFixation,jsons/v1_VE250_randls_38.json,http://54.235.29.9/FacialAge/BNav_EC2/DepthDuration/v2_depth_duration_MTurk/v2_DepthDuration_HTML.html#24,24,1440,789,1440,900,8-20-2022,11-1-7,20,depth_duration_stimuli/000810_2014-06-08_17-20-01_260595134347_rgbf000105-resize_0/000810_2014-06-08_17-20-01_260595134347_rgbf000105-resize_0-target.png,250,1.4865,9.0,2386,249,meters,jsons/v1_VE250_randls_38.json,389198,2874272,46,Woman
20,988435,DepthScenes,duration_manipulation_targetAtFixation,jsons/v1_VE250_randls_38.json,http://54.235.29.9/FacialAge/BNav_EC2/DepthDuration/v2_depth_duration_MTurk/v2_DepthDuration_HTML.html#24,24,1440,789,1440,900,8-20-2022,11-1-7,21,depth_duration_stimuli/001214_2014-06-17_16-13-55_260595134347_rgbf000111-resize_0/001214_2014-06-17_16-13-55_260595134347_rgbf000111-resize_0-target.png,250,2.6505,8.0,1753,249,meters,jsons/v1_VE250_randls_38.json,389198,2874272,46,Woman
21,988435,DepthScenes,duration_manipulation_targetAtFixation,jsons/v1_VE250_randls_38.json,http://54.235.29.9/FacialAge/BNav_EC2/DepthDuration/v2_depth_duration_MTurk/v2_DepthDuration_HTML.html#24,24,1440,789,1440,900,8-20-2022,11-1-7,22,depth_duration_stimuli/000522_2014-06-08_13-35-06_260595134347_rgbf000244-resize_1/000522_2014-06-08_13-35-06_260595134347_rgbf000244-resize_1-target.png,250,2.3715,7.0,1867,248,meters,jsons/v1_VE250_randls_38.json,389198,2874272,46,Woman
22,988435,DepthScenes,duration_manipulation_targetAtFixation,jsons/v1_VE250_randls_38.json,http://54.235.29.9/FacialAge/BNav_EC2/DepthDuration/v2_depth_duration_MTurk/v2_DepthDuration_HTML.html#24,24,1440,789,1440,900,8-20-2022,11-1-7,23,depth_duration_stimuli/002949_2014-06-26_15-57-42_094959634447_rgbf000079-resize_1/002949_2014-06-26_15-57-42_094959634447_rgbf000079-resize_1-target.png,250,1.8915,6.0,2843,250,meters,jsons/v1_VE250_randls_38.json,389198,2874272,46,Woman
23,988435,DepthScenes,duration_manipulation_targetAtFixation,jsons/v1_VE250_randls_38.json,http://54.235.29.9/FacialAge/BNav_EC2/DepthDuration/v2_depth_duration_MTurk/v2_DepthDuration_HTML.html#24,24,1440,789,1440,900,8-20-2022,11-1-7,24,depth_duration_stimuli/002788_2014-06-22_19-36-03_094959634447_rgbf000088-resize_2/002788_2014-06-22_19-36-03_094959634447_rgbf000088-resize_2-target.png,250,1.6465,5.0,1787,249,meters,jsons/v1_VE250_randls_38.json,389198,2874272,46,Woman
24,988435,DepthScenes,duration_manipulation_targetAtFixation,jsons/v1_VE250_randls_38.json,http://54.235.29.9/FacialAge/BNav_EC2/DepthDuration/v2_depth_duration_MTurk/v2_DepthDuration_HTML.html#24,24,1440,789,1440,900,8-20-2022,11-1-7,25,depth_duration_stimuli/000749_2014-06-08_21-55-06_260595134347_rgbf000070-resize_2/000749_2014-06-08_21-55-06_260595134347_rgbf000070-resize_2-target.png,250,2.331,4.0,1794,248,meters,jsons/v1_VE250_randls_38.json,389198,2874272,46,Woman
25,988435,DepthScenes,duration_manipulation_targetAtFixation,jsons/v1_VE250_randls_38.json,http://54.235.29.9/FacialAge/BNav_EC2/DepthDuration/v2_depth_duration_MTurk/v2_DepthDuration_HTML.html#24,24,1440,789,1440,900,8-20-2022,11-1-7,26,depth_duration_stimuli/000493_2014-06-09_21-01-18_260595134347_rgbf000196-resize_3/000493_2014-06-09_21-01-18_260595134347_rgbf000196-resize_3-target.png,250,3.44,3.0,1417,249,meters,jsons/v1_VE250_randls_38.json,389198,2874272,46,Woman
26,988435,DepthScenes,duration_manipulation_targetAtFixation,jsons/v1_VE250_randls_38.json,http://54.235.29.9/FacialAge/BNav_EC2/DepthDuration/v2_depth_duration_MTurk/v2_DepthDuration_HTML.html#24,24,1440,789,1440,900,8-20-2022,11-1-7,27,depth_duration_stimuli/000191_2014-05-12_17-07-38_260595134347_rgbf000199-resize_0/000191_2014-05-12_17-07-38_260595134347_rgbf000199-resize_0-target.png,250,3.7995,2.0,1427,249,meters,jsons/v1_VE250_randls_38.json,389198,2874272,46,Woman
27,988435,DepthScenes,duration_manipulation_targetAtFixation,jsons/v1_VE250_randls_38.json,http://54.235.29.9/FacialAge/BNav_EC2/DepthDuration/v2_depth_duration_MTurk/v2_DepthDuration_HTML.html#24,24,1440,789,1440,900,8-20-2022,11-1-7,28,depth_duration_stimuli/000447_2014-06-08_16-15-46_260595134347_rgbf000130-resize_1/000447_2014-06-08_16-15-46_260595134347_rgbf000130-resize_1-target.png,250,4.479,1.0,1593,250,meters,jsons/v1_VE250_randls_38.json,389198,2874272,46,Woman
28,988435,DepthScenes,duration_manipulation_targetAtFixation,jsons/v1_VE250_randls_38.json,http://54.235.29.9/FacialAge/BNav_EC2/DepthDuration/v2_depth_duration_MTurk/v2_DepthDuration_HTML.html#24,24,1440,789,1440,900,8-20-2022,11-1-7,29,depth_duration_stimuli/001447_2014-06-19_17-00-32_260595134347_rgbf000082-resize_5/001447_2014-06-19_17-00-32_260595134347_rgbf000082-resize_5-target.png,250,4.13775,9.0,1602,249,meters,jsons/v1_VE250_randls_38.json,389198,2874272,46,Woman
29,988435,DepthScenes,duration_manipulation_targetAtFixation,jsons/v1_VE250_randls_38.json,http://54.235.29.9/FacialAge/BNav_EC2/DepthDuration/v2_depth_duration_MTurk/v2_DepthDuration_HTML.html#24,24,1440,789,1440,900,8-20-2022,11-1-7,30,depth_duration_stimuli/000375_2014-06-08_11-17-29_260595134347_rgbf000133-resize_2/000375_2014-06-08_11-17-29_260595134347_rgbf000133-resize-original.jpg,250,4.718,0.0,2200,248,meters,jsons/v1_VE250_randls_38.json,389198,2874272,46,Woman
30,988435,DepthScenes,duration_manipulation_targetAtFixation,jsons/v1_VE250_randls_38.json,http://54.235.29.9/FacialAge/BNav_EC2/DepthDuration/v2_depth_duration_MTurk/v2_DepthDuration_HTML.html#24,24,1440,789,1440,900,8-20-2022,11-1-7,31,depth_duration_stimuli/000470_2014-06-09_19-42-40_260595134347_rgbf000094-resize_1/000470_2014-06-09_19-42-40_260595134347_rgbf000094-resize_1-target.png,250,1.831,8.0,1683,250,meters,jsons/v1_VE250_randls_38.json,389198,2874272,46,Woman
31,988435,DepthScenes,duration_manipulation_targetAtFixation,jsons/v1_VE250_randls_38.json,http://54.235.29.9/FacialAge/BNav_EC2/DepthDuration/v2_depth_duration_MTurk/v2_DepthDuration_HTML.html#24,24,1440,789,1440,900,8-20-2022,11-1-7,32,depth_duration_stimuli/000109_2014-05-14_23-41-52_260595134347_rgbf000035-resize_9/000109_2014-05-14_23-41-52_260595134347_rgbf000035-resize_9-target.png,250,1.3545,7.0,1954,251,meters,jsons/v1_VE250_randls_38.json,389198,2874272,46,Woman
32,988435,DepthScenes,duration_manipulation_targetAtFixation,jsons/v1_VE250_randls_38.json,http://54.235.29.9/FacialAge/BNav_EC2/DepthDuration/v2_depth_duration_MTurk/v2_DepthDuration_HTML.html#24,24,1440,789,1440,900,8-20-2022,11-1-7,33,depth_duration_stimuli/002964_2014-06-08_17-46-11_094959634447_rgbf000091-resize_4/002964_2014-06-08_17-46-11_094959634447_rgbf000091-resize_4-target.png,250,1.6909999999999998,6.0,1635,250,meters,jsons/v1_VE250_randls_38.json,389198,2874272,46,Woman
33,988435,DepthScenes,duration_manipulation_targetAtFixation,jsons/v1_VE250_randls_38.json,http://54.235.29.9/FacialAge/BNav_EC2/DepthDuration/v2_depth_duration_MTurk/v2_DepthDuration_HTML.html#24,24,1440,789,1440,900,8-20-2022,11-1-7,34,depth_duration_stimuli/002136_2014-06-25_21-18-03_260595134347_rgbf000109-resize_3/002136_2014-06-25_21-18-03_260595134347_rgbf000109-resize_3-target.png,250,1.9569999999999999,5.0,1297,248,meters,jsons/v1_VE250_randls_38.json,389198,2874272,46,Woman
34,988435,DepthScenes,duration_manipulation_targetAtFixation,jsons/v1_VE250_randls_38.json,http://54.235.29.9/FacialAge/BNav_EC2/DepthDuration/v2_depth_duration_MTurk/v2_DepthDuration_HTML.html#24,24,1440,789,1440,900,8-20-2022,11-1-7,35,depth_duration_stimuli/002375_2014-06-28_20-13-44_260595134347_rgbf000032-resize_1/002375_2014-06-28_20-13-44_260595134347_rgbf000032-resize_1-target.png,250,4.0175,4.0,1625,249,meters,jsons/v1_VE250_randls_38.json,389198,2874272,46,Woman
35,988435,DepthScenes,duration_manipulation_targetAtFixation,jsons/v1_VE250_randls_38.json,http://54.235.29.9/FacialAge/BNav_EC2/DepthDuration/v2_depth_duration_MTurk/v2_DepthDuration_HTML.html#24,24,1440,789,1440,900,8-20-2022,11-1-7,36,depth_duration_stimuli/002657_2014-06-13_15-29-54_094959634447_rgbf000150-resize_1/002657_2014-06-13_15-29-54_094959634447_rgbf000150-resize_1-target.png,250,4.919,3.0,1619,250,meters,jsons/v1_VE250_randls_38.json,389198,2874272,46,Woman
36,988435,DepthScenes,duration_manipulation_targetAtFixation,jsons/v1_VE250_randls_38.json,http://54.235.29.9/FacialAge/BNav_EC2/DepthDuration/v2_depth_duration_MTurk/v2_DepthDuration_HTML.html#24,24,1440,789,1440,900,8-20-2022,11-1-7,37,depth_duration_stimuli/001066_2014-06-08_22-03-20_260595134347_rgbf000066-resize_4/001066_2014-06-08_22-03-20_260595134347_rgbf000066-resize_4-target.png,250,4.2330000000000005,2.0,1731,251,meters,jsons/v1_VE250_randls_38.json,389198,2874272,46,Woman
37,988435,DepthScenes,duration_manipulation_targetAtFixation,jsons/v1_VE250_randls_38.json,http://54.235.29.9/FacialAge/BNav_EC2/DepthDuration/v2_depth_duration_MTurk/v2_DepthDuration_HTML.html#24,24,1440,789,1440,900,8-20-2022,11-1-7,38,depth_duration_stimuli/000742_2014-06-08_18-48-09_260595134347_rgbf000164-resize_4/000742_2014-06-08_18-48-09_260595134347_rgbf000164-resize_4-target.png,250,4.632,1.0,1497,249,meters,jsons/v1_VE250_randls_38.json,389198,2874272,46,Woman
38,988435,DepthScenes,duration_manipulation_targetAtFixation,jsons/v1_VE250_randls_38.json,http://54.235.29.9/FacialAge/BNav_EC2/DepthDuration/v2_depth_duration_MTurk/v2_DepthDuration_HTML.html#24,24,1440,789,1440,900,8-20-2022,11-1-7,39,depth_duration_stimuli/001150_2014-06-17_15-27-34_260595134347_rgbf000108-resize_2/001150_2014-06-17_15-27-34_260595134347_rgbf000108-resize_2-target.png,250,4.0325,9.0,2291,250,meters,jsons/v1_VE250_randls_38.json,389198,2874272,46,Woman
39,988435,DepthScenes,duration_manipulation_targetAtFixation,jsons/v1_VE250_randls_38.json,http://54.235.29.9/FacialAge/BNav_EC2/DepthDuration/v2_depth_duration_MTurk/v2_DepthDuration_HTML.html#24,24,1440,789,1440,900,8-20-2022,11-1-7,40,depth_duration_stimuli/000665_2014-06-09_20-42-35_260595134347_rgbf000110-resize_1/000665_2014-06-09_20-42-35_260595134347_rgbf000110-resize_1-target.png,250,3.057,8.0,2001,250,meters,jsons/v1_VE250_randls_38.json,389198,2874272,46,Woman
40,988435,DepthScenes,duration_manipulation_targetAtFixation,jsons/v1_VE250_randls_38.json,http://54.235.29.9/FacialAge/BNav_EC2/DepthDuration/v2_depth_duration_MTurk/v2_DepthDuration_HTML.html#24,24,1440,789,1440,900,8-20-2022,11-1-7,41,depth_duration_stimuli/001806_2014-06-26_20-50-20_260595134347_rgbf000091-resize_1/001806_2014-06-26_20-50-20_260595134347_rgbf000091-resize_1-target.png,250,2.7305,7.0,1706,249,meters,jsons/v1_VE250_randls_38.json,389198,2874272,46,Woman
41,988435,DepthScenes,duration_manipulation_targetAtFixation,jsons/v1_VE250_randls_38.json,http://54.235.29.9/FacialAge/BNav_EC2/DepthDuration/v2_depth_duration_MTurk/v2_DepthDuration_HTML.html#24,24,1440,789,1440,900,8-20-2022,11-1-7,42,depth_duration_stimuli/001617_2014-06-20_11-35-32_260595134347_rgbf000066-resize_1/001617_2014-06-20_11-35-32_260595134347_rgbf000066-resize_1-target.png,250,3.7910000000000004,6.0,1770,249,meters,jsons/v1_VE250_randls_38.json,389198,2874272,46,Woman
42,988435,DepthScenes,duration_manipulation_targetAtFixation,jsons/v1_VE250_randls_38.json,http://54.235.29.9/FacialAge/BNav_EC2/DepthDuration/v2_depth_duration_MTurk/v2_DepthDuration_HTML.html#24,24,1440,789,1440,900,8-20-2022,11-1-7,43,depth_duration_stimuli/000736_2014-06-08_18-24-15_260595134347_rgbf000206-resize_3/000736_2014-06-08_18-24-15_260595134347_rgbf000206-resize_3-target.png,250,3.515,5.0,1619,248,meters,jsons/v1_VE250_randls_38.json,389198,2874272,46,Woman
43,988435,DepthScenes,duration_manipulation_targetAtFixation,jsons/v1_VE250_randls_38.json,http://54.235.29.9/FacialAge/BNav_EC2/DepthDuration/v2_depth_duration_MTurk/v2_DepthDuration_HTML.html#24,24,1440,789,1440,900,8-20-2022,11-1-7,44,depth_duration_stimuli/000137_2014-05-20_17-04-49_260595134347_rgbf000120-resize_1/000137_2014-05-20_17-04-49_260595134347_rgbf000120-resize_1-target.png,250,3.786,4.0,1698,250,meters,jsons/v1_VE250_randls_38.json,389198,2874272,46,Woman
44,988435,DepthScenes,duration_manipulation_targetAtFixation,jsons/v1_VE250_randls_38.json,http://54.235.29.9/FacialAge/BNav_EC2/DepthDuration/v2_depth_duration_MTurk/v2_DepthDuration_HTML.html#24,24,1440,789,1440,900,8-20-2022,11-1-7,45,depth_duration_stimuli/000787_2014-06-08_22-33-53_260595134347_rgbf000175-resize_1/000787_2014-06-08_22-33-53_260595134347_rgbf000175-resize-original.jpg,250,4.784,0.0,1864,282,meters,jsons/v1_VE250_randls_38.json,389198,2874272,46,Woman
45,988435,DepthScenes,duration_manipulation_targetAtFixation,jsons/v1_VE250_randls_38.json,http://54.235.29.9/FacialAge/BNav_EC2/DepthDuration/v2_depth_duration_MTurk/v2_DepthDuration_HTML.html#24,24,1440,789,1440,900,8-20-2022,11-1-7,46,depth_duration_stimuli/003292_2014-05-14_21-53-49_094959634447_rgbf000100-resize_2/003292_2014-05-14_21-53-49_094959634447_rgbf000100-resize_2-target.png,250,3.4815,3.0,1548,249,meters,jsons/v1_VE250_randls_38.json,389198,2874272,46,Woman
46,988435,DepthScenes,duration_manipulation_targetAtFixation,jsons/v1_VE250_randls_38.json,http://54.235.29.9/FacialAge/BNav_EC2/DepthDuration/v2_depth_duration_MTurk/v2_DepthDuration_HTML.html#24,24,1440,789,1440,900,8-20-2022,11-1-7,47,depth_duration_stimuli/002639_2014-06-24_14-51-37_094959634447_rgbf000074-resize_4/002639_2014-06-24_14-51-37_094959634447_rgbf000074-resize_4-target.png,250,4.0375,2.0,1755,249,meters,jsons/v1_VE250_randls_38.json,389198,2874272,46,Woman
47,988435,DepthScenes,duration_manipulation_targetAtFixation,jsons/v1_VE250_randls_38.json,http://54.235.29.9/FacialAge/BNav_EC2/DepthDuration/v2_depth_duration_MTurk/v2_DepthDuration_HTML.html#24,24,1440,789,1440,900,8-20-2022,11-1-7,48,depth_duration_stimuli/000436_2014-06-09_22-25-11_260595134347_rgbf000137-resize_1/000436_2014-06-09_22-25-11_260595134347_rgbf000137-resize_1-target.png,250,4.0705,1.0,1905,250,meters,jsons/v1_VE250_randls_38.json,389198,2874272,46,Woman
48,988435,DepthScenes,duration_manipulation_targetAtFixation,jsons/v1_VE250_randls_38.json,http://54.235.29.9/FacialAge/BNav_EC2/DepthDuration/v2_depth_duration_MTurk/v2_DepthDuration_HTML.html#24,24,1440,789,1440,900,8-20-2022,11-1-7,49,depth_duration_stimuli/002444_2014-06-28_20-32-08_260595134347_rgbf000027-resize_0/002444_2014-06-28_20-32-08_260595134347_rgbf000027-resize_0-target.png,250,4.388999999999999,9.0,1962,251,meters,jsons/v1_VE250_randls_38.json,389198,2874272,46,Woman
49,988435,DepthScenes,duration_manipulation_targetAtFixation,jsons/v1_VE250_randls_38.json,http://54.235.29.9/FacialAge/BNav_EC2/DepthDuration/v2_depth_duration_MTurk/v2_DepthDuration_HTML.html#24,24,1440,789,1440,900,8-20-2022,11-1-7,50,depth_duration_stimuli/001164_2014-06-17_15-35-46_260595134347_rgbf000085-resize_3/001164_2014-06-17_15-35-46_260595134347_rgbf000085-resize_3-target.png,250,2.354,8.0,1742,250,meters,jsons/v1_VE250_randls_38.json,389198,2874272,46,Woman
50,988435,DepthScenes,duration_manipulation_targetAtFixation,jsons/v1_VE250_randls_38.json,http://54.235.29.9/FacialAge/BNav_EC2/DepthDuration/v2_depth_duration_MTurk/v2_DepthDuration_HTML.html#24,24,1440,789,1440,900,8-20-2022,11-1-7,51,depth_duration_stimuli/001136_2014-06-17_15-19-41_260595134347_rgbf000076-resize_3/001136_2014-06-17_15-19-41_260595134347_rgbf000076-resize_3-target.png,250,1.8655,7.0,1407,249,meters,jsons/v1_VE250_randls_38.json,389198,2874272,46,Woman
51,988435,DepthScenes,duration_manipulation_targetAtFixation,jsons/v1_VE250_randls_38.json,http://54.235.29.9/FacialAge/BNav_EC2/DepthDuration/v2_depth_duration_MTurk/v2_DepthDuration_HTML.html#24,24,1440,789,1440,900,8-20-2022,11-1-7,52,depth_duration_stimuli/001808_2014-06-26_20-50-58_260595134347_rgbf000029-resize_1/001808_2014-06-26_20-50-58_260595134347_rgbf000029-resize_1-target.png,250,4.249,6.0,1513,248,meters,jsons/v1_VE250_randls_38.json,389198,2874272,46,Woman
52,988435,DepthScenes,duration_manipulation_targetAtFixation,jsons/v1_VE250_randls_38.json,http://54.235.29.9/FacialAge/BNav_EC2/DepthDuration/v2_depth_duration_MTurk/v2_DepthDuration_HTML.html#24,24,1440,789,1440,900,8-20-2022,11-1-7,53,depth_duration_stimuli/001815_2014-06-26_20-52-55_260595134347_rgbf000020-resize_0/001815_2014-06-26_20-52-55_260595134347_rgbf000020-resize_0-target.png,250,3.3865,5.0,1529,249,meters,jsons/v1_VE250_randls_38.json,389198,2874272,46,Woman
53,988435,DepthScenes,duration_manipulation_targetAtFixation,jsons/v1_VE250_randls_38.json,http://54.235.29.9/FacialAge/BNav_EC2/DepthDuration/v2_depth_duration_MTurk/v2_DepthDuration_HTML.html#24,24,1440,789,1440,900,8-20-2022,11-1-7,54,depth_duration_stimuli/001449_2014-06-19_17-01-27_260595134347_rgbf000116-resize_2/001449_2014-06-19_17-01-27_260595134347_rgbf000116-resize_2-target.png,250,3.452,4.0,1590,248,meters,jsons/v1_VE250_randls_38.json,389198,2874272,46,Woman
54,988435,DepthScenes,duration_manipulation_targetAtFixation,jsons/v1_VE250_randls_38.json,http://54.235.29.9/FacialAge/BNav_EC2/DepthDuration/v2_depth_duration_MTurk/v2_DepthDuration_HTML.html#24,24,1440,789,1440,900,8-20-2022,11-1-7,55,depth_duration_stimuli/001450_2014-06-19_17-02-03_260595134347_rgbf000203-resize_4/001450_2014-06-19_17-02-03_260595134347_rgbf000203-resize_4-target.png,250,4.0106666666667,3.0,1551,249,meters,jsons/v1_VE250_randls_38.json,389198,2874272,46,Woman
55,988435,DepthScenes,duration_manipulation_targetAtFixation,jsons/v1_VE250_randls_38.json,http://54.235.29.9/FacialAge/BNav_EC2/DepthDuration/v2_depth_duration_MTurk/v2_DepthDuration_HTML.html#24,24,1440,789,1440,900,8-20-2022,11-1-7,56,depth_duration_stimuli/000009_2014-05-26_14-32-05_260595134347_rgbf000034-resize_3/000009_2014-05-26_14-32-05_260595134347_rgbf000034-resize_3-target.png,250,3.8715,2.0,1545,249,meters,jsons/v1_VE250_randls_38.json,389198,2874272,46,Woman
56,988435,DepthScenes,duration_manipulation_targetAtFixation,jsons/v1_VE250_randls_38.json,http://54.235.29.9/FacialAge/BNav_EC2/DepthDuration/v2_depth_duration_MTurk/v2_DepthDuration_HTML.html#24,24,1440,789,1440,900,8-20-2022,11-1-7,57,depth_duration_stimuli/001828_2014-06-26_21-40-03_260595134347_rgbf000024-resize_0/001828_2014-06-26_21-40-03_260595134347_rgbf000024-resize_0-target.png,250,4.8260000000000005,1.0,1747,250,meters,jsons/v1_VE250_randls_38.json,389198,2874272,46,Woman
57,988435,DepthScenes,duration_manipulation_targetAtFixation,jsons/v1_VE250_randls_38.json,http://54.235.29.9/FacialAge/BNav_EC2/DepthDuration/v2_depth_duration_MTurk/v2_DepthDuration_HTML.html#24,24,1440,789,1440,900,8-20-2022,11-1-7,58,depth_duration_stimuli/000788_2014-06-08_22-34-36_260595134347_rgbf000131-resize_1/000788_2014-06-08_22-34-36_260595134347_rgbf000131-resize_1-target.png,250,3.359,9.0,1481,250,meters,jsons/v1_VE250_randls_38.json,389198,2874272,46,Woman
58,988435,DepthScenes,duration_manipulation_targetAtFixation,jsons/v1_VE250_randls_38.json,http://54.235.29.9/FacialAge/BNav_EC2/DepthDuration/v2_depth_duration_MTurk/v2_DepthDuration_HTML.html#24,24,1440,789,1440,900,8-20-2022,11-1-7,59,depth_duration_stimuli/001235_2014-06-17_16-37-36_260595134347_rgbf000084-resize_4/001235_2014-06-17_16-37-36_260595134347_rgbf000084-resize_4-target.png,250,3.6605,8.0,1665,250,meters,jsons/v1_VE250_randls_38.json,389198,2874272,46,Woman
59,988435,DepthScenes,duration_manipulation_targetAtFixation,jsons/v1_VE250_randls_38.json,http://54.235.29.9/FacialAge/BNav_EC2/DepthDuration/v2_depth_duration_MTurk/v2_DepthDuration_HTML.html#24,24,1440,789,1440,900,8-20-2022,11-1-7,60,depth_duration_stimuli/002988_2014-06-15_12-24-20_094959634447_rgbf000150-resize_1/002988_2014-06-15_12-24-20_094959634447_rgbf000150-resize_1-target.png,250,4.7669999999999995,7.0,1441,248,meters,jsons/v1_VE250_randls_38.json,389198,2874272,46,Woman
60,988435,DepthScenes,duration_manipulation_targetAtFixation,jsons/v1_VE250_randls_38.json,http://54.235.29.9/FacialAge/BNav_EC2/DepthDuration/v2_depth_duration_MTurk/v2_DepthDuration_HTML.html#24,24,1440,789,1440,900,8-20-2022,11-1-7,61,depth_duration_stimuli/001052_2014-06-08_18-24-54_260595134347_rgbf000130-resize_1/001052_2014-06-08_18-24-54_260595134347_rgbf000130-resize_1-target.png,250,4.1045,6.0,1370,248,meters,jsons/v1_VE250_randls_38.json,389198,2874272,46,Woman
61,988435,DepthScenes,duration_manipulation_targetAtFixation,jsons/v1_VE250_randls_38.json,http://54.235.29.9/FacialAge/BNav_EC2/DepthDuration/v2_depth_duration_MTurk/v2_DepthDuration_HTML.html#24,24,1440,789,1440,900,8-20-2022,11-1-7,62,depth_duration_stimuli/002445_2014-06-28_20-32-16_260595134347_rgbf000029-resize_4/002445_2014-06-28_20-32-16_260595134347_rgbf000029-resize_4-target.png,250,2.5315,5.0,1602,249,meters,jsons/v1_VE250_randls_38.json,389198,2874272,46,Woman
62,988435,DepthScenes,duration_manipulation_targetAtFixation,jsons/v1_VE250_randls_38.json,http://54.235.29.9/FacialAge/BNav_EC2/DepthDuration/v2_depth_duration_MTurk/v2_DepthDuration_HTML.html#24,24,1440,789,1440,900,8-20-2022,11-1-7,63,depth_duration_stimuli/000780_2014-06-08_22-28-29_260595134347_rgbf000126-resize_1/000780_2014-06-08_22-28-29_260595134347_rgbf000126-resize_1-target.png,250,3.3825,4.0,1730,249,meters,jsons/v1_VE250_randls_38.json,389198,2874272,46,Woman
63,988435,DepthScenes,duration_manipulation_targetAtFixation,jsons/v1_VE250_randls_38.json,http://54.235.29.9/FacialAge/BNav_EC2/DepthDuration/v2_depth_duration_MTurk/v2_DepthDuration_HTML.html#24,24,1440,789,1440,900,8-20-2022,11-1-7,64,depth_duration_stimuli/002118_2014-06-25_20-32-08_260595134347_rgbf000078-resize_1/002118_2014-06-25_20-32-08_260595134347_rgbf000078-resize_1-target.png,250,2.6460000000000004,3.0,1643,250,meters,jsons/v1_VE250_randls_38.json,389198,2874272,46,Woman
64,988435,DepthScenes,duration_manipulation_targetAtFixation,jsons/v1_VE250_randls_38.json,http://54.235.29.9/FacialAge/BNav_EC2/DepthDuration/v2_depth_duration_MTurk/v2_DepthDuration_HTML.html#24,24,1440,789,1440,900,8-20-2022,11-1-7,65,depth_duration_stimuli/001516_2014-06-20_16-25-09_260595134347_rgbf000076-resize_2/001516_2014-06-20_16-25-09_260595134347_rgbf000076-resize_2-target.png,250,1.7445,2.0,1766,249,meters,jsons/v1_VE250_randls_38.json,389198,2874272,46,Woman
65,988435,DepthScenes,duration_manipulation_targetAtFixation,jsons/v1_VE250_randls_38.json,http://54.235.29.9/FacialAge/BNav_EC2/DepthDuration/v2_depth_duration_MTurk/v2_DepthDuration_HTML.html#24,24,1440,789,1440,900,8-20-2022,11-1-7,66,depth_duration_stimuli/001222_2014-06-17_16-24-06_260595134347_rgbf000073-resize_0/001222_2014-06-17_16-24-06_260595134347_rgbf000073-resize-original.jpg,250,1.4385,0.0,1966,250,meters,jsons/v1_VE250_randls_38.json,389198,2874272,46,Woman
66,988435,DepthScenes,duration_manipulation_targetAtFixation,jsons/v1_VE250_randls_38.json,http://54.235.29.9/FacialAge/BNav_EC2/DepthDuration/v2_depth_duration_MTurk/v2_DepthDuration_HTML.html#24,24,1440,789,1440,900,8-20-2022,11-1-7,67,depth_duration_stimuli/001016_2014-06-09_16-16-10_260595134347_rgbf000112-resize_5/001016_2014-06-09_16-16-10_260595134347_rgbf000112-resize_5-target.png,250,1.6565,1.0,1729,247,meters,jsons/v1_VE250_randls_38.json,389198,2874272,46,Woman
67,988435,DepthScenes,duration_manipulation_targetAtFixation,jsons/v1_VE250_randls_38.json,http://54.235.29.9/FacialAge/BNav_EC2/DepthDuration/v2_depth_duration_MTurk/v2_DepthDuration_HTML.html#24,24,1440,789,1440,900,8-20-2022,11-1-7,68,depth_duration_stimuli/002340_2014-06-28_20-05-46_260595134347_rgbf000113-resize_0/002340_2014-06-28_20-05-46_260595134347_rgbf000113-resize_0-target.png,250,2.4735,9.0,1986,249,meters,jsons/v1_VE250_randls_38.json,389198,2874272,46,Woman
68,988435,DepthScenes,duration_manipulation_targetAtFixation,jsons/v1_VE250_randls_38.json,http://54.235.29.9/FacialAge/BNav_EC2/DepthDuration/v2_depth_duration_MTurk/v2_DepthDuration_HTML.html#24,24,1440,789,1440,900,8-20-2022,11-1-7,69,depth_duration_stimuli/002213_2014-06-28_18-37-58_260595134347_rgbf000055-resize_1/002213_2014-06-28_18-37-58_260595134347_rgbf000055-resize_1-target.png,250,3.62,8.0,2082,299,meters,jsons/v1_VE250_randls_38.json,389198,2874272,46,Woman
69,988435,DepthScenes,duration_manipulation_targetAtFixation,jsons/v1_VE250_randls_38.json,http://54.235.29.9/FacialAge/BNav_EC2/DepthDuration/v2_depth_duration_MTurk/v2_DepthDuration_HTML.html#24,24,1440,789,1440,900,8-20-2022,11-1-7,70,depth_duration_stimuli/000691_2014-06-08_13-08-50_260595134347_rgbf000132-resize_3/000691_2014-06-08_13-08-50_260595134347_rgbf000132-resize_3-target.png,250,4.1530000000000005,7.0,1871,251,meters,jsons/v1_VE250_randls_38.json,389198,2874272,46,Woman
70,988435,DepthScenes,duration_manipulation_targetAtFixation,jsons/v1_VE250_randls_38.json,http://54.235.29.9/FacialAge/BNav_EC2/DepthDuration/v2_depth_duration_MTurk/v2_DepthDuration_HTML.html#24,24,1440,789,1440,900,8-20-2022,11-1-7,71,depth_duration_stimuli/003534_2014-05-22_15-06-10_094959634447_rgbf000102-resize_4/003534_2014-05-22_15-06-10_094959634447_rgbf000102-resize_4-target.png,250,1.426,6.0,1845,250,meters,jsons/v1_VE250_randls_38.json,389198,2874272,46,Woman
71,988435,DepthScenes,duration_manipulation_targetAtFixation,jsons/v1_VE250_randls_38.json,http://54.235.29.9/FacialAge/BNav_EC2/DepthDuration/v2_depth_duration_MTurk/v2_DepthDuration_HTML.html#24,24,1440,789,1440,900,8-20-2022,11-1-7,72,depth_duration_stimuli/002637_2014-06-24_14-51-13_094959634447_rgbf000066-resize_4/002637_2014-06-24_14-51-13_094959634447_rgbf000066-resize_4-target.png,250,1.9955,5.0,1873,248,meters,jsons/v1_VE250_randls_38.json,389198,2874272,46,Woman
72,988435,DepthScenes,duration_manipulation_targetAtFixation,jsons/v1_VE250_randls_38.json,http://54.235.29.9/FacialAge/BNav_EC2/DepthDuration/v2_depth_duration_MTurk/v2_DepthDuration_HTML.html#24,24,1440,789,1440,900,8-20-2022,11-1-7,73,depth_duration_stimuli/002905_2014-06-03_18-04-43_094959634447_rgbf000151-resize_2/002905_2014-06-03_18-04-43_094959634447_rgbf000151-resize_2-target.png,250,2.0295,4.0,1810,249,meters,jsons/v1_VE250_randls_38.json,389198,2874272,46,Woman
73,988435,DepthScenes,duration_manipulation_targetAtFixation,jsons/v1_VE250_randls_38.json,http://54.235.29.9/FacialAge/BNav_EC2/DepthDuration/v2_depth_duration_MTurk/v2_DepthDuration_HTML.html#24,24,1440,789,1440,900,8-20-2022,11-1-7,74,depth_duration_stimuli/003423_2014-05-21_10-23-26_094959634447_rgbf002665-resize_2/003423_2014-05-21_10-23-26_094959634447_rgbf002665-resize_2-target.png,250,3.2575,3.0,2530,249,meters,jsons/v1_VE250_randls_38.json,389198,2874272,46,Woman
74,988435,DepthScenes,duration_manipulation_targetAtFixation,jsons/v1_VE250_randls_38.json,http://54.235.29.9/FacialAge/BNav_EC2/DepthDuration/v2_depth_duration_MTurk/v2_DepthDuration_HTML.html#24,24,1440,789,1440,900,8-20-2022,11-1-7,75,depth_duration_stimuli/002272_2014-06-28_18-53-56_260595134347_rgbf000067-resize_2/002272_2014-06-28_18-53-56_260595134347_rgbf000067-resize_2-target.png,250,1.138,2.0,1840,248,meters,jsons/v1_VE250_randls_38.json,389198,2874272,46,Woman
75,988435,DepthScenes,duration_manipulation_targetAtFixation,jsons/v1_VE250_randls_38.json,http://54.235.29.9/FacialAge/BNav_EC2/DepthDuration/v2_depth_duration_MTurk/v2_DepthDuration_HTML.html#24,24,1440,789,1440,900,8-20-2022,11-1-7,76,depth_duration_stimuli/001571_2014-06-20_17-21-32_260595134347_rgbf000089-resize_1/001571_2014-06-20_17-21-32_260595134347_rgbf000089-resize_1-target.png,250,1.86,1.0,1642,249,meters,jsons/v1_VE250_randls_38.json,389198,2874272,46,Woman
76,988435,DepthScenes,duration_manipulation_targetAtFixation,jsons/v1_VE250_randls_38.json,http://54.235.29.9/FacialAge/BNav_EC2/DepthDuration/v2_depth_duration_MTurk/v2_DepthDuration_HTML.html#24,24,1440,789,1440,900,8-20-2022,11-1-7,77,depth_duration_stimuli/000929_2014-06-09_16-33-19_260595134347_rgbf000139-resize_0/000929_2014-06-09_16-33-19_260595134347_rgbf000139-resize_0-target.png,250,2.8680000000000003,9.0,19747,250,meters,jsons/v1_VE250_randls_38.json,389198,2874272,46,Woman
77,988435,DepthScenes,duration_manipulation_targetAtFixation,jsons/v1_VE250_randls_38.json,http://54.235.29.9/FacialAge/BNav_EC2/DepthDuration/v2_depth_duration_MTurk/v2_DepthDuration_HTML.html#24,24,1440,789,1440,900,8-20-2022,11-1-7,78,depth_duration_stimuli/000457_2014-06-08_16-52-43_260595134347_rgbf000199-resize_1/000457_2014-06-08_16-52-43_260595134347_rgbf000199-resize_1-target.png,250,3.6489999999999996,8.0,1954,249,meters,jsons/v1_VE250_randls_38.json,389198,2874272,46,Woman
78,988435,DepthScenes,duration_manipulation_targetAtFixation,jsons/v1_VE250_randls_38.json,http://54.235.29.9/FacialAge/BNav_EC2/DepthDuration/v2_depth_duration_MTurk/v2_DepthDuration_HTML.html#24,24,1440,789,1440,900,8-20-2022,11-1-7,79,depth_duration_stimuli/002600_2014-06-24_14-27-04_094959634447_rgbf000074-resize_2/002600_2014-06-24_14-27-04_094959634447_rgbf000074-resize_2-target.png,250,2.7575,7.0,1650,241,meters,jsons/v1_VE250_randls_38.json,389198,2874272,46,Woman
79,988435,DepthScenes,duration_manipulation_targetAtFixation,jsons/v1_VE250_randls_38.json,http://54.235.29.9/FacialAge/BNav_EC2/DepthDuration/v2_depth_duration_MTurk/v2_DepthDuration_HTML.html#24,24,1440,789,1440,900,8-20-2022,11-1-7,80,depth_duration_stimuli/003228_2014-05-14_13-42-35_094959634447_rgbf000101-resize_1/003228_2014-05-14_13-42-35_094959634447_rgbf000101-resize_1-target.png,250,1.9680000000000002,6.0,1739,249,meters,jsons/v1_VE250_randls_38.json,389198,2874272,46,Woman
80,988435,DepthScenes,duration_manipulation_targetAtFixation,jsons/v1_VE250_randls_38.json,http://54.235.29.9/FacialAge/BNav_EC2/DepthDuration/v2_depth_duration_MTurk/v2_DepthDuration_HTML.html#24,24,1440,789,1440,900,8-20-2022,11-1-7,81,depth_duration_stimuli/000917_2014-06-09_22-45-29_260595134347_rgbf000149-resize_3/000917_2014-06-09_22-45-29_260595134347_rgbf000149-resize_3-target.png,250,4.1865,5.0,1771,249,meters,jsons/v1_VE250_randls_38.json,389198,2874272,46,Woman
81,988435,DepthScenes,duration_manipulation_targetAtFixation,jsons/v1_VE250_randls_38.json,http://54.235.29.9/FacialAge/BNav_EC2/DepthDuration/v2_depth_duration_MTurk/v2_DepthDuration_HTML.html#24,24,1440,789,1440,900,8-20-2022,11-1-7,82,depth_duration_stimuli/002323_2014-06-28_20-01-54_260595134347_rgbf000051-resize_4/002323_2014-06-28_20-01-54_260595134347_rgbf000051-resize_4-target.png,250,3.7310000000000003,4.0,1827,249,meters,jsons/v1_VE250_randls_38.json,389198,2874272,46,Woman
82,988435,DepthScenes,duration_manipulation_targetAtFixation,jsons/v1_VE250_randls_38.json,http://54.235.29.9/FacialAge/BNav_EC2/DepthDuration/v2_depth_duration_MTurk/v2_DepthDuration_HTML.html#24,24,1440,789,1440,900,8-20-2022,11-1-7,83,depth_duration_stimuli/001810_2014-06-26_20-51-35_260595134347_rgbf000040-resize_3/001810_2014-06-26_20-51-35_260595134347_rgbf000040-resize_3-target.png,250,2.2525,3.0,1793,250,meters,jsons/v1_VE250_randls_38.json,389198,2874272,46,Woman
83,988435,DepthScenes,duration_manipulation_targetAtFixation,jsons/v1_VE250_randls_38.json,http://54.235.29.9/FacialAge/BNav_EC2/DepthDuration/v2_depth_duration_MTurk/v2_DepthDuration_HTML.html#24,24,1440,789,1440,900,8-20-2022,11-1-7,84,depth_duration_stimuli/003010_2014-06-15_12-54-35_094959634447_rgbf000112-resize_0/003010_2014-06-15_12-54-35_094959634447_rgbf000112-resize_0-target.png,250,3.1185,2.0,1602,249,meters,jsons/v1_VE250_randls_38.json,389198,2874272,46,Woman
84,988435,DepthScenes,duration_manipulation_targetAtFixation,jsons/v1_VE250_randls_38.json,http://54.235.29.9/FacialAge/BNav_EC2/DepthDuration/v2_depth_duration_MTurk/v2_DepthDuration_HTML.html#24,24,1440,789,1440,900,8-20-2022,11-1-7,85,depth_duration_stimuli/002748_2014-06-22_19-07-22_094959634447_rgbf000078-resize_1/002748_2014-06-22_19-07-22_094959634447_rgbf000078-resize_1-target.png,250,4.6705,1.0,1643,249,meters,jsons/v1_VE250_randls_38.json,389198,2874272,46,Woman
85,988435,DepthScenes,duration_manipulation_targetAtFixation,jsons/v1_VE250_randls_38.json,http://54.235.29.9/FacialAge/BNav_EC2/DepthDuration/v2_depth_duration_MTurk/v2_DepthDuration_HTML.html#24,24,1440,789,1440,900,8-20-2022,11-1-7,86,depth_duration_stimuli/002995_2014-06-15_12-31-26_094959634447_rgbf000150-resize_1/002995_2014-06-15_12-31-26_094959634447_rgbf000150-resize_1-target.png,250,3.8360000000000003,9.0,1657,249,meters,jsons/v1_VE250_randls_38.json,389198,2874272,46,Woman
86,988435,DepthScenes,duration_manipulation_targetAtFixation,jsons/v1_VE250_randls_38.json,http://54.235.29.9/FacialAge/BNav_EC2/DepthDuration/v2_depth_duration_MTurk/v2_DepthDuration_HTML.html#24,24,1440,789,1440,900,8-20-2022,11-1-7,87,depth_duration_stimuli/002549_2014-06-24_13-41-39_094959634447_rgbf000022-resize_3/002549_2014-06-24_13-41-39_094959634447_rgbf000022-resize_3-target.png,250,1.476,8.0,1802,251,meters,jsons/v1_VE250_randls_38.json,389198,2874272,46,Woman
87,988435,DepthScenes,duration_manipulation_targetAtFixation,jsons/v1_VE250_randls_38.json,http://54.235.29.9/FacialAge/BNav_EC2/DepthDuration/v2_depth_duration_MTurk/v2_DepthDuration_HTML.html#24,24,1440,789,1440,900,8-20-2022,11-1-7,88,depth_duration_stimuli/002750_2014-06-22_19-08-03_094959634447_rgbf000094-resize_4/002750_2014-06-22_19-08-03_094959634447_rgbf000094-resize_4-target.png,250,2.354,7.0,1851,249,meters,jsons/v1_VE250_randls_38.json,389198,2874272,46,Woman
88,988435,DepthScenes,duration_manipulation_targetAtFixation,jsons/v1_VE250_randls_38.json,http://54.235.29.9/FacialAge/BNav_EC2/DepthDuration/v2_depth_duration_MTurk/v2_DepthDuration_HTML.html#24,24,1440,789,1440,900,8-20-2022,11-1-7,89,depth_duration_stimuli/000692_2014-06-08_13-09-42_260595134347_rgbf000199-resize_2/000692_2014-06-08_13-09-42_260595134347_rgbf000199-resize_2-target.png,250,3.661,6.0,1700,250,meters,jsons/v1_VE250_randls_38.json,389198,2874272,46,Woman
89,988435,DepthScenes,duration_manipulation_targetAtFixation,jsons/v1_VE250_randls_38.json,http://54.235.29.9/FacialAge/BNav_EC2/DepthDuration/v2_depth_duration_MTurk/v2_DepthDuration_HTML.html#24,24,1440,789,1440,900,8-20-2022,11-1-7,90,depth_duration_stimuli/001094_2014-06-15_17-36-00_260595134347_rgbf000205-resize_0/001094_2014-06-15_17-36-00_260595134347_rgbf000205-resize_0-target.png,250,4.2175,5.0,1648,249,meters,jsons/v1_VE250_randls_38.json,389198,2874272,46,Woman
90,988435,DepthScenes,duration_manipulation_targetAtFixation,jsons/v1_VE250_randls_38.json,http://54.235.29.9/FacialAge/BNav_EC2/DepthDuration/v2_depth_duration_MTurk/v2_DepthDuration_HTML.html#24,24,1440,789,1440,900,8-20-2022,11-1-7,91,depth_duration_stimuli/001133_2014-06-17_14-49-16_260595134347_rgbf000100-resize_0/001133_2014-06-17_14-49-16_260595134347_rgbf000100-resize_0-target.png,250,4.2115,4.0,1626,250,meters,jsons/v1_VE250_randls_38.json,389198,2874272,46,Woman
91,988435,DepthScenes,duration_manipulation_targetAtFixation,jsons/v1_VE250_randls_38.json,http://54.235.29.9/FacialAge/BNav_EC2/DepthDuration/v2_depth_duration_MTurk/v2_DepthDuration_HTML.html#24,24,1440,789,1440,900,8-20-2022,11-1-7,92,depth_duration_stimuli/001132_2014-06-17_14-48-54_260595134347_rgbf000100-resize_2/001132_2014-06-17_14-48-54_260595134347_rgbf000100-resize_2-target.png,250,3.753,3.0,1662,253,meters,jsons/v1_VE250_randls_38.json,389198,2874272,46,Woman
92,988435,DepthScenes,duration_manipulation_targetAtFixation,jsons/v1_VE250_randls_38.json,http://54.235.29.9/FacialAge/BNav_EC2/DepthDuration/v2_depth_duration_MTurk/v2_DepthDuration_HTML.html#24,24,1440,789,1440,900,8-20-2022,11-1-7,93,depth_duration_stimuli/001055_2014-06-08_18-45-35_260595134347_rgbf000111-resize_4/001055_2014-06-08_18-45-35_260595134347_rgbf000111-resize_4-target.png,250,2.4290000000000003,2.0,1584,249,meters,jsons/v1_VE250_randls_38.json,389198,2874272,46,Woman
93,988435,DepthScenes,duration_manipulation_targetAtFixation,jsons/v1_VE250_randls_38.json,http://54.235.29.9/FacialAge/BNav_EC2/DepthDuration/v2_depth_duration_MTurk/v2_DepthDuration_HTML.html#24,24,1440,789,1440,900,8-20-2022,11-1-7,94,depth_duration_stimuli/000549_2014-06-08_22-10-24_260595134347_rgbf000247-resize_3/000549_2014-06-08_22-10-24_260595134347_rgbf000247-resize_3-target.png,250,1.841,1.0,1762,249,meters,jsons/v1_VE250_randls_38.json,389198,2874272,46,Woman
94,988435,DepthScenes,duration_manipulation_targetAtFixation,jsons/v1_VE250_randls_38.json,http://54.235.29.9/FacialAge/BNav_EC2/DepthDuration/v2_depth_duration_MTurk/v2_DepthDuration_HTML.html#24,24,1440,789,1440,900,8-20-2022,11-1-7,95,depth_duration_stimuli/002043_2014-06-24_20-29-38_260595134347_rgbf000039-resize_4/002043_2014-06-24_20-29-38_260595134347_rgbf000039-resize_4-target.png,250,2.8435,9.0,1635,249,meters,jsons/v1_VE250_randls_38.json,389198,2874272,46,Woman
95,988435,DepthScenes,duration_manipulation_targetAtFixation,jsons/v1_VE250_randls_38.json,http://54.235.29.9/FacialAge/BNav_EC2/DepthDuration/v2_depth_duration_MTurk/v2_DepthDuration_HTML.html#24,24,1440,789,1440,900,8-20-2022,11-1-7,96,depth_duration_stimuli/003048_2014-06-15_13-49-43_094959634447_rgbf000150-resize_1/003048_2014-06-15_13-49-43_094959634447_rgbf000150-resize_1-target.png,250,4.0035,8.0,2074,251,meters,jsons/v1_VE250_randls_38.json,389198,2874272,46,Woman
96,988435,DepthScenes,duration_manipulation_targetAtFixation,jsons/v1_VE250_randls_38.json,http://54.235.29.9/FacialAge/BNav_EC2/DepthDuration/v2_depth_duration_MTurk/v2_DepthDuration_HTML.html#24,24,1440,789,1440,900,8-20-2022,11-1-7,97,depth_duration_stimuli/002570_2014-06-24_13-59-54_094959634447_rgbf000059-resize_0/002570_2014-06-24_13-59-54_094959634447_rgbf000059-resize_0-target.png,250,4.037,7.0,1586,250,meters,jsons/v1_VE250_randls_38.json,389198,2874272,46,Woman
97,988435,DepthScenes,duration_manipulation_targetAtFixation,jsons/v1_VE250_randls_38.json,http://54.235.29.9/FacialAge/BNav_EC2/DepthDuration/v2_depth_duration_MTurk/v2_DepthDuration_HTML.html#24,24,1440,789,1440,900,8-20-2022,11-1-7,98,depth_duration_stimuli/002467_2014-06-28_20-38-07_260595134347_rgbf000026-resize_2/002467_2014-06-28_20-38-07_260595134347_rgbf000026-resize_2-target.png,250,4.742,6.0,1736,249,meters,jsons/v1_VE250_randls_38.json,389198,2874272,46,Woman
98,988435,DepthScenes,duration_manipulation_targetAtFixation,jsons/v1_VE250_randls_38.json,http://54.235.29.9/FacialAge/BNav_EC2/DepthDuration/v2_depth_duration_MTurk/v2_DepthDuration_HTML.html#24,24,1440,789,1440,900,8-20-2022,11-1-7,99,depth_duration_stimuli/001540_2014-06-20_17-01-05_260595134347_rgbf000086-resize_2/001540_2014-06-20_17-01-05_260595134347_rgbf000086-resize-original.jpg,250,1.459,5.0,1650,250,meters,jsons/v1_VE250_randls_38.json,389198,2874272,46,Woman
99,988435,DepthScenes,duration_manipulation_targetAtFixation,jsons/v1_VE250_randls_38.json,http://54.235.29.9/FacialAge/BNav_EC2/DepthDuration/v2_depth_duration_MTurk/v2_DepthDuration_HTML.html#24,24,1440,789,1440,900,8-20-2022,11-1-7,100,depth_duration_stimuli/002057_2014-06-24_21-00-13_260595134347_rgbf000120-resize_1/002057_2014-06-24_21-00-13_260595134347_rgbf000120-resize_1-target.png,250,2.967,4.0,2035,249,meters,jsons/v1_VE250_randls_38.json,389198,2874272,46,Woman
100,988435,DepthScenes,duration_manipulation_targetAtFixation,jsons/v1_VE250_randls_38.json,http://54.235.29.9/FacialAge/BNav_EC2/DepthDuration/v2_depth_duration_MTurk/v2_DepthDuration_HTML.html#24,24,1440,789,1440,900,8-20-2022,11-1-7,101,depth_duration_stimuli/000709_2014-06-08_13-51-55_260595134347_rgbf000068-resize_3/000709_2014-06-08_13-51-55_260595134347_rgbf000068-resize_3-target.png,250,1.8030000000000002,3.0,1779,252,meters,jsons/v1_VE250_randls_38.json,389198,2874272,46,Woman
101,988435,DepthScenes,duration_manipulation_targetAtFixation,jsons/v1_VE250_randls_38.json,http://54.235.29.9/FacialAge/BNav_EC2/DepthDuration/v2_depth_duration_MTurk/v2_DepthDuration_HTML.html#24,24,1440,789,1440,900,8-20-2022,11-1-7,102,depth_duration_stimuli/002663_2014-06-13_15-50-26_094959634447_rgbf000075-resize_1/002663_2014-06-13_15-50-26_094959634447_rgbf000075-resize_1-target.png,250,4.7495,2.0,1753,251,meters,jsons/v1_VE250_randls_38.json,389198,2874272,46,Woman
102,988435,DepthScenes,duration_manipulation_targetAtFixation,jsons/v1_VE250_randls_38.json,http://54.235.29.9/FacialAge/BNav_EC2/DepthDuration/v2_depth_duration_MTurk/v2_DepthDuration_HTML.html#24,24,1440,789,1440,900,8-20-2022,11-1-7,103,depth_duration_stimuli/000409_2014-06-04_19-23-33_260595134347_rgbf000067-resize_0/000409_2014-06-04_19-23-33_260595134347_rgbf000067-resize_0-target.png,250,3.7335,1.0,1795,250,meters,jsons/v1_VE250_randls_38.json,389198,2874272,46,Woman
103,988435,DepthScenes,duration_manipulation_targetAtFixation,jsons/v1_VE250_randls_38.json,http://54.235.29.9/FacialAge/BNav_EC2/DepthDuration/v2_depth_duration_MTurk/v2_DepthDuration_HTML.html#24,24,1440,789,1440,900,8-20-2022,11-1-7,104,depth_duration_stimuli/003492_2014-05-21_15-50-55_094959634447_rgbf000828-resize_1/003492_2014-05-21_15-50-55_094959634447_rgbf000828-resize_1-target.png,250,4.06875,9.0,1579,251,meters,jsons/v1_VE250_randls_38.json,389198,2874272,46,Woman
104,988435,DepthScenes,duration_manipulation_targetAtFixation,jsons/v1_VE250_randls_38.json,http://54.235.29.9/FacialAge/BNav_EC2/DepthDuration/v2_depth_duration_MTurk/v2_DepthDuration_HTML.html#24,24,1440,789,1440,900,8-20-2022,11-1-7,105,depth_duration_stimuli/002568_2014-06-24_13-59-21_094959634447_rgbf000062-resize_4/002568_2014-06-24_13-59-21_094959634447_rgbf000062-resize_4-target.png,250,3.015,8.0,1723,250,meters,jsons/v1_VE250_randls_38.json,389198,2874272,46,Woman
105,988435,DepthScenes,duration_manipulation_targetAtFixation,jsons/v1_VE250_randls_38.json,http://54.235.29.9/FacialAge/BNav_EC2/DepthDuration/v2_depth_duration_MTurk/v2_DepthDuration_HTML.html#24,24,1440,789,1440,900,8-20-2022,11-1-7,106,depth_duration_stimuli/000878_2014-06-08_22-52-45_260595134347_rgbf000045-resize_2/000878_2014-06-08_22-52-45_260595134347_rgbf000045-resize_2-target.png,250,2.092,7.0,1866,249,meters,jsons/v1_VE250_randls_38.json,389198,2874272,46,Woman
106,988435,DepthScenes,duration_manipulation_targetAtFixation,jsons/v1_VE250_randls_38.json,http://54.235.29.9/FacialAge/BNav_EC2/DepthDuration/v2_depth_duration_MTurk/v2_DepthDuration_HTML.html#24,24,1440,789,1440,900,8-20-2022,11-1-7,107,depth_duration_stimuli/002953_2014-06-08_17-32-18_094959634447_rgbf000059-resize_5/002953_2014-06-08_17-32-18_094959634447_rgbf000059-resize_5-target.png,250,1.551,6.0,1729,249,meters,jsons/v1_VE250_randls_38.json,389198,2874272,46,Woman
107,988435,DepthScenes,duration_manipulation_targetAtFixation,jsons/v1_VE250_randls_38.json,http://54.235.29.9/FacialAge/BNav_EC2/DepthDuration/v2_depth_duration_MTurk/v2_DepthDuration_HTML.html#24,24,1440,789,1440,900,8-20-2022,11-1-7,108,depth_duration_stimuli/000682_2014-06-08_23-14-58_260595134347_rgbf000041-resize_5/000682_2014-06-08_23-14-58_260595134347_rgbf000041-resize_5-target.png,250,2.7239999999999998,5.0,1595,249,meters,jsons/v1_VE250_randls_38.json,389198,2874272,46,Woman
108,988435,DepthScenes,duration_manipulation_targetAtFixation,jsons/v1_VE250_randls_38.json,http://54.235.29.9/FacialAge/BNav_EC2/DepthDuration/v2_depth_duration_MTurk/v2_DepthDuration_HTML.html#24,24,1440,789,1440,900,8-20-2022,11-1-7,109,depth_duration_stimuli/001650_2014-06-20_12-09-00_260595134347_rgbf000087-resize_3/001650_2014-06-20_12-09-00_260595134347_rgbf000087-resize_3-target.png,250,1.9505,4.0,1673,249,meters,jsons/v1_VE250_randls_38.json,389198,2874272,46,Woman
109,988435,DepthScenes,duration_manipulation_targetAtFixation,jsons/v1_VE250_randls_38.json,http://54.235.29.9/FacialAge/BNav_EC2/DepthDuration/v2_depth_duration_MTurk/v2_DepthDuration_HTML.html#24,24,1440,789,1440,900,8-20-2022,11-1-7,110,depth_duration_stimuli/001158_2014-06-17_15-32-16_260595134347_rgbf000138-resize_2/001158_2014-06-17_15-32-16_260595134347_rgbf000138-resize_2-target.png,250,4.5315,3.0,1498,248,meters,jsons/v1_VE250_randls_38.json,389198,2874272,46,Woman
110,988435,DepthScenes,duration_manipulation_targetAtFixation,jsons/v1_VE250_randls_38.json,http://54.235.29.9/FacialAge/BNav_EC2/DepthDuration/v2_depth_duration_MTurk/v2_DepthDuration_HTML.html#24,24,1440,789,1440,900,8-20-2022,11-1-7,111,depth_duration_stimuli/000556_2014-06-09_22-42-56_260595134347_rgbf000214-resize_1/000556_2014-06-09_22-42-56_260595134347_rgbf000214-resize_1-target.png,250,4.8415,2.0,1583,248,meters,jsons/v1_VE250_randls_38.json,389198,2874272,46,Woman
111,988435,DepthScenes,duration_manipulation_targetAtFixation,jsons/v1_VE250_randls_38.json,http://54.235.29.9/FacialAge/BNav_EC2/DepthDuration/v2_depth_duration_MTurk/v2_DepthDuration_HTML.html#24,24,1440,789,1440,900,8-20-2022,11-1-7,112,depth_duration_stimuli/001175_2014-06-17_15-45-55_260595134347_rgbf000129-resize_4/001175_2014-06-17_15-45-55_260595134347_rgbf000129-resize_4-target.png,250,4.255,1.0,1652,248,meters,jsons/v1_VE250_randls_38.json,389198,2874272,46,Woman
112,988435,DepthScenes,duration_manipulation_targetAtFixation,jsons/v1_VE250_randls_38.json,http://54.235.29.9/FacialAge/BNav_EC2/DepthDuration/v2_depth_duration_MTurk/v2_DepthDuration_HTML.html#24,24,1440,789,1440,900,8-20-2022,11-1-7,113,depth_duration_stimuli/003490_2014-05-21_15-50-11_094959634447_rgbf000101-resize_3/003490_2014-05-21_15-50-11_094959634447_rgbf000101-resize_3-target.png,250,3.6445,9.0,1586,249,meters,jsons/v1_VE250_randls_38.json,389198,2874272,46,Woman
113,988435,DepthScenes,duration_manipulation_targetAtFixation,jsons/v1_VE250_randls_38.json,http://54.235.29.9/FacialAge/BNav_EC2/DepthDuration/v2_depth_duration_MTurk/v2_DepthDuration_HTML.html#24,24,1440,789,1440,900,8-20-2022,11-1-7,114,depth_duration_stimuli/000758_2014-06-08_22-05-08_260595134347_rgbf000085-resize_0/000758_2014-06-08_22-05-08_260595134347_rgbf000085-resize_0-target.png,250,3.3810000000000002,8.0,1770,249,meters,jsons/v1_VE250_randls_38.json,389198,2874272,46,Woman
114,988435,DepthScenes,duration_manipulation_targetAtFixation,jsons/v1_VE250_randls_38.json,http://54.235.29.9/FacialAge/BNav_EC2/DepthDuration/v2_depth_duration_MTurk/v2_DepthDuration_HTML.html#24,24,1440,789,1440,900,8-20-2022,11-1-7,115,depth_duration_stimuli/000854_2014-06-09_19-43-13_260595134347_rgbf000066-resize_0/000854_2014-06-09_19-43-13_260595134347_rgbf000066-resize_0-target.png,250,3.068,7.0,1651,250,meters,jsons/v1_VE250_randls_38.json,389198,2874272,46,Woman
115,988435,DepthScenes,duration_manipulation_targetAtFixation,jsons/v1_VE250_randls_38.json,http://54.235.29.9/FacialAge/BNav_EC2/DepthDuration/v2_depth_duration_MTurk/v2_DepthDuration_HTML.html#24,24,1440,789,1440,900,8-20-2022,11-1-7,116,depth_duration_stimuli/001170_2014-06-17_15-43-44_260595134347_rgbf000096-resize_6/001170_2014-06-17_15-43-44_260595134347_rgbf000096-resize-original.jpg,250,1.1909999999999998,6.0,2187,249,meters,jsons/v1_VE250_randls_38.json,389198,2874272,46,Woman
116,988435,DepthScenes,duration_manipulation_targetAtFixation,jsons/v1_VE250_randls_38.json,http://54.235.29.9/FacialAge/BNav_EC2/DepthDuration/v2_depth_duration_MTurk/v2_DepthDuration_HTML.html#24,24,1440,789,1440,900,8-20-2022,11-1-7,117,depth_duration_stimuli/000739_2014-06-08_18-45-58_260595134347_rgbf000068-resize_1/000739_2014-06-08_18-45-58_260595134347_rgbf000068-resize_1-target.png,250,3.534,5.0,1688,250,meters,jsons/v1_VE250_randls_38.json,389198,2874272,46,Woman
117,988435,DepthScenes,duration_manipulation_targetAtFixation,jsons/v1_VE250_randls_38.json,http://54.235.29.9/FacialAge/BNav_EC2/DepthDuration/v2_depth_duration_MTurk/v2_DepthDuration_HTML.html#24,24,1440,789,1440,900,8-20-2022,11-1-7,118,depth_duration_stimuli/000734_2014-06-08_17-39-11_260595134347_rgbf000128-resize_2/000734_2014-06-08_17-39-11_260595134347_rgbf000128-resize_2-target.png,250,4.098,4.0,1689,248,meters,jsons/v1_VE250_randls_38.json,389198,2874272,46,Woman
118,988435,DepthScenes,duration_manipulation_targetAtFixation,jsons/v1_VE250_randls_38.json,http://54.235.29.9/FacialAge/BNav_EC2/DepthDuration/v2_depth_duration_MTurk/v2_DepthDuration_HTML.html#24,24,1440,789,1440,900,8-20-2022,11-1-7,119,depth_duration_stimuli/003070_2014-06-15_14-58-27_094959634447_rgbf000150-resize_3/003070_2014-06-15_14-58-27_094959634447_rgbf000150-resize_3-target.png,250,2.9415,3.0,1632,251,meters,jsons/v1_VE250_randls_38.json,389198,2874272,46,Woman
119,988435,DepthScenes,duration_manipulation_targetAtFixation,jsons/v1_VE250_randls_38.json,http://54.235.29.9/FacialAge/BNav_EC2/DepthDuration/v2_depth_duration_MTurk/v2_DepthDuration_HTML.html#24,24,1440,789,1440,900,8-20-2022,11-1-7,120,depth_duration_stimuli/000943_2014-06-09_19-31-07_260595134347_rgbf000128-resize_1/000943_2014-06-09_19-31-07_260595134347_rgbf000128-resize_1-target.png,250,1.9765,2.0,1817,248,meters,jsons/v1_VE250_randls_38.json,389198,2874272,46,Woman
120,988435,DepthScenes,duration_manipulation_targetAtFixation,jsons/v1_VE250_randls_38.json,http://54.235.29.9/FacialAge/BNav_EC2/DepthDuration/v2_depth_duration_MTurk/v2_DepthDuration_HTML.html#24,24,1440,789,1440,900,8-20-2022,11-1-7,121,depth_duration_stimuli/001059_2014-06-08_21-53-27_260595134347_rgbf000061-resize_4/001059_2014-06-08_21-53-27_260595134347_rgbf000061-resize_4-target.png,250,2.4185,1.0,2440,249,meters,jsons/v1_VE250_randls_38.json,389198,2874272,46,Woman
121,988435,DepthScenes,duration_manipulation_targetAtFixation,jsons/v1_VE250_randls_38.json,http://54.235.29.9/FacialAge/BNav_EC2/DepthDuration/v2_depth_duration_MTurk/v2_DepthDuration_HTML.html#24,24,1440,789,1440,900,8-20-2022,11-1-7,122,depth_duration_stimuli/001032_2014-06-08_13-23-17_260595134347_rgbf000021-resize_3/001032_2014-06-08_13-23-17_260595134347_rgbf000021-resize_3-target.png,250,3.2725,9.0,1645,253,meters,jsons/v1_VE250_randls_38.json,389198,2874272,46,Woman
122,988435,DepthScenes,duration_manipulation_targetAtFixation,jsons/v1_VE250_randls_38.json,http://54.235.29.9/FacialAge/BNav_EC2/DepthDuration/v2_depth_duration_MTurk/v2_DepthDuration_HTML.html#24,24,1440,789,1440,900,8-20-2022,11-1-7,123,depth_duration_stimuli/002763_2014-06-22_19-13-10_094959634447_rgbf000075-resize_4/002763_2014-06-22_19-13-10_094959634447_rgbf000075-resize_4-target.png,250,1.68375,8.0,1720,250,meters,jsons/v1_VE250_randls_38.json,389198,2874272,46,Woman
123,988435,DepthScenes,duration_manipulation_targetAtFixation,jsons/v1_VE250_randls_38.json,http://54.235.29.9/FacialAge/BNav_EC2/DepthDuration/v2_depth_duration_MTurk/v2_DepthDuration_HTML.html#24,24,1440,789,1440,900,8-20-2022,11-1-7,124,depth_duration_stimuli/002209_2014-06-28_18-36-10_260595134347_rgbf000051-resize_1/002209_2014-06-28_18-36-10_260595134347_rgbf000051-resize_1-target.png,250,2.057,7.0,1603,240,meters,jsons/v1_VE250_randls_38.json,389198,2874272,46,Woman
124,988435,DepthScenes,duration_manipulation_targetAtFixation,jsons/v1_VE250_randls_38.json,http://54.235.29.9/FacialAge/BNav_EC2/DepthDuration/v2_depth_duration_MTurk/v2_DepthDuration_HTML.html#24,24,1440,789,1440,900,8-20-2022,11-1-7,125,depth_duration_stimuli/002509_2014-06-24_13-19-22_094959634447_rgbf000077-resize_0/002509_2014-06-24_13-19-22_094959634447_rgbf000077-resize_0-target.png,250,1.3065,6.0,1708,250,meters,jsons/v1_VE250_randls_38.json,389198,2874272,46,Woman
125,988435,DepthScenes,duration_manipulation_targetAtFixation,jsons/v1_VE250_randls_38.json,http://54.235.29.9/FacialAge/BNav_EC2/DepthDuration/v2_depth_duration_MTurk/v2_DepthDuration_HTML.html#24,24,1440,789,1440,900,8-20-2022,11-1-7,126,depth_duration_stimuli/003338_2014-05-20_11-01-23_094959634447_rgbf000051-resize_6/003338_2014-05-20_11-01-23_094959634447_rgbf000051-resize_6-target.png,250,1.693,5.0,1865,250,meters,jsons/v1_VE250_randls_38.json,389198,2874272,46,Woman
126,988435,DepthScenes,duration_manipulation_targetAtFixation,jsons/v1_VE250_randls_38.json,http://54.235.29.9/FacialAge/BNav_EC2/DepthDuration/v2_depth_duration_MTurk/v2_DepthDuration_HTML.html#24,24,1440,789,1440,900,8-20-2022,11-1-7,127,depth_duration_stimuli/002784_2014-06-22_19-26-30_094959634447_rgbf000083-resize_3/002784_2014-06-22_19-26-30_094959634447_rgbf000083-resize_3-target.png,250,1.8046666666667,4.0,1729,249,meters,jsons/v1_VE250_randls_38.json,389198,2874272,46,Woman
127,988435,DepthScenes,duration_manipulation_targetAtFixation,jsons/v1_VE250_randls_38.json,http://54.235.29.9/FacialAge/BNav_EC2/DepthDuration/v2_depth_duration_MTurk/v2_DepthDuration_HTML.html#24,24,1440,789,1440,900,8-20-2022,11-1-7,128,depth_duration_stimuli/001100_2014-06-15_17-46-26_260595134347_rgbf000225-resize_2/001100_2014-06-15_17-46-26_260595134347_rgbf000225-resize_2-target.png,250,2.24,3.0,1549,241,meters,jsons/v1_VE250_randls_38.json,389198,2874272,46,Woman
128,988435,DepthScenes,duration_manipulation_targetAtFixation,jsons/v1_VE250_randls_38.json,http://54.235.29.9/FacialAge/BNav_EC2/DepthDuration/v2_depth_duration_MTurk/v2_DepthDuration_HTML.html#24,24,1440,789,1440,900,8-20-2022,11-1-7,129,depth_duration_stimuli/002153_2014-06-25_21-27-18_260595134347_rgbf000038-resize_5/002153_2014-06-25_21-27-18_260595134347_rgbf000038-resize_5-target.png,250,2.505,2.0,1582,248,meters,jsons/v1_VE250_randls_38.json,389198,2874272,46,Woman
129,988435,DepthScenes,duration_manipulation_targetAtFixation,jsons/v1_VE250_randls_38.json,http://54.235.29.9/FacialAge/BNav_EC2/DepthDuration/v2_depth_duration_MTurk/v2_DepthDuration_HTML.html#24,24,1440,789,1440,900,8-20-2022,11-1-7,130,depth_duration_stimuli/002660_2014-06-13_15-44-18_094959634447_rgbf001878-resize_2/002660_2014-06-13_15-44-18_094959634447_rgbf001878-resize_2-target.png,250,3.576,1.0,1614,251,meters,jsons/v1_VE250_randls_38.json,389198,2874272,46,Woman
130,988435,DepthScenes,duration_manipulation_targetAtFixation,jsons/v1_VE250_randls_38.json,http://54.235.29.9/FacialAge/BNav_EC2/DepthDuration/v2_depth_duration_MTurk/v2_DepthDuration_HTML.html#24,24,1440,789,1440,900,8-20-2022,11-1-7,131,depth_duration_stimuli/001417_2014-06-19_16-25-36_260595134347_rgbf000115-resize_5/001417_2014-06-19_16-25-36_260595134347_rgbf000115-resize_5-target.png,250,4.6255,9.0,1893,249,meters,jsons/v1_VE250_randls_38.json,389198,2874272,46,Woman
131,988435,DepthScenes,duration_manipulation_targetAtFixation,jsons/v1_VE250_randls_38.json,http://54.235.29.9/FacialAge/BNav_EC2/DepthDuration/v2_depth_duration_MTurk/v2_DepthDuration_HTML.html#24,24,1440,789,1440,900,8-20-2022,11-1-7,132,depth_duration_stimuli/003081_2014-06-15_15-19-16_094959634447_rgbf000150-resize_1/003081_2014-06-15_15-19-16_094959634447_rgbf000150-resize_1-target.png,250,3.9125,8.0,1690,250,meters,jsons/v1_VE250_randls_38.json,389198,2874272,46,Woman
132,988435,DepthScenes,duration_manipulation_targetAtFixation,jsons/v1_VE250_randls_38.json,http://54.235.29.9/FacialAge/BNav_EC2/DepthDuration/v2_depth_duration_MTurk/v2_DepthDuration_HTML.html#24,24,1440,789,1440,900,8-20-2022,11-1-7,133,depth_duration_stimuli/001110_2014-06-15_17-25-28_260595134347_rgbf000150-resize_1/001110_2014-06-15_17-25-28_260595134347_rgbf000150-resize_1-target.png,250,1.7115,7.0,1859,249,meters,jsons/v1_VE250_randls_38.json,389198,2874272,46,Woman
133,988435,DepthScenes,duration_manipulation_targetAtFixation,jsons/v1_VE250_randls_38.json,http://54.235.29.9/FacialAge/BNav_EC2/DepthDuration/v2_depth_duration_MTurk/v2_DepthDuration_HTML.html#24,24,1440,789,1440,900,8-20-2022,11-1-7,134,depth_duration_stimuli/000927_2014-06-09_16-32-30_260595134347_rgbf000123-resize_3/000927_2014-06-09_16-32-30_260595134347_rgbf000123-resize_3-target.png,250,2.6785,6.0,1973,244,meters,jsons/v1_VE250_randls_38.json,389198,2874272,46,Woman
134,988435,DepthScenes,duration_manipulation_targetAtFixation,jsons/v1_VE250_randls_38.json,http://54.235.29.9/FacialAge/BNav_EC2/DepthDuration/v2_depth_duration_MTurk/v2_DepthDuration_HTML.html#24,24,1440,789,1440,900,8-20-2022,11-1-7,135,depth_duration_stimuli/002072_2014-06-24_21-48-06_260595134347_rgbf000115-resize_0/002072_2014-06-24_21-48-06_260595134347_rgbf000115-resize-original.jpg,250,4.702,5.0,1888,249,meters,jsons/v1_VE250_randls_38.json,389198,2874272,46,Woman
135,988435,DepthScenes,duration_manipulation_targetAtFixation,jsons/v1_VE250_randls_38.json,http://54.235.29.9/FacialAge/BNav_EC2/DepthDuration/v2_depth_duration_MTurk/v2_DepthDuration_HTML.html#24,24,1440,789,1440,900,8-20-2022,11-1-7,136,depth_duration_stimuli/000368_2014-06-09_15-53-01_260595134347_rgbf000155-resize_2/000368_2014-06-09_15-53-01_260595134347_rgbf000155-resize_2-target.png,250,2.4859999999999998,4.0,1762,251,meters,jsons/v1_VE250_randls_38.json,389198,2874272,46,Woman
136,988435,DepthScenes,duration_manipulation_targetAtFixation,jsons/v1_VE250_randls_38.json,http://54.235.29.9/FacialAge/BNav_EC2/DepthDuration/v2_depth_duration_MTurk/v2_DepthDuration_HTML.html#24,24,1440,789,1440,900,8-20-2022,11-1-7,137,depth_duration_stimuli/002678_2014-06-13_16-15-32_094959634447_rgbf000151-resize_6/002678_2014-06-13_16-15-32_094959634447_rgbf000151-resize_6-target.png,250,2.1830000000000003,3.0,2139,248,meters,jsons/v1_VE250_randls_38.json,389198,2874272,46,Woman
137,988435,DepthScenes,duration_manipulation_targetAtFixation,jsons/v1_VE250_randls_38.json,http://54.235.29.9/FacialAge/BNav_EC2/DepthDuration/v2_depth_duration_MTurk/v2_DepthDuration_HTML.html#24,24,1440,789,1440,900,8-20-2022,11-1-7,138,depth_duration_stimuli/002725_2014-06-22_11-47-51_094959634447_rgbf000070-resize_1/002725_2014-06-22_11-47-51_094959634447_rgbf000070-resize_1-target.png,250,2.195,2.0,1426,250,meters,jsons/v1_VE250_randls_38.json,389198,2874272,46,Woman
138,988435,DepthScenes,duration_manipulation_targetAtFixation,jsons/v1_VE250_randls_38.json,http://54.235.29.9/FacialAge/BNav_EC2/DepthDuration/v2_depth_duration_MTurk/v2_DepthDuration_HTML.html#24,24,1440,789,1440,900,8-20-2022,11-1-7,139,depth_duration_stimuli/002344_2014-06-28_20-06-29_260595134347_rgbf000030-resize_1/002344_2014-06-28_20-06-29_260595134347_rgbf000030-resize_1-target.png,250,1.5795,1.0,1881,249,meters,jsons/v1_VE250_randls_38.json,389198,2874272,46,Woman
139,988435,DepthScenes,duration_manipulation_targetAtFixation,jsons/v1_VE250_randls_38.json,http://54.235.29.9/FacialAge/BNav_EC2/DepthDuration/v2_depth_duration_MTurk/v2_DepthDuration_HTML.html#24,24,1440,789,1440,900,8-20-2022,11-1-7,140,depth_duration_stimuli/000414_2014-06-04_19-49-13_260595134347_rgbf000044-resize_0/000414_2014-06-04_19-49-13_260595134347_rgbf000044-resize_0-target.png,250,4.329,9.0,1819,249,meters,jsons/v1_VE250_randls_38.json,389198,2874272,46,Woman
140,988435,DepthScenes,duration_manipulation_targetAtFixation,jsons/v1_VE250_randls_38.json,http://54.235.29.9/FacialAge/BNav_EC2/DepthDuration/v2_depth_duration_MTurk/v2_DepthDuration_HTML.html#24,24,1440,789,1440,900,8-20-2022,11-1-7,141,depth_duration_stimuli/003129_2014-05-12_10-48-10_094959634447_rgbf000100-resize_0/003129_2014-05-12_10-48-10_094959634447_rgbf000100-resize_0-target.png,250,4.9305,8.0,1651,249,meters,jsons/v1_VE250_randls_38.json,389198,2874272,46,Woman
141,988435,DepthScenes,duration_manipulation_targetAtFixation,jsons/v1_VE250_randls_38.json,http://54.235.29.9/FacialAge/BNav_EC2/DepthDuration/v2_depth_duration_MTurk/v2_DepthDuration_HTML.html#24,24,1440,789,1440,900,8-20-2022,11-1-7,142,depth_duration_stimuli/002630_2014-06-24_14-47-50_094959634447_rgbf000055-resize_1/002630_2014-06-24_14-47-50_094959634447_rgbf000055-resize_1-target.png,250,3.0095,7.0,1768,249,meters,jsons/v1_VE250_randls_38.json,389198,2874272,46,Woman
142,988435,DepthScenes,duration_manipulation_targetAtFixation,jsons/v1_VE250_randls_38.json,http://54.235.29.9/FacialAge/BNav_EC2/DepthDuration/v2_depth_duration_MTurk/v2_DepthDuration_HTML.html#24,24,1440,789,1440,900,8-20-2022,11-1-7,143,depth_duration_stimuli/002758_2014-06-22_19-11-20_094959634447_rgbf000128-resize_1/002758_2014-06-22_19-11-20_094959634447_rgbf000128-resize_1-target.png,250,2.555,6.0,1955,250,meters,jsons/v1_VE250_randls_38.json,389198,2874272,46,Woman
143,988435,DepthScenes,duration_manipulation_targetAtFixation,jsons/v1_VE250_randls_38.json,http://54.235.29.9/FacialAge/BNav_EC2/DepthDuration/v2_depth_duration_MTurk/v2_DepthDuration_HTML.html#24,24,1440,789,1440,900,8-20-2022,11-1-7,144,depth_duration_stimuli/001244_2014-06-17_16-47-45_260595134347_rgbf000030-resize_4/001244_2014-06-17_16-47-45_260595134347_rgbf000030-resize_4-target.png,250,2.0425,5.0,2147,251,meters,jsons/v1_VE250_randls_38.json,389198,2874272,46,Woman
144,988435,DepthScenes,duration_manipulation_targetAtFixation,jsons/v1_VE250_randls_38.json,http://54.235.29.9/FacialAge/BNav_EC2/DepthDuration/v2_depth_duration_MTurk/v2_DepthDuration_HTML.html#24,24,1440,789,1440,900,8-20-2022,11-1-7,145,depth_duration_stimuli/003495_2014-05-21_16-01-51_094959634447_rgbf000100-resize_3/003495_2014-05-21_16-01-51_094959634447_rgbf000100-resize_3-target.png,250,1.6255,4.0,1851,255,meters,jsons/v1_VE250_randls_38.json,389198,2874272,46,Woman
145,988435,DepthScenes,duration_manipulation_targetAtFixation,jsons/v1_VE250_randls_38.json,http://54.235.29.9/FacialAge/BNav_EC2/DepthDuration/v2_depth_duration_MTurk/v2_DepthDuration_HTML.html#24,24,1440,789,1440,900,8-20-2022,11-1-7,146,depth_duration_stimuli/001498_2014-06-19_17-45-14_260595134347_rgbf000129-resize_4/001498_2014-06-19_17-45-14_260595134347_rgbf000129-resize-original.jpg,250,1.4075,3.0,1802,249,meters,jsons/v1_VE250_randls_38.json,389198,2874272,46,Woman
146,988435,DepthScenes,duration_manipulation_targetAtFixation,jsons/v1_VE250_randls_38.json,http://54.235.29.9/FacialAge/BNav_EC2/DepthDuration/v2_depth_duration_MTurk/v2_DepthDuration_HTML.html#24,24,1440,789,1440,900,8-20-2022,11-1-7,147,depth_duration_stimuli/000486_2014-06-09_20-47-20_260595134347_rgbf000143-resize_2/000486_2014-06-09_20-47-20_260595134347_rgbf000143-resize_2-target.png,250,4.8325,2.0,1417,249,meters,jsons/v1_VE250_randls_38.json,389198,2874272,46,Woman
147,988435,DepthScenes,duration_manipulation_targetAtFixation,jsons/v1_VE250_randls_38.json,http://54.235.29.9/FacialAge/BNav_EC2/DepthDuration/v2_depth_duration_MTurk/v2_DepthDuration_HTML.html#24,24,1440,789,1440,900,8-20-2022,11-1-7,148,depth_duration_stimuli/003083_2014-06-15_15-21-03_094959634447_rgbf000063-resize_1/003083_2014-06-15_15-21-03_094959634447_rgbf000063-resize_1-target.png,250,4.1405,1.0,1684,249,meters,jsons/v1_VE250_randls_38.json,389198,2874272,46,Woman
148,988435,DepthScenes,duration_manipulation_targetAtFixation,jsons/v1_VE250_randls_38.json,http://54.235.29.9/FacialAge/BNav_EC2/DepthDuration/v2_depth_duration_MTurk/v2_DepthDuration_HTML.html#24,24,1440,789,1440,900,8-20-2022,11-1-7,149,depth_duration_stimuli/002989_2014-06-15_12-25-03_094959634447_rgbf000150-resize_3/002989_2014-06-15_12-25-03_094959634447_rgbf000150-resize_3-target.png,250,4.1975,9.0,1483,234,meters,jsons/v1_VE250_randls_38.json,389198,2874272,46,Woman
149,988435,DepthScenes,duration_manipulation_targetAtFixation,jsons/v1_VE250_randls_38.json,http://54.235.29.9/FacialAge/BNav_EC2/DepthDuration/v2_depth_duration_MTurk/v2_DepthDuration_HTML.html#24,24,1440,789,1440,900,8-20-2022,11-1-7,150,depth_duration_stimuli/000866_2014-06-09_20-45-42_260595134347_rgbf000139-resize_1/000866_2014-06-09_20-45-42_260595134347_rgbf000139-resize_1-target.png,250,3.2155,8.0,1706,250,meters,jsons/v1_VE250_randls_38.json,389198,2874272,46,Woman
150,988435,DepthScenes,duration_manipulation_targetAtFixation,jsons/v1_VE250_randls_38.json,http://54.235.29.9/FacialAge/BNav_EC2/DepthDuration/v2_depth_duration_MTurk/v2_DepthDuration_HTML.html#24,24,1440,789,1440,900,8-20-2022,11-1-7,151,depth_duration_stimuli/000773_2014-06-08_22-24-54_260595134347_rgbf000093-resize_1/000773_2014-06-08_22-24-54_260595134347_rgbf000093-resize_1-target.png,250,4.973,7.0,1698,249,meters,jsons/v1_VE250_randls_38.json,389198,2874272,46,Woman
151,988435,DepthScenes,duration_manipulation_targetAtFixation,jsons/v1_VE250_randls_38.json,http://54.235.29.9/FacialAge/BNav_EC2/DepthDuration/v2_depth_duration_MTurk/v2_DepthDuration_HTML.html#24,24,1440,789,1440,900,8-20-2022,11-1-7,152,depth_duration_stimuli/002414_2014-06-28_20-24-58_260595134347_rgbf000067-resize_4/002414_2014-06-28_20-24-58_260595134347_rgbf000067-resize_4-target.png,250,4.363,6.0,1761,249,meters,jsons/v1_VE250_randls_38.json,389198,2874272,46,Woman
152,988435,DepthScenes,duration_manipulation_targetAtFixation,jsons/v1_VE250_randls_38.json,http://54.235.29.9/FacialAge/BNav_EC2/DepthDuration/v2_depth_duration_MTurk/v2_DepthDuration_HTML.html#24,24,1440,789,1440,900,8-20-2022,11-1-7,153,depth_duration_stimuli/001570_2014-06-20_17-21-09_260595134347_rgbf000135-resize_4/001570_2014-06-20_17-21-09_260595134347_rgbf000135-resize_4-target.png,250,4.467,5.0,1786,248,meters,jsons/v1_VE250_randls_38.json,389198,2874272,46,Woman
153,988435,DepthScenes,duration_manipulation_targetAtFixation,jsons/v1_VE250_randls_38.json,http://54.235.29.9/FacialAge/BNav_EC2/DepthDuration/v2_depth_duration_MTurk/v2_DepthDuration_HTML.html#24,24,1440,789,1440,900,8-20-2022,11-1-7,154,depth_duration_stimuli/001392_2014-06-19_16-07-59_260595134347_rgbf000046-resize_1/001392_2014-06-19_16-07-59_260595134347_rgbf000046-resize_1-target.png,250,4.135,4.0,1316,251,meters,jsons/v1_VE250_randls_38.json,389198,2874272,46,Woman
154,988435,DepthScenes,duration_manipulation_targetAtFixation,jsons/v1_VE250_randls_38.json,http://54.235.29.9/FacialAge/BNav_EC2/DepthDuration/v2_depth_duration_MTurk/v2_DepthDuration_HTML.html#24,24,1440,789,1440,900,8-20-2022,11-1-7,155,depth_duration_stimuli/000906_2014-06-08_13-35-43_260595134347_rgbf000155-resize_1/000906_2014-06-08_13-35-43_260595134347_rgbf000155-resize_1-target.png,250,2.8489999999999998,3.0,1970,249,meters,jsons/v1_VE250_randls_38.json,389198,2874272,46,Woman
155,988435,DepthScenes,duration_manipulation_targetAtFixation,jsons/v1_VE250_randls_38.json,http://54.235.29.9/FacialAge/BNav_EC2/DepthDuration/v2_depth_duration_MTurk/v2_DepthDuration_HTML.html#24,24,1440,789,1440,900,8-20-2022,11-1-7,156,depth_duration_stimuli/002805_2014-06-22_19-54-03_094959634447_rgbf000079-resize_1/002805_2014-06-22_19-54-03_094959634447_rgbf000079-resize_1-target.png,250,3.1439999999999997,2.0,1849,250,meters,jsons/v1_VE250_randls_38.json,389198,2874272,46,Woman
156,988435,DepthScenes,duration_manipulation_targetAtFixation,jsons/v1_VE250_randls_38.json,http://54.235.29.9/FacialAge/BNav_EC2/DepthDuration/v2_depth_duration_MTurk/v2_DepthDuration_HTML.html#24,24,1440,789,1440,900,8-20-2022,11-1-7,157,depth_duration_stimuli/000469_2014-06-09_19-42-10_260595134347_rgbf000081-resize_1/000469_2014-06-09_19-42-10_260595134347_rgbf000081-resize_1-target.png,250,1.652,1.0,1731,251,meters,jsons/v1_VE250_randls_38.json,389198,2874272,46,Woman
157,988435,DepthScenes,duration_manipulation_targetAtFixation,jsons/v1_VE250_randls_38.json,http://54.235.29.9/FacialAge/BNav_EC2/DepthDuration/v2_depth_duration_MTurk/v2_DepthDuration_HTML.html#24,24,1440,789,1440,900,8-20-2022,11-1-7,158,depth_duration_stimuli/000483_2014-06-09_20-41-45_260595134347_rgbf000116-resize_4/000483_2014-06-09_20-41-45_260595134347_rgbf000116-resize_4-target.png,250,1.337,9.0,1498,249,meters,jsons/v1_VE250_randls_38.json,389198,2874272,46,Woman
158,988435,DepthScenes,duration_manipulation_targetAtFixation,jsons/v1_VE250_randls_38.json,http://54.235.29.9/FacialAge/BNav_EC2/DepthDuration/v2_depth_duration_MTurk/v2_DepthDuration_HTML.html#24,24,1440,789,1440,900,8-20-2022,11-1-7,159,depth_duration_stimuli/001029_2014-06-08_13-17-57_260595134347_rgbf000065-resize_1/001029_2014-06-08_13-17-57_260595134347_rgbf000065-resize_1-target.png,250,3.0835,8.0,1725,248,meters,jsons/v1_VE250_randls_38.json,389198,2874272,46,Woman
159,988435,DepthScenes,duration_manipulation_targetAtFixation,jsons/v1_VE250_randls_38.json,http://54.235.29.9/FacialAge/BNav_EC2/DepthDuration/v2_depth_duration_MTurk/v2_DepthDuration_HTML.html#24,24,1440,789,1440,900,8-20-2022,11-1-7,160,depth_duration_stimuli/000677_2014-06-08_23-10-32_260595134347_rgbf000158-resize_6/000677_2014-06-08_23-10-32_260595134347_rgbf000158-resize_6-target.png,250,3.556,7.0,1696,250,meters,jsons/v1_VE250_randls_38.json,389198,2874272,46,Woman
160,988435,DepthScenes,duration_manipulation_targetAtFixation,jsons/v1_VE250_randls_38.json,http://54.235.29.9/FacialAge/BNav_EC2/DepthDuration/v2_depth_duration_MTurk/v2_DepthDuration_HTML.html#24,24,1440,789,1440,900,8-20-2022,11-1-7,161,depth_duration_stimuli/000506_2014-06-08_23-21-00_260595134347_rgbf000070-resize_7/000506_2014-06-08_23-21-00_260595134347_rgbf000070-resize_7-target.png,250,4.0585,6.0,1593,250,meters,jsons/v1_VE250_randls_38.json,389198,2874272,46,Woman
161,988435,DepthScenes,duration_manipulation_targetAtFixation,jsons/v1_VE250_randls_38.json,http://54.235.29.9/FacialAge/BNav_EC2/DepthDuration/v2_depth_duration_MTurk/v2_DepthDuration_HTML.html#24,24,1440,789,1440,900,8-20-2022,11-1-7,162,depth_duration_stimuli/003079_2014-06-15_15-18-20_094959634447_rgbf000152-resize_8/003079_2014-06-15_15-18-20_094959634447_rgbf000152-resize_8-target.png,250,2.8775,5.0,1753,250,meters,jsons/v1_VE250_randls_38.json,389198,2874272,46,Woman
162,988435,DepthScenes,duration_manipulation_targetAtFixation,jsons/v1_VE250_randls_38.json,http://54.235.29.9/FacialAge/BNav_EC2/DepthDuration/v2_depth_duration_MTurk/v2_DepthDuration_HTML.html#24,24,1440,789,1440,900,8-20-2022,11-1-7,163,depth_duration_stimuli/002039_2014-06-24_20-22-38_260595134347_rgbf000084-resize_1/002039_2014-06-24_20-22-38_260595134347_rgbf000084-resize_1-target.png,250,4.408,4.0,1780,250,meters,jsons/v1_VE250_randls_38.json,389198,2874272,46,Woman
163,988435,DepthScenes,duration_manipulation_targetAtFixation,jsons/v1_VE250_randls_38.json,http://54.235.29.9/FacialAge/BNav_EC2/DepthDuration/v2_depth_duration_MTurk/v2_DepthDuration_HTML.html#24,24,1440,789,1440,900,8-20-2022,11-1-7,164,depth_duration_stimuli/002103_2014-06-25_20-00-40_260595134347_rgbf000049-resize_0/002103_2014-06-25_20-00-40_260595134347_rgbf000049-resize_0-target.png,250,4.105,3.0,1922,249,meters,jsons/v1_VE250_randls_38.json,389198,2874272,46,Woman
