,subjID,experimentName,versionName,sequenceName,url,selected_row,windowWidth,windowHeight,screenWidth,screenHeight,startDate,startTime,trial,stimulus,duration,actual_depth,depth_estimate,trial_RT,log_sceneDuration,unitSelection,seq_filepath,experimentTime,totalTime,age,gender
0,991770,DepthScenes,duration_manipulation_targetAtFixation,jsons/VE125_randls_12_rotated.json,http://54.235.29.9/FacialAge/BNav_EC2/DepthDuration/v2_depth_duration_MTurk/v2_DepthDuration_HTML.html#226,226,1366,625,1366,768,9-3-2022,9-22-36,1,depth_duration_stimuli/001235_2014-06-17_16-37-36_260595134347_rgbf000084-resize_4/001235_2014-06-17_16-37-36_260595134347_rgbf000084-resize_4-target.png,125,3.6605,2,2818,125,feet,jsons/VE125_randls_12_rotated.json,682381,860743,34,Man
1,991770,DepthScenes,duration_manipulation_targetAtFixation,jsons/VE125_randls_12_rotated.json,http://54.235.29.9/FacialAge/BNav_EC2/DepthDuration/v2_depth_duration_MTurk/v2_DepthDuration_HTML.html#226,226,1366,625,1366,768,9-3-2022,9-22-36,2,depth_duration_stimuli/000788_2014-06-08_22-34-36_260595134347_rgbf000131-resize_1/000788_2014-06-08_22-34-36_260595134347_rgbf000131-resize_1-target.png,125,3.359,3,2658,125,feet,jsons/VE125_randls_12_rotated.json,682381,860743,34,Man
2,991770,DepthScenes,duration_manipulation_targetAtFixation,jsons/VE125_randls_12_rotated.json,http://54.235.29.9/FacialAge/BNav_EC2/DepthDuration/v2_depth_duration_MTurk/v2_DepthDuration_HTML.html#226,226,1366,625,1366,768,9-3-2022,9-22-36,3,depth_duration_stimuli/000927_2014-06-09_16-32-30_260595134347_rgbf000123-resize_3/000927_2014-06-09_16-32-30_260595134347_rgbf000123-resize_3-target.png,125,2.6785,4,2679,126,feet,jsons/VE125_randls_12_rotated.json,682381,860743,34,Man
3,991770,DepthScenes,duration_manipulation_targetAtFixation,jsons/VE125_randls_12_rotated.json,http://54.235.29.9/FacialAge/BNav_EC2/DepthDuration/v2_depth_duration_MTurk/v2_DepthDuration_HTML.html#226,226,1366,625,1366,768,9-3-2022,9-22-36,4,depth_duration_stimuli/001110_2014-06-15_17-25-28_260595134347_rgbf000150-resize_1/001110_2014-06-15_17-25-28_260595134347_rgbf000150-resize_1-target.png,125,1.7115,2,2939,126,feet,jsons/VE125_randls_12_rotated.json,682381,860743,34,Man
4,991770,DepthScenes,duration_manipulation_targetAtFixation,jsons/VE125_randls_12_rotated.json,http://54.235.29.9/FacialAge/BNav_EC2/DepthDuration/v2_depth_duration_MTurk/v2_DepthDuration_HTML.html#226,226,1366,625,1366,768,9-3-2022,9-22-36,5,depth_duration_stimuli/000483_2014-06-09_20-41-45_260595134347_rgbf000116-resize_4/000483_2014-06-09_20-41-45_260595134347_rgbf000116-resize_4-target.png,125,1.337,2,2978,125,feet,jsons/VE125_randls_12_rotated.json,682381,860743,34,Man
5,991770,DepthScenes,duration_manipulation_targetAtFixation,jsons/VE125_randls_12_rotated.json,http://54.235.29.9/FacialAge/BNav_EC2/DepthDuration/v2_depth_duration_MTurk/v2_DepthDuration_HTML.html#226,226,1366,625,1366,768,9-3-2022,9-22-36,6,depth_duration_stimuli/000469_2014-06-09_19-42-10_260595134347_rgbf000081-resize_1/000469_2014-06-09_19-42-10_260595134347_rgbf000081-resize_1-target.png,125,1.652,2,2799,125,feet,jsons/VE125_randls_12_rotated.json,682381,860743,34,Man
6,991770,DepthScenes,duration_manipulation_targetAtFixation,jsons/VE125_randls_12_rotated.json,http://54.235.29.9/FacialAge/BNav_EC2/DepthDuration/v2_depth_duration_MTurk/v2_DepthDuration_HTML.html#226,226,1366,625,1366,768,9-3-2022,9-22-36,7,depth_duration_stimuli/001815_2014-06-26_20-52-55_260595134347_rgbf000020-resize_0/001815_2014-06-26_20-52-55_260595134347_rgbf000020-resize_0-target.png,125,3.3865,2,2788,123,feet,jsons/VE125_randls_12_rotated.json,682381,860743,34,Man
7,991770,DepthScenes,duration_manipulation_targetAtFixation,jsons/VE125_randls_12_rotated.json,http://54.235.29.9/FacialAge/BNav_EC2/DepthDuration/v2_depth_duration_MTurk/v2_DepthDuration_HTML.html#226,226,1366,625,1366,768,9-3-2022,9-22-36,8,depth_duration_stimuli/001808_2014-06-26_20-50-58_260595134347_rgbf000029-resize_1/001808_2014-06-26_20-50-58_260595134347_rgbf000029-resize_1-target.png,125,4.249,3,2648,123,feet,jsons/VE125_randls_12_rotated.json,682381,860743,34,Man
8,991770,DepthScenes,duration_manipulation_targetAtFixation,jsons/VE125_randls_12_rotated.json,http://54.235.29.9/FacialAge/BNav_EC2/DepthDuration/v2_depth_duration_MTurk/v2_DepthDuration_HTML.html#226,226,1366,625,1366,768,9-3-2022,9-22-36,9,depth_duration_stimuli/000734_2014-06-08_17-39-11_260595134347_rgbf000128-resize_2/000734_2014-06-08_17-39-11_260595134347_rgbf000128-resize_2-target.png,125,4.098,5,2639,126,feet,jsons/VE125_randls_12_rotated.json,682381,860743,34,Man
9,991770,DepthScenes,duration_manipulation_targetAtFixation,jsons/VE125_randls_12_rotated.json,http://54.235.29.9/FacialAge/BNav_EC2/DepthDuration/v2_depth_duration_MTurk/v2_DepthDuration_HTML.html#226,226,1366,625,1366,768,9-3-2022,9-22-36,10,depth_duration_stimuli/000739_2014-06-08_18-45-58_260595134347_rgbf000068-resize_1/000739_2014-06-08_18-45-58_260595134347_rgbf000068-resize_1-target.png,125,3.534,4,2757,123,feet,jsons/VE125_randls_12_rotated.json,682381,860743,34,Man
10,991770,DepthScenes,duration_manipulation_targetAtFixation,jsons/VE125_randls_12_rotated.json,http://54.235.29.9/FacialAge/BNav_EC2/DepthDuration/v2_depth_duration_MTurk/v2_DepthDuration_HTML.html#226,226,1366,625,1366,768,9-3-2022,9-22-36,11,depth_duration_stimuli/001032_2014-06-08_13-23-17_260595134347_rgbf000021-resize_3/001032_2014-06-08_13-23-17_260595134347_rgbf000021-resize_3-target.png,125,3.2725,4,2918,125,feet,jsons/VE125_randls_12_rotated.json,682381,860743,34,Man
11,991770,DepthScenes,duration_manipulation_targetAtFixation,jsons/VE125_randls_12_rotated.json,http://54.235.29.9/FacialAge/BNav_EC2/DepthDuration/v2_depth_duration_MTurk/v2_DepthDuration_HTML.html#226,226,1366,625,1366,768,9-3-2022,9-22-36,12,depth_duration_stimuli/001059_2014-06-08_21-53-27_260595134347_rgbf000061-resize_4/001059_2014-06-08_21-53-27_260595134347_rgbf000061-resize_4-target.png,125,2.4185,3,2879,125,feet,jsons/VE125_randls_12_rotated.json,682381,860743,34,Man
12,991770,DepthScenes,duration_manipulation_targetAtFixation,jsons/VE125_randls_12_rotated.json,http://54.235.29.9/FacialAge/BNav_EC2/DepthDuration/v2_depth_duration_MTurk/v2_DepthDuration_HTML.html#226,226,1366,625,1366,768,9-3-2022,9-22-36,13,depth_duration_stimuli/001447_2014-06-19_17-00-32_260595134347_rgbf000082-resize_5/001447_2014-06-19_17-00-32_260595134347_rgbf000082-resize_5-target.png,125,4.13775,4,3227,124,feet,jsons/VE125_randls_12_rotated.json,682381,860743,34,Man
13,991770,DepthScenes,duration_manipulation_targetAtFixation,jsons/VE125_randls_12_rotated.json,http://54.235.29.9/FacialAge/BNav_EC2/DepthDuration/v2_depth_duration_MTurk/v2_DepthDuration_HTML.html#226,226,1366,625,1366,768,9-3-2022,9-22-36,14,depth_duration_stimuli/000447_2014-06-08_16-15-46_260595134347_rgbf000130-resize_1/000447_2014-06-08_16-15-46_260595134347_rgbf000130-resize_1-target.png,125,4.479,3,2950,125,feet,jsons/VE125_randls_12_rotated.json,682381,860743,34,Man
14,991770,DepthScenes,duration_manipulation_targetAtFixation,jsons/VE125_randls_12_rotated.json,http://54.235.29.9/FacialAge/BNav_EC2/DepthDuration/v2_depth_duration_MTurk/v2_DepthDuration_HTML.html#226,226,1366,625,1366,768,9-3-2022,9-22-36,15,depth_duration_stimuli/000556_2014-06-09_22-42-56_260595134347_rgbf000214-resize_1/000556_2014-06-09_22-42-56_260595134347_rgbf000214-resize_1-target.png,125,4.8415,4,2719,125,feet,jsons/VE125_randls_12_rotated.json,682381,860743,34,Man
15,991770,DepthScenes,duration_manipulation_targetAtFixation,jsons/VE125_randls_12_rotated.json,http://54.235.29.9/FacialAge/BNav_EC2/DepthDuration/v2_depth_duration_MTurk/v2_DepthDuration_HTML.html#226,226,1366,625,1366,768,9-3-2022,9-22-36,16,depth_duration_stimuli/001158_2014-06-17_15-32-16_260595134347_rgbf000138-resize_2/001158_2014-06-17_15-32-16_260595134347_rgbf000138-resize_2-target.png,125,4.5315,4,3058,125,feet,jsons/VE125_randls_12_rotated.json,682381,860743,34,Man
16,991770,DepthScenes,duration_manipulation_targetAtFixation,jsons/VE125_randls_12_rotated.json,http://54.235.29.9/FacialAge/BNav_EC2/DepthDuration/v2_depth_duration_MTurk/v2_DepthDuration_HTML.html#226,226,1366,625,1366,768,9-3-2022,9-22-36,17,depth_duration_stimuli/000457_2014-06-08_16-52-43_260595134347_rgbf000199-resize_1/000457_2014-06-08_16-52-43_260595134347_rgbf000199-resize_1-target.png,125,3.6489999999999996,4,2899,126,feet,jsons/VE125_randls_12_rotated.json,682381,860743,34,Man
17,991770,DepthScenes,duration_manipulation_targetAtFixation,jsons/VE125_randls_12_rotated.json,http://54.235.29.9/FacialAge/BNav_EC2/DepthDuration/v2_depth_duration_MTurk/v2_DepthDuration_HTML.html#226,226,1366,625,1366,768,9-3-2022,9-22-36,18,depth_duration_stimuli/000929_2014-06-09_16-33-19_260595134347_rgbf000139-resize_0/000929_2014-06-09_16-33-19_260595134347_rgbf000139-resize_0-target.png,125,2.8680000000000003,3,9539,126,feet,jsons/VE125_randls_12_rotated.json,682381,860743,34,Man
18,991770,DepthScenes,duration_manipulation_targetAtFixation,jsons/VE125_randls_12_rotated.json,http://54.235.29.9/FacialAge/BNav_EC2/DepthDuration/v2_depth_duration_MTurk/v2_DepthDuration_HTML.html#226,226,1366,625,1366,768,9-3-2022,9-22-36,19,depth_duration_stimuli/001498_2014-06-19_17-45-14_260595134347_rgbf000129-resize_4/001498_2014-06-19_17-45-14_260595134347_rgbf000129-resize-original.jpg,125,1.4075,3,71419,124,feet,jsons/VE125_randls_12_rotated.json,682381,860743,34,Man
19,991770,DepthScenes,duration_manipulation_targetAtFixation,jsons/VE125_randls_12_rotated.json,http://54.235.29.9/FacialAge/BNav_EC2/DepthDuration/v2_depth_duration_MTurk/v2_DepthDuration_HTML.html#226,226,1366,625,1366,768,9-3-2022,9-22-36,20,depth_duration_stimuli/002425_2014-06-28_20-27-29_260595134347_rgbf000031-resize_8/002425_2014-06-28_20-27-29_260595134347_rgbf000031-resize_8-target.png,125,3.8960000000000004,5,2697,125,feet,jsons/VE125_randls_12_rotated.json,682381,860743,34,Man
20,991770,DepthScenes,duration_manipulation_targetAtFixation,jsons/VE125_randls_12_rotated.json,http://54.235.29.9/FacialAge/BNav_EC2/DepthDuration/v2_depth_duration_MTurk/v2_DepthDuration_HTML.html#226,226,1366,625,1366,768,9-3-2022,9-22-36,21,depth_duration_stimuli/000642_2014-06-08_16-59-25_260595134347_rgbf000098-resize_2/000642_2014-06-08_16-59-25_260595134347_rgbf000098-resize_2-target.png,125,2.8815,6,3180,126,feet,jsons/VE125_randls_12_rotated.json,682381,860743,34,Man
21,991770,DepthScenes,duration_manipulation_targetAtFixation,jsons/VE125_randls_12_rotated.json,http://54.235.29.9/FacialAge/BNav_EC2/DepthDuration/v2_depth_duration_MTurk/v2_DepthDuration_HTML.html#226,226,1366,625,1366,768,9-3-2022,9-22-36,22,depth_duration_stimuli/000780_2014-06-08_22-28-29_260595134347_rgbf000126-resize_1/000780_2014-06-08_22-28-29_260595134347_rgbf000126-resize_1-target.png,125,3.3825,6,2839,124,feet,jsons/VE125_randls_12_rotated.json,682381,860743,34,Man
22,991770,DepthScenes,duration_manipulation_targetAtFixation,jsons/VE125_randls_12_rotated.json,http://54.235.29.9/FacialAge/BNav_EC2/DepthDuration/v2_depth_duration_MTurk/v2_DepthDuration_HTML.html#226,226,1366,625,1366,768,9-3-2022,9-22-36,23,depth_duration_stimuli/002445_2014-06-28_20-32-16_260595134347_rgbf000029-resize_4/002445_2014-06-28_20-32-16_260595134347_rgbf000029-resize_4-target.png,125,2.5315,4,3238,125,feet,jsons/VE125_randls_12_rotated.json,682381,860743,34,Man
23,991770,DepthScenes,duration_manipulation_targetAtFixation,jsons/VE125_randls_12_rotated.json,http://54.235.29.9/FacialAge/BNav_EC2/DepthDuration/v2_depth_duration_MTurk/v2_DepthDuration_HTML.html#226,226,1366,625,1366,768,9-3-2022,9-22-36,24,depth_duration_stimuli/001571_2014-06-20_17-21-32_260595134347_rgbf000089-resize_1/001571_2014-06-20_17-21-32_260595134347_rgbf000089-resize_1-target.png,125,1.86,6,3018,123,feet,jsons/VE125_randls_12_rotated.json,682381,860743,34,Man
24,991770,DepthScenes,duration_manipulation_targetAtFixation,jsons/VE125_randls_12_rotated.json,http://54.235.29.9/FacialAge/BNav_EC2/DepthDuration/v2_depth_duration_MTurk/v2_DepthDuration_HTML.html#226,226,1366,625,1366,768,9-3-2022,9-22-36,25,depth_duration_stimuli/002272_2014-06-28_18-53-56_260595134347_rgbf000067-resize_2/002272_2014-06-28_18-53-56_260595134347_rgbf000067-resize_2-target.png,125,1.138,4,2759,126,feet,jsons/VE125_randls_12_rotated.json,682381,860743,34,Man
25,991770,DepthScenes,duration_manipulation_targetAtFixation,jsons/VE125_randls_12_rotated.json,http://54.235.29.9/FacialAge/BNav_EC2/DepthDuration/v2_depth_duration_MTurk/v2_DepthDuration_HTML.html#226,226,1366,625,1366,768,9-3-2022,9-22-36,26,depth_duration_stimuli/000502_2014-06-08_23-02-32_260595134347_rgbf000063-resize_4/000502_2014-06-08_23-02-32_260595134347_rgbf000063-resize_4-target.png,125,2.431,2,2697,124,feet,jsons/VE125_randls_12_rotated.json,682381,860743,34,Man
26,991770,DepthScenes,duration_manipulation_targetAtFixation,jsons/VE125_randls_12_rotated.json,http://54.235.29.9/FacialAge/BNav_EC2/DepthDuration/v2_depth_duration_MTurk/v2_DepthDuration_HTML.html#226,226,1366,625,1366,768,9-3-2022,9-22-36,27,depth_duration_stimuli/001199_2014-06-17_16-03-48_260595134347_rgbf000077-resize_0/001199_2014-06-17_16-03-48_260595134347_rgbf000077-resize_0-target.png,125,3.4375,5,2813,125,feet,jsons/VE125_randls_12_rotated.json,682381,860743,34,Man
27,991770,DepthScenes,duration_manipulation_targetAtFixation,jsons/VE125_randls_12_rotated.json,http://54.235.29.9/FacialAge/BNav_EC2/DepthDuration/v2_depth_duration_MTurk/v2_DepthDuration_HTML.html#226,226,1366,625,1366,768,9-3-2022,9-22-36,28,depth_duration_stimuli/000943_2014-06-09_19-31-07_260595134347_rgbf000128-resize_1/000943_2014-06-09_19-31-07_260595134347_rgbf000128-resize_1-target.png,125,1.9765,6,3225,126,feet,jsons/VE125_randls_12_rotated.json,682381,860743,34,Man
28,991770,DepthScenes,duration_manipulation_targetAtFixation,jsons/VE125_randls_12_rotated.json,http://54.235.29.9/FacialAge/BNav_EC2/DepthDuration/v2_depth_duration_MTurk/v2_DepthDuration_HTML.html#226,226,1366,625,1366,768,9-3-2022,9-22-36,29,depth_duration_stimuli/003070_2014-06-15_14-58-27_094959634447_rgbf000150-resize_3/003070_2014-06-15_14-58-27_094959634447_rgbf000150-resize_3-target.png,125,2.9415,5,2720,126,feet,jsons/VE125_randls_12_rotated.json,682381,860743,34,Man
29,991770,DepthScenes,duration_manipulation_targetAtFixation,jsons/VE125_randls_12_rotated.json,http://54.235.29.9/FacialAge/BNav_EC2/DepthDuration/v2_depth_duration_MTurk/v2_DepthDuration_HTML.html#226,226,1366,625,1366,768,9-3-2022,9-22-36,30,depth_duration_stimuli/002072_2014-06-24_21-48-06_260595134347_rgbf000115-resize_0/002072_2014-06-24_21-48-06_260595134347_rgbf000115-resize-original.jpg,125,4.702,8,3379,125,feet,jsons/VE125_randls_12_rotated.json,682381,860743,34,Man
30,991770,DepthScenes,duration_manipulation_targetAtFixation,jsons/VE125_randls_12_rotated.json,http://54.235.29.9/FacialAge/BNav_EC2/DepthDuration/v2_depth_duration_MTurk/v2_DepthDuration_HTML.html#226,226,1366,625,1366,768,9-3-2022,9-22-36,31,depth_duration_stimuli/001828_2014-06-26_21-40-03_260595134347_rgbf000024-resize_0/001828_2014-06-26_21-40-03_260595134347_rgbf000024-resize_0-target.png,125,4.8260000000000005,5,4194,125,feet,jsons/VE125_randls_12_rotated.json,682381,860743,34,Man
31,991770,DepthScenes,duration_manipulation_targetAtFixation,jsons/VE125_randls_12_rotated.json,http://54.235.29.9/FacialAge/BNav_EC2/DepthDuration/v2_depth_duration_MTurk/v2_DepthDuration_HTML.html#226,226,1366,625,1366,768,9-3-2022,9-22-36,32,depth_duration_stimuli/000009_2014-05-26_14-32-05_260595134347_rgbf000034-resize_3/000009_2014-05-26_14-32-05_260595134347_rgbf000034-resize_3-target.png,125,3.8715,7,3741,125,feet,jsons/VE125_randls_12_rotated.json,682381,860743,34,Man
32,991770,DepthScenes,duration_manipulation_targetAtFixation,jsons/VE125_randls_12_rotated.json,http://54.235.29.9/FacialAge/BNav_EC2/DepthDuration/v2_depth_duration_MTurk/v2_DepthDuration_HTML.html#226,226,1366,625,1366,768,9-3-2022,9-22-36,33,depth_duration_stimuli/003228_2014-05-14_13-42-35_094959634447_rgbf000101-resize_1/003228_2014-05-14_13-42-35_094959634447_rgbf000101-resize_1-target.png,125,1.9680000000000002,6,3118,124,feet,jsons/VE125_randls_12_rotated.json,682381,860743,34,Man
33,991770,DepthScenes,duration_manipulation_targetAtFixation,jsons/VE125_randls_12_rotated.json,http://54.235.29.9/FacialAge/BNav_EC2/DepthDuration/v2_depth_duration_MTurk/v2_DepthDuration_HTML.html#226,226,1366,625,1366,768,9-3-2022,9-22-36,34,depth_duration_stimuli/002600_2014-06-24_14-27-04_094959634447_rgbf000074-resize_2/002600_2014-06-24_14-27-04_094959634447_rgbf000074-resize_2-target.png,125,2.7575,6,2797,124,feet,jsons/VE125_randls_12_rotated.json,682381,860743,34,Man
34,991770,DepthScenes,duration_manipulation_targetAtFixation,jsons/VE125_randls_12_rotated.json,http://54.235.29.9/FacialAge/BNav_EC2/DepthDuration/v2_depth_duration_MTurk/v2_DepthDuration_HTML.html#226,226,1366,625,1366,768,9-3-2022,9-22-36,35,depth_duration_stimuli/002949_2014-06-26_15-57-42_094959634447_rgbf000079-resize_1/002949_2014-06-26_15-57-42_094959634447_rgbf000079-resize_1-target.png,125,1.8915,7,3326,126,feet,jsons/VE125_randls_12_rotated.json,682381,860743,34,Man
35,991770,DepthScenes,duration_manipulation_targetAtFixation,jsons/VE125_randls_12_rotated.json,http://54.235.29.9/FacialAge/BNav_EC2/DepthDuration/v2_depth_duration_MTurk/v2_DepthDuration_HTML.html#226,226,1366,625,1366,768,9-3-2022,9-22-36,36,depth_duration_stimuli/000522_2014-06-08_13-35-06_260595134347_rgbf000244-resize_1/000522_2014-06-08_13-35-06_260595134347_rgbf000244-resize_1-target.png,125,2.3715,6,2773,126,feet,jsons/VE125_randls_12_rotated.json,682381,860743,34,Man
36,991770,DepthScenes,duration_manipulation_targetAtFixation,jsons/VE125_randls_12_rotated.json,http://54.235.29.9/FacialAge/BNav_EC2/DepthDuration/v2_depth_duration_MTurk/v2_DepthDuration_HTML.html#226,226,1366,625,1366,768,9-3-2022,9-22-36,37,depth_duration_stimuli/001584_2014-06-20_11-07-43_260595134347_rgbf000002-resize_1/001584_2014-06-20_11-07-43_260595134347_rgbf000002-resize_1-target.png,125,3.53,6,3176,124,feet,jsons/VE125_randls_12_rotated.json,682381,860743,34,Man
37,991770,DepthScenes,duration_manipulation_targetAtFixation,jsons/VE125_randls_12_rotated.json,http://54.235.29.9/FacialAge/BNav_EC2/DepthDuration/v2_depth_duration_MTurk/v2_DepthDuration_HTML.html#226,226,1366,625,1366,768,9-3-2022,9-22-36,38,depth_duration_stimuli/003621_2014-05-23_18-06-08_094959634447_rgbf000101-resize_1/003621_2014-05-23_18-06-08_094959634447_rgbf000101-resize_1-target.png,125,3.9835,8,3139,126,feet,jsons/VE125_randls_12_rotated.json,682381,860743,34,Man
38,991770,DepthScenes,duration_manipulation_targetAtFixation,jsons/VE125_randls_12_rotated.json,http://54.235.29.9/FacialAge/BNav_EC2/DepthDuration/v2_depth_duration_MTurk/v2_DepthDuration_HTML.html#226,226,1366,625,1366,768,9-3-2022,9-22-36,39,depth_duration_stimuli/001132_2014-06-17_14-48-54_260595134347_rgbf000100-resize_2/001132_2014-06-17_14-48-54_260595134347_rgbf000100-resize_2-target.png,125,3.753,6,2620,125,feet,jsons/VE125_randls_12_rotated.json,682381,860743,34,Man
39,991770,DepthScenes,duration_manipulation_targetAtFixation,jsons/VE125_randls_12_rotated.json,http://54.235.29.9/FacialAge/BNav_EC2/DepthDuration/v2_depth_duration_MTurk/v2_DepthDuration_HTML.html#226,226,1366,625,1366,768,9-3-2022,9-22-36,40,depth_duration_stimuli/001133_2014-06-17_14-49-16_260595134347_rgbf000100-resize_0/001133_2014-06-17_14-49-16_260595134347_rgbf000100-resize_0-target.png,125,4.2115,7,2397,124,feet,jsons/VE125_randls_12_rotated.json,682381,860743,34,Man
40,991770,DepthScenes,duration_manipulation_targetAtFixation,jsons/VE125_randls_12_rotated.json,http://54.235.29.9/FacialAge/BNav_EC2/DepthDuration/v2_depth_duration_MTurk/v2_DepthDuration_HTML.html#226,226,1366,625,1366,768,9-3-2022,9-22-36,41,depth_duration_stimuli/003490_2014-05-21_15-50-11_094959634447_rgbf000101-resize_3/003490_2014-05-21_15-50-11_094959634447_rgbf000101-resize_3-target.png,125,3.6445,7,2958,125,feet,jsons/VE125_randls_12_rotated.json,682381,860743,34,Man
41,991770,DepthScenes,duration_manipulation_targetAtFixation,jsons/VE125_randls_12_rotated.json,http://54.235.29.9/FacialAge/BNav_EC2/DepthDuration/v2_depth_duration_MTurk/v2_DepthDuration_HTML.html#226,226,1366,625,1366,768,9-3-2022,9-22-36,42,depth_duration_stimuli/001175_2014-06-17_15-45-55_260595134347_rgbf000129-resize_4/001175_2014-06-17_15-45-55_260595134347_rgbf000129-resize_4-target.png,125,4.255,8,2698,125,feet,jsons/VE125_randls_12_rotated.json,682381,860743,34,Man
42,991770,DepthScenes,duration_manipulation_targetAtFixation,jsons/VE125_randls_12_rotated.json,http://54.235.29.9/FacialAge/BNav_EC2/DepthDuration/v2_depth_duration_MTurk/v2_DepthDuration_HTML.html#226,226,1366,625,1366,768,9-3-2022,9-22-36,43,depth_duration_stimuli/001516_2014-06-20_16-25-09_260595134347_rgbf000076-resize_2/001516_2014-06-20_16-25-09_260595134347_rgbf000076-resize_2-target.png,125,1.7445,6,4240,126,feet,jsons/VE125_randls_12_rotated.json,682381,860743,34,Man
43,991770,DepthScenes,duration_manipulation_targetAtFixation,jsons/VE125_randls_12_rotated.json,http://54.235.29.9/FacialAge/BNav_EC2/DepthDuration/v2_depth_duration_MTurk/v2_DepthDuration_HTML.html#226,226,1366,625,1366,768,9-3-2022,9-22-36,44,depth_duration_stimuli/002118_2014-06-25_20-32-08_260595134347_rgbf000078-resize_1/002118_2014-06-25_20-32-08_260595134347_rgbf000078-resize_1-target.png,125,2.6460000000000004,8,15687,124,feet,jsons/VE125_randls_12_rotated.json,682381,860743,34,Man
44,991770,DepthScenes,duration_manipulation_targetAtFixation,jsons/VE125_randls_12_rotated.json,http://54.235.29.9/FacialAge/BNav_EC2/DepthDuration/v2_depth_duration_MTurk/v2_DepthDuration_HTML.html#226,226,1366,625,1366,768,9-3-2022,9-22-36,45,depth_duration_stimuli/002758_2014-06-22_19-11-20_094959634447_rgbf000128-resize_1/002758_2014-06-22_19-11-20_094959634447_rgbf000128-resize_1-target.png,125,2.555,6,2811,125,feet,jsons/VE125_randls_12_rotated.json,682381,860743,34,Man
45,991770,DepthScenes,duration_manipulation_targetAtFixation,jsons/VE125_randls_12_rotated.json,http://54.235.29.9/FacialAge/BNav_EC2/DepthDuration/v2_depth_duration_MTurk/v2_DepthDuration_HTML.html#226,226,1366,625,1366,768,9-3-2022,9-22-36,46,depth_duration_stimuli/002630_2014-06-24_14-47-50_094959634447_rgbf000055-resize_1/002630_2014-06-24_14-47-50_094959634447_rgbf000055-resize_1-target.png,125,3.0095,5,2539,126,feet,jsons/VE125_randls_12_rotated.json,682381,860743,34,Man
46,991770,DepthScenes,duration_manipulation_targetAtFixation,jsons/VE125_randls_12_rotated.json,http://54.235.29.9/FacialAge/BNav_EC2/DepthDuration/v2_depth_duration_MTurk/v2_DepthDuration_HTML.html#226,226,1366,625,1366,768,9-3-2022,9-22-36,47,depth_duration_stimuli/000137_2014-05-20_17-04-49_260595134347_rgbf000120-resize_1/000137_2014-05-20_17-04-49_260595134347_rgbf000120-resize_1-target.png,125,3.786,6,2909,125,feet,jsons/VE125_randls_12_rotated.json,682381,860743,34,Man
47,991770,DepthScenes,duration_manipulation_targetAtFixation,jsons/VE125_randls_12_rotated.json,http://54.235.29.9/FacialAge/BNav_EC2/DepthDuration/v2_depth_duration_MTurk/v2_DepthDuration_HTML.html#226,226,1366,625,1366,768,9-3-2022,9-22-36,48,depth_duration_stimuli/000736_2014-06-08_18-24-15_260595134347_rgbf000206-resize_3/000736_2014-06-08_18-24-15_260595134347_rgbf000206-resize_3-target.png,125,3.515,8,3087,125,feet,jsons/VE125_randls_12_rotated.json,682381,860743,34,Man
48,991770,DepthScenes,duration_manipulation_targetAtFixation,jsons/VE125_randls_12_rotated.json,http://54.235.29.9/FacialAge/BNav_EC2/DepthDuration/v2_depth_duration_MTurk/v2_DepthDuration_HTML.html#226,226,1366,625,1366,768,9-3-2022,9-22-36,49,depth_duration_stimuli/001170_2014-06-17_15-43-44_260595134347_rgbf000096-resize_6/001170_2014-06-17_15-43-44_260595134347_rgbf000096-resize-original.jpg,125,1.1909999999999998,6,3558,125,feet,jsons/VE125_randls_12_rotated.json,682381,860743,34,Man
49,991770,DepthScenes,duration_manipulation_targetAtFixation,jsons/VE125_randls_12_rotated.json,http://54.235.29.9/FacialAge/BNav_EC2/DepthDuration/v2_depth_duration_MTurk/v2_DepthDuration_HTML.html#226,226,1366,625,1366,768,9-3-2022,9-22-36,50,depth_duration_stimuli/003338_2014-05-20_11-01-23_094959634447_rgbf000051-resize_6/003338_2014-05-20_11-01-23_094959634447_rgbf000051-resize_6-target.png,125,1.693,7,2718,125,feet,jsons/VE125_randls_12_rotated.json,682381,860743,34,Man
50,991770,DepthScenes,duration_manipulation_targetAtFixation,jsons/VE125_randls_12_rotated.json,http://54.235.29.9/FacialAge/BNav_EC2/DepthDuration/v2_depth_duration_MTurk/v2_DepthDuration_HTML.html#226,226,1366,625,1366,768,9-3-2022,9-22-36,51,depth_duration_stimuli/002509_2014-06-24_13-19-22_094959634447_rgbf000077-resize_0/002509_2014-06-24_13-19-22_094959634447_rgbf000077-resize_0-target.png,125,1.3065,6,5257,124,feet,jsons/VE125_randls_12_rotated.json,682381,860743,34,Man
51,991770,DepthScenes,duration_manipulation_targetAtFixation,jsons/VE125_randls_12_rotated.json,http://54.235.29.9/FacialAge/BNav_EC2/DepthDuration/v2_depth_duration_MTurk/v2_DepthDuration_HTML.html#226,226,1366,625,1366,768,9-3-2022,9-22-36,52,depth_duration_stimuli/003423_2014-05-21_10-23-26_094959634447_rgbf002665-resize_2/003423_2014-05-21_10-23-26_094959634447_rgbf002665-resize_2-target.png,125,3.2575,6,3118,126,feet,jsons/VE125_randls_12_rotated.json,682381,860743,34,Man
52,991770,DepthScenes,duration_manipulation_targetAtFixation,jsons/VE125_randls_12_rotated.json,http://54.235.29.9/FacialAge/BNav_EC2/DepthDuration/v2_depth_duration_MTurk/v2_DepthDuration_HTML.html#226,226,1366,625,1366,768,9-3-2022,9-22-36,53,depth_duration_stimuli/002905_2014-06-03_18-04-43_094959634447_rgbf000151-resize_2/002905_2014-06-03_18-04-43_094959634447_rgbf000151-resize_2-target.png,125,2.0295,7,2809,127,feet,jsons/VE125_randls_12_rotated.json,682381,860743,34,Man
53,991770,DepthScenes,duration_manipulation_targetAtFixation,jsons/VE125_randls_12_rotated.json,http://54.235.29.9/FacialAge/BNav_EC2/DepthDuration/v2_depth_duration_MTurk/v2_DepthDuration_HTML.html#226,226,1366,625,1366,768,9-3-2022,9-22-36,54,depth_duration_stimuli/002657_2014-06-13_15-29-54_094959634447_rgbf000150-resize_1/002657_2014-06-13_15-29-54_094959634447_rgbf000150-resize_1-target.png,125,4.919,6,3242,125,feet,jsons/VE125_randls_12_rotated.json,682381,860743,34,Man
54,991770,DepthScenes,duration_manipulation_targetAtFixation,jsons/VE125_randls_12_rotated.json,http://54.235.29.9/FacialAge/BNav_EC2/DepthDuration/v2_depth_duration_MTurk/v2_DepthDuration_HTML.html#226,226,1366,625,1366,768,9-3-2022,9-22-36,55,depth_duration_stimuli/002375_2014-06-28_20-13-44_260595134347_rgbf000032-resize_1/002375_2014-06-28_20-13-44_260595134347_rgbf000032-resize_1-target.png,125,4.0175,7,3144,125,feet,jsons/VE125_randls_12_rotated.json,682381,860743,34,Man
55,991770,DepthScenes,duration_manipulation_targetAtFixation,jsons/VE125_randls_12_rotated.json,http://54.235.29.9/FacialAge/BNav_EC2/DepthDuration/v2_depth_duration_MTurk/v2_DepthDuration_HTML.html#226,226,1366,625,1366,768,9-3-2022,9-22-36,56,depth_duration_stimuli/002414_2014-06-28_20-24-58_260595134347_rgbf000067-resize_4/002414_2014-06-28_20-24-58_260595134347_rgbf000067-resize_4-target.png,125,4.363,6,2737,124,feet,jsons/VE125_randls_12_rotated.json,682381,860743,34,Man
56,991770,DepthScenes,duration_manipulation_targetAtFixation,jsons/VE125_randls_12_rotated.json,http://54.235.29.9/FacialAge/BNav_EC2/DepthDuration/v2_depth_duration_MTurk/v2_DepthDuration_HTML.html#226,226,1366,625,1366,768,9-3-2022,9-22-36,57,depth_duration_stimuli/000773_2014-06-08_22-24-54_260595134347_rgbf000093-resize_1/000773_2014-06-08_22-24-54_260595134347_rgbf000093-resize_1-target.png,125,4.973,8,6978,126,feet,jsons/VE125_randls_12_rotated.json,682381,860743,34,Man
57,991770,DepthScenes,duration_manipulation_targetAtFixation,jsons/VE125_randls_12_rotated.json,http://54.235.29.9/FacialAge/BNav_EC2/DepthDuration/v2_depth_duration_MTurk/v2_DepthDuration_HTML.html#226,226,1366,625,1366,768,9-3-2022,9-22-36,58,depth_duration_stimuli/001650_2014-06-20_12-09-00_260595134347_rgbf000087-resize_3/001650_2014-06-20_12-09-00_260595134347_rgbf000087-resize_3-target.png,125,1.9505,6,3220,126,feet,jsons/VE125_randls_12_rotated.json,682381,860743,34,Man
58,991770,DepthScenes,duration_manipulation_targetAtFixation,jsons/VE125_randls_12_rotated.json,http://54.235.29.9/FacialAge/BNav_EC2/DepthDuration/v2_depth_duration_MTurk/v2_DepthDuration_HTML.html#226,226,1366,625,1366,768,9-3-2022,9-22-36,59,depth_duration_stimuli/000682_2014-06-08_23-14-58_260595134347_rgbf000041-resize_5/000682_2014-06-08_23-14-58_260595134347_rgbf000041-resize_5-target.png,125,2.7239999999999998,6,3541,126,feet,jsons/VE125_randls_12_rotated.json,682381,860743,34,Man
59,991770,DepthScenes,duration_manipulation_targetAtFixation,jsons/VE125_randls_12_rotated.json,http://54.235.29.9/FacialAge/BNav_EC2/DepthDuration/v2_depth_duration_MTurk/v2_DepthDuration_HTML.html#226,226,1366,625,1366,768,9-3-2022,9-22-36,60,depth_duration_stimuli/000549_2014-06-08_22-10-24_260595134347_rgbf000247-resize_3/000549_2014-06-08_22-10-24_260595134347_rgbf000247-resize_3-target.png,125,1.841,5,2869,126,feet,jsons/VE125_randls_12_rotated.json,682381,860743,34,Man
60,991770,DepthScenes,duration_manipulation_targetAtFixation,jsons/VE125_randls_12_rotated.json,http://54.235.29.9/FacialAge/BNav_EC2/DepthDuration/v2_depth_duration_MTurk/v2_DepthDuration_HTML.html#226,226,1366,625,1366,768,9-3-2022,9-22-36,61,depth_duration_stimuli/001055_2014-06-08_18-45-35_260595134347_rgbf000111-resize_4/001055_2014-06-08_18-45-35_260595134347_rgbf000111-resize_4-target.png,125,2.4290000000000003,7,2731,126,feet,jsons/VE125_randls_12_rotated.json,682381,860743,34,Man
61,991770,DepthScenes,duration_manipulation_targetAtFixation,jsons/VE125_randls_12_rotated.json,http://54.235.29.9/FacialAge/BNav_EC2/DepthDuration/v2_depth_duration_MTurk/v2_DepthDuration_HTML.html#226,226,1366,625,1366,768,9-3-2022,9-22-36,62,depth_duration_stimuli/002467_2014-06-28_20-38-07_260595134347_rgbf000026-resize_2/002467_2014-06-28_20-38-07_260595134347_rgbf000026-resize_2-target.png,125,4.742,7,2775,125,feet,jsons/VE125_randls_12_rotated.json,682381,860743,34,Man
62,991770,DepthScenes,duration_manipulation_targetAtFixation,jsons/VE125_randls_12_rotated.json,http://54.235.29.9/FacialAge/BNav_EC2/DepthDuration/v2_depth_duration_MTurk/v2_DepthDuration_HTML.html#226,226,1366,625,1366,768,9-3-2022,9-22-36,63,depth_duration_stimuli/002570_2014-06-24_13-59-54_094959634447_rgbf000059-resize_0/002570_2014-06-24_13-59-54_094959634447_rgbf000059-resize_0-target.png,125,4.037,6,2659,126,feet,jsons/VE125_randls_12_rotated.json,682381,860743,34,Man
63,991770,DepthScenes,duration_manipulation_targetAtFixation,jsons/VE125_randls_12_rotated.json,http://54.235.29.9/FacialAge/BNav_EC2/DepthDuration/v2_depth_duration_MTurk/v2_DepthDuration_HTML.html#226,226,1366,625,1366,768,9-3-2022,9-22-36,64,depth_duration_stimuli/002995_2014-06-15_12-31-26_094959634447_rgbf000150-resize_1/002995_2014-06-15_12-31-26_094959634447_rgbf000150-resize_1-target.png,125,3.8360000000000003,8,2718,125,feet,jsons/VE125_randls_12_rotated.json,682381,860743,34,Man
64,991770,DepthScenes,duration_manipulation_targetAtFixation,jsons/VE125_randls_12_rotated.json,http://54.235.29.9/FacialAge/BNav_EC2/DepthDuration/v2_depth_duration_MTurk/v2_DepthDuration_HTML.html#226,226,1366,625,1366,768,9-3-2022,9-22-36,65,depth_duration_stimuli/002748_2014-06-22_19-07-22_094959634447_rgbf000078-resize_1/002748_2014-06-22_19-07-22_094959634447_rgbf000078-resize_1-target.png,125,4.6705,2,3119,125,feet,jsons/VE125_randls_12_rotated.json,682381,860743,34,Man
65,991770,DepthScenes,duration_manipulation_targetAtFixation,jsons/VE125_randls_12_rotated.json,http://54.235.29.9/FacialAge/BNav_EC2/DepthDuration/v2_depth_duration_MTurk/v2_DepthDuration_HTML.html#226,226,1366,625,1366,768,9-3-2022,9-22-36,66,depth_duration_stimuli/001540_2014-06-20_17-01-05_260595134347_rgbf000086-resize_2/001540_2014-06-20_17-01-05_260595134347_rgbf000086-resize-original.jpg,125,1.459,4,3381,125,feet,jsons/VE125_randls_12_rotated.json,682381,860743,34,Man
66,991770,DepthScenes,duration_manipulation_targetAtFixation,jsons/VE125_randls_12_rotated.json,http://54.235.29.9/FacialAge/BNav_EC2/DepthDuration/v2_depth_duration_MTurk/v2_DepthDuration_HTML.html#226,226,1366,625,1366,768,9-3-2022,9-22-36,67,depth_duration_stimuli/002209_2014-06-28_18-36-10_260595134347_rgbf000051-resize_1/002209_2014-06-28_18-36-10_260595134347_rgbf000051-resize_1-target.png,125,2.057,6,2977,125,feet,jsons/VE125_randls_12_rotated.json,682381,860743,34,Man
67,991770,DepthScenes,duration_manipulation_targetAtFixation,jsons/VE125_randls_12_rotated.json,http://54.235.29.9/FacialAge/BNav_EC2/DepthDuration/v2_depth_duration_MTurk/v2_DepthDuration_HTML.html#226,226,1366,625,1366,768,9-3-2022,9-22-36,68,depth_duration_stimuli/002763_2014-06-22_19-13-10_094959634447_rgbf000075-resize_4/002763_2014-06-22_19-13-10_094959634447_rgbf000075-resize_4-target.png,125,1.68375,5,2718,126,feet,jsons/VE125_randls_12_rotated.json,682381,860743,34,Man
68,991770,DepthScenes,duration_manipulation_targetAtFixation,jsons/VE125_randls_12_rotated.json,http://54.235.29.9/FacialAge/BNav_EC2/DepthDuration/v2_depth_duration_MTurk/v2_DepthDuration_HTML.html#226,226,1366,625,1366,768,9-3-2022,9-22-36,69,depth_duration_stimuli/002545_2014-06-24_13-38-53_094959634447_rgbf000080-resize_4/002545_2014-06-24_13-38-53_094959634447_rgbf000080-resize_4-target.png,125,1.9205,8,3199,126,feet,jsons/VE125_randls_12_rotated.json,682381,860743,34,Man
69,991770,DepthScenes,duration_manipulation_targetAtFixation,jsons/VE125_randls_12_rotated.json,http://54.235.29.9/FacialAge/BNav_EC2/DepthDuration/v2_depth_duration_MTurk/v2_DepthDuration_HTML.html#226,226,1366,625,1366,768,9-3-2022,9-22-36,70,depth_duration_stimuli/001092_2014-06-15_17-34-58_260595134347_rgbf000171-resize_3/001092_2014-06-15_17-34-58_260595134347_rgbf000171-resize_3-target.png,125,2.6935,4,2509,126,feet,jsons/VE125_randls_12_rotated.json,682381,860743,34,Man
70,991770,DepthScenes,duration_manipulation_targetAtFixation,jsons/VE125_randls_12_rotated.json,http://54.235.29.9/FacialAge/BNav_EC2/DepthDuration/v2_depth_duration_MTurk/v2_DepthDuration_HTML.html#226,226,1366,625,1366,768,9-3-2022,9-22-36,71,depth_duration_stimuli/002568_2014-06-24_13-59-21_094959634447_rgbf000062-resize_4/002568_2014-06-24_13-59-21_094959634447_rgbf000062-resize_4-target.png,125,3.015,2,2764,126,feet,jsons/VE125_randls_12_rotated.json,682381,860743,34,Man
71,991770,DepthScenes,duration_manipulation_targetAtFixation,jsons/VE125_randls_12_rotated.json,http://54.235.29.9/FacialAge/BNav_EC2/DepthDuration/v2_depth_duration_MTurk/v2_DepthDuration_HTML.html#226,226,1366,625,1366,768,9-3-2022,9-22-36,72,depth_duration_stimuli/003492_2014-05-21_15-50-55_094959634447_rgbf000828-resize_1/003492_2014-05-21_15-50-55_094959634447_rgbf000828-resize_1-target.png,125,4.06875,5,2604,126,feet,jsons/VE125_randls_12_rotated.json,682381,860743,34,Man
72,991770,DepthScenes,duration_manipulation_targetAtFixation,jsons/VE125_randls_12_rotated.json,http://54.235.29.9/FacialAge/BNav_EC2/DepthDuration/v2_depth_duration_MTurk/v2_DepthDuration_HTML.html#226,226,1366,625,1366,768,9-3-2022,9-22-36,73,depth_duration_stimuli/001450_2014-06-19_17-02-03_260595134347_rgbf000203-resize_4/001450_2014-06-19_17-02-03_260595134347_rgbf000203-resize_4-target.png,125,4.0106666666667,5,2941,126,feet,jsons/VE125_randls_12_rotated.json,682381,860743,34,Man
73,991770,DepthScenes,duration_manipulation_targetAtFixation,jsons/VE125_randls_12_rotated.json,http://54.235.29.9/FacialAge/BNav_EC2/DepthDuration/v2_depth_duration_MTurk/v2_DepthDuration_HTML.html#226,226,1366,625,1366,768,9-3-2022,9-22-36,74,depth_duration_stimuli/001449_2014-06-19_17-01-27_260595134347_rgbf000116-resize_2/001449_2014-06-19_17-01-27_260595134347_rgbf000116-resize_2-target.png,125,3.452,7,2935,125,feet,jsons/VE125_randls_12_rotated.json,682381,860743,34,Man
74,991770,DepthScenes,duration_manipulation_targetAtFixation,jsons/VE125_randls_12_rotated.json,http://54.235.29.9/FacialAge/BNav_EC2/DepthDuration/v2_depth_duration_MTurk/v2_DepthDuration_HTML.html#226,226,1366,625,1366,768,9-3-2022,9-22-36,75,depth_duration_stimuli/001100_2014-06-15_17-46-26_260595134347_rgbf000225-resize_2/001100_2014-06-15_17-46-26_260595134347_rgbf000225-resize_2-target.png,125,2.24,7,3040,125,feet,jsons/VE125_randls_12_rotated.json,682381,860743,34,Man
75,991770,DepthScenes,duration_manipulation_targetAtFixation,jsons/VE125_randls_12_rotated.json,http://54.235.29.9/FacialAge/BNav_EC2/DepthDuration/v2_depth_duration_MTurk/v2_DepthDuration_HTML.html#226,226,1366,625,1366,768,9-3-2022,9-22-36,76,depth_duration_stimuli/002784_2014-06-22_19-26-30_094959634447_rgbf000083-resize_3/002784_2014-06-22_19-26-30_094959634447_rgbf000083-resize_3-target.png,125,1.8046666666667,2,2900,125,feet,jsons/VE125_randls_12_rotated.json,682381,860743,34,Man
76,991770,DepthScenes,duration_manipulation_targetAtFixation,jsons/VE125_randls_12_rotated.json,http://54.235.29.9/FacialAge/BNav_EC2/DepthDuration/v2_depth_duration_MTurk/v2_DepthDuration_HTML.html#226,226,1366,625,1366,768,9-3-2022,9-22-36,77,depth_duration_stimuli/001052_2014-06-08_18-24-54_260595134347_rgbf000130-resize_1/001052_2014-06-08_18-24-54_260595134347_rgbf000130-resize_1-target.png,125,4.1045,4,2541,125,feet,jsons/VE125_randls_12_rotated.json,682381,860743,34,Man
77,991770,DepthScenes,duration_manipulation_targetAtFixation,jsons/VE125_randls_12_rotated.json,http://54.235.29.9/FacialAge/BNav_EC2/DepthDuration/v2_depth_duration_MTurk/v2_DepthDuration_HTML.html#226,226,1366,625,1366,768,9-3-2022,9-22-36,78,depth_duration_stimuli/002988_2014-06-15_12-24-20_094959634447_rgbf000150-resize_1/002988_2014-06-15_12-24-20_094959634447_rgbf000150-resize_1-target.png,125,4.7669999999999995,5,3137,124,feet,jsons/VE125_randls_12_rotated.json,682381,860743,34,Man
78,991770,DepthScenes,duration_manipulation_targetAtFixation,jsons/VE125_randls_12_rotated.json,http://54.235.29.9/FacialAge/BNav_EC2/DepthDuration/v2_depth_duration_MTurk/v2_DepthDuration_HTML.html#226,226,1366,625,1366,768,9-3-2022,9-22-36,79,depth_duration_stimuli/002639_2014-06-24_14-51-37_094959634447_rgbf000074-resize_4/002639_2014-06-24_14-51-37_094959634447_rgbf000074-resize_4-target.png,125,4.0375,6,2589,126,feet,jsons/VE125_randls_12_rotated.json,682381,860743,34,Man
79,991770,DepthScenes,duration_manipulation_targetAtFixation,jsons/VE125_randls_12_rotated.json,http://54.235.29.9/FacialAge/BNav_EC2/DepthDuration/v2_depth_duration_MTurk/v2_DepthDuration_HTML.html#226,226,1366,625,1366,768,9-3-2022,9-22-36,80,depth_duration_stimuli/003292_2014-05-14_21-53-49_094959634447_rgbf000100-resize_2/003292_2014-05-14_21-53-49_094959634447_rgbf000100-resize_2-target.png,125,3.4815,8,3094,125,feet,jsons/VE125_randls_12_rotated.json,682381,860743,34,Man
80,991770,DepthScenes,duration_manipulation_targetAtFixation,jsons/VE125_randls_12_rotated.json,http://54.235.29.9/FacialAge/BNav_EC2/DepthDuration/v2_depth_duration_MTurk/v2_DepthDuration_HTML.html#226,226,1366,625,1366,768,9-3-2022,9-22-36,81,depth_duration_stimuli/002199_2014-06-28_18-33-56_260595134347_rgbf000074-resize_0/002199_2014-06-28_18-33-56_260595134347_rgbf000074-resize_0-target.png,125,1.996,6,3357,126,feet,jsons/VE125_randls_12_rotated.json,682381,860743,34,Man
81,991770,DepthScenes,duration_manipulation_targetAtFixation,jsons/VE125_randls_12_rotated.json,http://54.235.29.9/FacialAge/BNav_EC2/DepthDuration/v2_depth_duration_MTurk/v2_DepthDuration_HTML.html#226,226,1366,625,1366,768,9-3-2022,9-22-36,82,depth_duration_stimuli/001056_2014-06-08_18-46-44_260595134347_rgbf000068-resize_0/001056_2014-06-08_18-46-44_260595134347_rgbf000068-resize_0-target.png,125,2.6625,2,3274,125,feet,jsons/VE125_randls_12_rotated.json,682381,860743,34,Man
82,991770,DepthScenes,duration_manipulation_targetAtFixation,jsons/VE125_randls_12_rotated.json,http://54.235.29.9/FacialAge/BNav_EC2/DepthDuration/v2_depth_duration_MTurk/v2_DepthDuration_HTML.html#226,226,1366,625,1366,768,9-3-2022,9-22-36,83,depth_duration_stimuli/000409_2014-06-04_19-23-33_260595134347_rgbf000067-resize_0/000409_2014-06-04_19-23-33_260595134347_rgbf000067-resize_0-target.png,125,3.7335,6,3899,125,feet,jsons/VE125_randls_12_rotated.json,682381,860743,34,Man
83,991770,DepthScenes,duration_manipulation_targetAtFixation,jsons/VE125_randls_12_rotated.json,http://54.235.29.9/FacialAge/BNav_EC2/DepthDuration/v2_depth_duration_MTurk/v2_DepthDuration_HTML.html#226,226,1366,625,1366,768,9-3-2022,9-22-36,84,depth_duration_stimuli/002663_2014-06-13_15-50-26_094959634447_rgbf000075-resize_1/002663_2014-06-13_15-50-26_094959634447_rgbf000075-resize_1-target.png,125,4.7495,6,3519,126,feet,jsons/VE125_randls_12_rotated.json,682381,860743,34,Man
84,991770,DepthScenes,duration_manipulation_targetAtFixation,jsons/VE125_randls_12_rotated.json,http://54.235.29.9/FacialAge/BNav_EC2/DepthDuration/v2_depth_duration_MTurk/v2_DepthDuration_HTML.html#226,226,1366,625,1366,768,9-3-2022,9-22-36,85,depth_duration_stimuli/000677_2014-06-08_23-10-32_260595134347_rgbf000158-resize_6/000677_2014-06-08_23-10-32_260595134347_rgbf000158-resize_6-target.png,125,3.556,5,2888,125,feet,jsons/VE125_randls_12_rotated.json,682381,860743,34,Man
85,991770,DepthScenes,duration_manipulation_targetAtFixation,jsons/VE125_randls_12_rotated.json,http://54.235.29.9/FacialAge/BNav_EC2/DepthDuration/v2_depth_duration_MTurk/v2_DepthDuration_HTML.html#226,226,1366,625,1366,768,9-3-2022,9-22-36,86,depth_duration_stimuli/001029_2014-06-08_13-17-57_260595134347_rgbf000065-resize_1/001029_2014-06-08_13-17-57_260595134347_rgbf000065-resize_1-target.png,125,3.0835,6,2790,125,feet,jsons/VE125_randls_12_rotated.json,682381,860743,34,Man
86,991770,DepthScenes,duration_manipulation_targetAtFixation,jsons/VE125_randls_12_rotated.json,http://54.235.29.9/FacialAge/BNav_EC2/DepthDuration/v2_depth_duration_MTurk/v2_DepthDuration_HTML.html#226,226,1366,625,1366,768,9-3-2022,9-22-36,87,depth_duration_stimuli/002344_2014-06-28_20-06-29_260595134347_rgbf000030-resize_1/002344_2014-06-28_20-06-29_260595134347_rgbf000030-resize_1-target.png,125,1.5795,3,2799,125,feet,jsons/VE125_randls_12_rotated.json,682381,860743,34,Man
87,991770,DepthScenes,duration_manipulation_targetAtFixation,jsons/VE125_randls_12_rotated.json,http://54.235.29.9/FacialAge/BNav_EC2/DepthDuration/v2_depth_duration_MTurk/v2_DepthDuration_HTML.html#226,226,1366,625,1366,768,9-3-2022,9-22-36,88,depth_duration_stimuli/002725_2014-06-22_11-47-51_094959634447_rgbf000070-resize_1/002725_2014-06-22_11-47-51_094959634447_rgbf000070-resize_1-target.png,125,2.195,2,5118,124,feet,jsons/VE125_randls_12_rotated.json,682381,860743,34,Man
88,991770,DepthScenes,duration_manipulation_targetAtFixation,jsons/VE125_randls_12_rotated.json,http://54.235.29.9/FacialAge/BNav_EC2/DepthDuration/v2_depth_duration_MTurk/v2_DepthDuration_HTML.html#226,226,1366,625,1366,768,9-3-2022,9-22-36,89,depth_duration_stimuli/003587_2014-05-23_16-48-02_094959634447_rgbf002384-resize_2/003587_2014-05-23_16-48-02_094959634447_rgbf002384-resize_2-target.png,125,1.357,4,2929,125,feet,jsons/VE125_randls_12_rotated.json,682381,860743,34,Man
89,991770,DepthScenes,duration_manipulation_targetAtFixation,jsons/VE125_randls_12_rotated.json,http://54.235.29.9/FacialAge/BNav_EC2/DepthDuration/v2_depth_duration_MTurk/v2_DepthDuration_HTML.html#226,226,1366,625,1366,768,9-3-2022,9-22-36,90,depth_duration_stimuli/001167_2014-06-17_15-38-07_260595134347_rgbf000108-resize_0/001167_2014-06-17_15-38-07_260595134347_rgbf000108-resize_0-target.png,125,1.8505,5,4808,124,feet,jsons/VE125_randls_12_rotated.json,682381,860743,34,Man
90,991770,DepthScenes,duration_manipulation_targetAtFixation,jsons/VE125_randls_12_rotated.json,http://54.235.29.9/FacialAge/BNav_EC2/DepthDuration/v2_depth_duration_MTurk/v2_DepthDuration_HTML.html#226,226,1366,625,1366,768,9-3-2022,9-22-36,91,depth_duration_stimuli/002750_2014-06-22_19-08-03_094959634447_rgbf000094-resize_4/002750_2014-06-22_19-08-03_094959634447_rgbf000094-resize_4-target.png,125,2.354,1,2678,126,feet,jsons/VE125_randls_12_rotated.json,682381,860743,34,Man
91,991770,DepthScenes,duration_manipulation_targetAtFixation,jsons/VE125_randls_12_rotated.json,http://54.235.29.9/FacialAge/BNav_EC2/DepthDuration/v2_depth_duration_MTurk/v2_DepthDuration_HTML.html#226,226,1366,625,1366,768,9-3-2022,9-22-36,92,depth_duration_stimuli/002549_2014-06-24_13-41-39_094959634447_rgbf000022-resize_3/002549_2014-06-24_13-41-39_094959634447_rgbf000022-resize_3-target.png,125,1.476,2,2923,125,feet,jsons/VE125_randls_12_rotated.json,682381,860743,34,Man
92,991770,DepthScenes,duration_manipulation_targetAtFixation,jsons/VE125_randls_12_rotated.json,http://54.235.29.9/FacialAge/BNav_EC2/DepthDuration/v2_depth_duration_MTurk/v2_DepthDuration_HTML.html#226,226,1366,625,1366,768,9-3-2022,9-22-36,93,depth_duration_stimuli/002678_2014-06-13_16-15-32_094959634447_rgbf000151-resize_6/002678_2014-06-13_16-15-32_094959634447_rgbf000151-resize_6-target.png,125,2.1830000000000003,4,2533,125,feet,jsons/VE125_randls_12_rotated.json,682381,860743,34,Man
93,991770,DepthScenes,duration_manipulation_targetAtFixation,jsons/VE125_randls_12_rotated.json,http://54.235.29.9/FacialAge/BNav_EC2/DepthDuration/v2_depth_duration_MTurk/v2_DepthDuration_HTML.html#226,226,1366,625,1366,768,9-3-2022,9-22-36,94,depth_duration_stimuli/000368_2014-06-09_15-53-01_260595134347_rgbf000155-resize_2/000368_2014-06-09_15-53-01_260595134347_rgbf000155-resize_2-target.png,125,2.4859999999999998,5,3460,124,feet,jsons/VE125_randls_12_rotated.json,682381,860743,34,Man
94,991770,DepthScenes,duration_manipulation_targetAtFixation,jsons/VE125_randls_12_rotated.json,http://54.235.29.9/FacialAge/BNav_EC2/DepthDuration/v2_depth_duration_MTurk/v2_DepthDuration_HTML.html#226,226,1366,625,1366,768,9-3-2022,9-22-36,95,depth_duration_stimuli/002875_2014-06-01_15-19-00_094959634447_rgbf000151-resize_1/002875_2014-06-01_15-19-00_094959634447_rgbf000151-resize_1-target.png,125,1.9675,6,2378,124,feet,jsons/VE125_randls_12_rotated.json,682381,860743,34,Man
95,991770,DepthScenes,duration_manipulation_targetAtFixation,jsons/VE125_randls_12_rotated.json,http://54.235.29.9/FacialAge/BNav_EC2/DepthDuration/v2_depth_duration_MTurk/v2_DepthDuration_HTML.html#226,226,1366,625,1366,768,9-3-2022,9-22-36,96,depth_duration_stimuli/001011_2014-06-08_23-18-54_260595134347_rgbf000044-resize_4/001011_2014-06-08_23-18-54_260595134347_rgbf000044-resize_4-target.png,125,2.4730000000000003,2,2517,124,feet,jsons/VE125_randls_12_rotated.json,682381,860743,34,Man
96,991770,DepthScenes,duration_manipulation_targetAtFixation,jsons/VE125_randls_12_rotated.json,http://54.235.29.9/FacialAge/BNav_EC2/DepthDuration/v2_depth_duration_MTurk/v2_DepthDuration_HTML.html#226,226,1366,625,1366,768,9-3-2022,9-22-36,97,depth_duration_stimuli/001392_2014-06-19_16-07-59_260595134347_rgbf000046-resize_1/001392_2014-06-19_16-07-59_260595134347_rgbf000046-resize_1-target.png,125,4.135,3,2458,125,feet,jsons/VE125_randls_12_rotated.json,682381,860743,34,Man
97,991770,DepthScenes,duration_manipulation_targetAtFixation,jsons/VE125_randls_12_rotated.json,http://54.235.29.9/FacialAge/BNav_EC2/DepthDuration/v2_depth_duration_MTurk/v2_DepthDuration_HTML.html#226,226,1366,625,1366,768,9-3-2022,9-22-36,98,depth_duration_stimuli/001570_2014-06-20_17-21-09_260595134347_rgbf000135-resize_4/001570_2014-06-20_17-21-09_260595134347_rgbf000135-resize_4-target.png,125,4.467,5,2539,126,feet,jsons/VE125_randls_12_rotated.json,682381,860743,34,Man
98,991770,DepthScenes,duration_manipulation_targetAtFixation,jsons/VE125_randls_12_rotated.json,http://54.235.29.9/FacialAge/BNav_EC2/DepthDuration/v2_depth_duration_MTurk/v2_DepthDuration_HTML.html#226,226,1366,625,1366,768,9-3-2022,9-22-36,99,depth_duration_stimuli/001222_2014-06-17_16-24-06_260595134347_rgbf000073-resize_0/001222_2014-06-17_16-24-06_260595134347_rgbf000073-resize-original.jpg,125,1.4385,2,3038,126,feet,jsons/VE125_randls_12_rotated.json,682381,860743,34,Man
99,991770,DepthScenes,duration_manipulation_targetAtFixation,jsons/VE125_randls_12_rotated.json,http://54.235.29.9/FacialAge/BNav_EC2/DepthDuration/v2_depth_duration_MTurk/v2_DepthDuration_HTML.html#226,226,1366,625,1366,768,9-3-2022,9-22-36,100,depth_duration_stimuli/002805_2014-06-22_19-54-03_094959634447_rgbf000079-resize_1/002805_2014-06-22_19-54-03_094959634447_rgbf000079-resize_1-target.png,125,3.1439999999999997,1,2299,125,feet,jsons/VE125_randls_12_rotated.json,682381,860743,34,Man
100,991770,DepthScenes,duration_manipulation_targetAtFixation,jsons/VE125_randls_12_rotated.json,http://54.235.29.9/FacialAge/BNav_EC2/DepthDuration/v2_depth_duration_MTurk/v2_DepthDuration_HTML.html#226,226,1366,625,1366,768,9-3-2022,9-22-36,101,depth_duration_stimuli/000906_2014-06-08_13-35-43_260595134347_rgbf000155-resize_1/000906_2014-06-08_13-35-43_260595134347_rgbf000155-resize_1-target.png,125,2.8489999999999998,2,3298,125,feet,jsons/VE125_randls_12_rotated.json,682381,860743,34,Man
101,991770,DepthScenes,duration_manipulation_targetAtFixation,jsons/VE125_randls_12_rotated.json,http://54.235.29.9/FacialAge/BNav_EC2/DepthDuration/v2_depth_duration_MTurk/v2_DepthDuration_HTML.html#226,226,1366,625,1366,768,9-3-2022,9-22-36,102,depth_duration_stimuli/000742_2014-06-08_18-48-09_260595134347_rgbf000164-resize_4/000742_2014-06-08_18-48-09_260595134347_rgbf000164-resize_4-target.png,125,4.632,6,2943,124,feet,jsons/VE125_randls_12_rotated.json,682381,860743,34,Man
102,991770,DepthScenes,duration_manipulation_targetAtFixation,jsons/VE125_randls_12_rotated.json,http://54.235.29.9/FacialAge/BNav_EC2/DepthDuration/v2_depth_duration_MTurk/v2_DepthDuration_HTML.html#226,226,1366,625,1366,768,9-3-2022,9-22-36,103,depth_duration_stimuli/001066_2014-06-08_22-03-20_260595134347_rgbf000066-resize_4/001066_2014-06-08_22-03-20_260595134347_rgbf000066-resize_4-target.png,125,4.2330000000000005,3,2613,124,feet,jsons/VE125_randls_12_rotated.json,682381,860743,34,Man
103,991770,DepthScenes,duration_manipulation_targetAtFixation,jsons/VE125_randls_12_rotated.json,http://54.235.29.9/FacialAge/BNav_EC2/DepthDuration/v2_depth_duration_MTurk/v2_DepthDuration_HTML.html#226,226,1366,625,1366,768,9-3-2022,9-22-36,104,depth_duration_stimuli/003081_2014-06-15_15-19-16_094959634447_rgbf000150-resize_1/003081_2014-06-15_15-19-16_094959634447_rgbf000150-resize_1-target.png,125,3.9125,3,2978,124,feet,jsons/VE125_randls_12_rotated.json,682381,860743,34,Man
104,991770,DepthScenes,duration_manipulation_targetAtFixation,jsons/VE125_randls_12_rotated.json,http://54.235.29.9/FacialAge/BNav_EC2/DepthDuration/v2_depth_duration_MTurk/v2_DepthDuration_HTML.html#226,226,1366,625,1366,768,9-3-2022,9-22-36,105,depth_duration_stimuli/001417_2014-06-19_16-25-36_260595134347_rgbf000115-resize_5/001417_2014-06-19_16-25-36_260595134347_rgbf000115-resize_5-target.png,125,4.6255,6,2639,125,feet,jsons/VE125_randls_12_rotated.json,682381,860743,34,Man
105,991770,DepthScenes,duration_manipulation_targetAtFixation,jsons/VE125_randls_12_rotated.json,http://54.235.29.9/FacialAge/BNav_EC2/DepthDuration/v2_depth_duration_MTurk/v2_DepthDuration_HTML.html#226,226,1366,625,1366,768,9-3-2022,9-22-36,106,depth_duration_stimuli/002637_2014-06-24_14-51-13_094959634447_rgbf000066-resize_4/002637_2014-06-24_14-51-13_094959634447_rgbf000066-resize_4-target.png,125,1.9955,4,2597,125,feet,jsons/VE125_randls_12_rotated.json,682381,860743,34,Man
106,991770,DepthScenes,duration_manipulation_targetAtFixation,jsons/VE125_randls_12_rotated.json,http://54.235.29.9/FacialAge/BNav_EC2/DepthDuration/v2_depth_duration_MTurk/v2_DepthDuration_HTML.html#226,226,1366,625,1366,768,9-3-2022,9-22-36,107,depth_duration_stimuli/003534_2014-05-22_15-06-10_094959634447_rgbf000102-resize_4/003534_2014-05-22_15-06-10_094959634447_rgbf000102-resize_4-target.png,125,1.426,5,2598,126,feet,jsons/VE125_randls_12_rotated.json,682381,860743,34,Man
107,991770,DepthScenes,duration_manipulation_targetAtFixation,jsons/VE125_randls_12_rotated.json,http://54.235.29.9/FacialAge/BNav_EC2/DepthDuration/v2_depth_duration_MTurk/v2_DepthDuration_HTML.html#226,226,1366,625,1366,768,9-3-2022,9-22-36,108,depth_duration_stimuli/001617_2014-06-20_11-35-32_260595134347_rgbf000066-resize_1/001617_2014-06-20_11-35-32_260595134347_rgbf000066-resize_1-target.png,125,3.7910000000000004,6,2659,126,feet,jsons/VE125_randls_12_rotated.json,682381,860743,34,Man
108,991770,DepthScenes,duration_manipulation_targetAtFixation,jsons/VE125_randls_12_rotated.json,http://54.235.29.9/FacialAge/BNav_EC2/DepthDuration/v2_depth_duration_MTurk/v2_DepthDuration_HTML.html#226,226,1366,625,1366,768,9-3-2022,9-22-36,109,depth_duration_stimuli/001806_2014-06-26_20-50-20_260595134347_rgbf000091-resize_1/001806_2014-06-26_20-50-20_260595134347_rgbf000091-resize_1-target.png,125,2.7305,6,3139,125,feet,jsons/VE125_randls_12_rotated.json,682381,860743,34,Man
109,991770,DepthScenes,duration_manipulation_targetAtFixation,jsons/VE125_randls_12_rotated.json,http://54.235.29.9/FacialAge/BNav_EC2/DepthDuration/v2_depth_duration_MTurk/v2_DepthDuration_HTML.html#226,226,1366,625,1366,768,9-3-2022,9-22-36,110,depth_duration_stimuli/002444_2014-06-28_20-32-08_260595134347_rgbf000027-resize_0/002444_2014-06-28_20-32-08_260595134347_rgbf000027-resize_0-target.png,125,4.388999999999999,6,3098,126,feet,jsons/VE125_randls_12_rotated.json,682381,860743,34,Man
110,991770,DepthScenes,duration_manipulation_targetAtFixation,jsons/VE125_randls_12_rotated.json,http://54.235.29.9/FacialAge/BNav_EC2/DepthDuration/v2_depth_duration_MTurk/v2_DepthDuration_HTML.html#226,226,1366,625,1366,768,9-3-2022,9-22-36,111,depth_duration_stimuli/000436_2014-06-09_22-25-11_260595134347_rgbf000137-resize_1/000436_2014-06-09_22-25-11_260595134347_rgbf000137-resize_1-target.png,125,4.0705,6,2979,124,feet,jsons/VE125_randls_12_rotated.json,682381,860743,34,Man
111,991770,DepthScenes,duration_manipulation_targetAtFixation,jsons/VE125_randls_12_rotated.json,http://54.235.29.9/FacialAge/BNav_EC2/DepthDuration/v2_depth_duration_MTurk/v2_DepthDuration_HTML.html#226,226,1366,625,1366,768,9-3-2022,9-22-36,112,depth_duration_stimuli/002136_2014-06-25_21-18-03_260595134347_rgbf000109-resize_3/002136_2014-06-25_21-18-03_260595134347_rgbf000109-resize_3-target.png,125,1.9569999999999999,8,2840,125,feet,jsons/VE125_randls_12_rotated.json,682381,860743,34,Man
112,991770,DepthScenes,duration_manipulation_targetAtFixation,jsons/VE125_randls_12_rotated.json,http://54.235.29.9/FacialAge/BNav_EC2/DepthDuration/v2_depth_duration_MTurk/v2_DepthDuration_HTML.html#226,226,1366,625,1366,768,9-3-2022,9-22-36,113,depth_duration_stimuli/002964_2014-06-08_17-46-11_094959634447_rgbf000091-resize_4/002964_2014-06-08_17-46-11_094959634447_rgbf000091-resize_4-target.png,125,1.6909999999999998,6,2679,124,feet,jsons/VE125_randls_12_rotated.json,682381,860743,34,Man
113,991770,DepthScenes,duration_manipulation_targetAtFixation,jsons/VE125_randls_12_rotated.json,http://54.235.29.9/FacialAge/BNav_EC2/DepthDuration/v2_depth_duration_MTurk/v2_DepthDuration_HTML.html#226,226,1366,625,1366,768,9-3-2022,9-22-36,114,depth_duration_stimuli/000866_2014-06-09_20-45-42_260595134347_rgbf000139-resize_1/000866_2014-06-09_20-45-42_260595134347_rgbf000139-resize_1-target.png,125,3.2155,4,2580,125,feet,jsons/VE125_randls_12_rotated.json,682381,860743,34,Man
114,991770,DepthScenes,duration_manipulation_targetAtFixation,jsons/VE125_randls_12_rotated.json,http://54.235.29.9/FacialAge/BNav_EC2/DepthDuration/v2_depth_duration_MTurk/v2_DepthDuration_HTML.html#226,226,1366,625,1366,768,9-3-2022,9-22-36,115,depth_duration_stimuli/002989_2014-06-15_12-25-03_094959634447_rgbf000150-resize_3/002989_2014-06-15_12-25-03_094959634447_rgbf000150-resize_3-target.png,125,4.1975,6,2798,124,feet,jsons/VE125_randls_12_rotated.json,682381,860743,34,Man
115,991770,DepthScenes,duration_manipulation_targetAtFixation,jsons/VE125_randls_12_rotated.json,http://54.235.29.9/FacialAge/BNav_EC2/DepthDuration/v2_depth_duration_MTurk/v2_DepthDuration_HTML.html#226,226,1366,625,1366,768,9-3-2022,9-22-36,116,depth_duration_stimuli/003129_2014-05-12_10-48-10_094959634447_rgbf000100-resize_0/003129_2014-05-12_10-48-10_094959634447_rgbf000100-resize_0-target.png,125,4.9305,8,3039,124,feet,jsons/VE125_randls_12_rotated.json,682381,860743,34,Man
116,991770,DepthScenes,duration_manipulation_targetAtFixation,jsons/VE125_randls_12_rotated.json,http://54.235.29.9/FacialAge/BNav_EC2/DepthDuration/v2_depth_duration_MTurk/v2_DepthDuration_HTML.html#226,226,1366,625,1366,768,9-3-2022,9-22-36,117,depth_duration_stimuli/000414_2014-06-04_19-49-13_260595134347_rgbf000044-resize_0/000414_2014-06-04_19-49-13_260595134347_rgbf000044-resize_0-target.png,125,4.329,4,4177,125,feet,jsons/VE125_randls_12_rotated.json,682381,860743,34,Man
117,991770,DepthScenes,duration_manipulation_targetAtFixation,jsons/VE125_randls_12_rotated.json,http://54.235.29.9/FacialAge/BNav_EC2/DepthDuration/v2_depth_duration_MTurk/v2_DepthDuration_HTML.html#226,226,1366,625,1366,768,9-3-2022,9-22-36,118,depth_duration_stimuli/000109_2014-05-14_23-41-52_260595134347_rgbf000035-resize_9/000109_2014-05-14_23-41-52_260595134347_rgbf000035-resize_9-target.png,125,1.3545,5,2637,125,feet,jsons/VE125_randls_12_rotated.json,682381,860743,34,Man
118,991770,DepthScenes,duration_manipulation_targetAtFixation,jsons/VE125_randls_12_rotated.json,http://54.235.29.9/FacialAge/BNav_EC2/DepthDuration/v2_depth_duration_MTurk/v2_DepthDuration_HTML.html#226,226,1366,625,1366,768,9-3-2022,9-22-36,119,depth_duration_stimuli/000470_2014-06-09_19-42-40_260595134347_rgbf000094-resize_1/000470_2014-06-09_19-42-40_260595134347_rgbf000094-resize_1-target.png,125,1.831,3,7729,126,feet,jsons/VE125_randls_12_rotated.json,682381,860743,34,Man
119,991770,DepthScenes,duration_manipulation_targetAtFixation,jsons/VE125_randls_12_rotated.json,http://54.235.29.9/FacialAge/BNav_EC2/DepthDuration/v2_depth_duration_MTurk/v2_DepthDuration_HTML.html#226,226,1366,625,1366,768,9-3-2022,9-22-36,120,depth_duration_stimuli/000787_2014-06-08_22-33-53_260595134347_rgbf000175-resize_1/000787_2014-06-08_22-33-53_260595134347_rgbf000175-resize-original.jpg,125,4.784,4,4088,124,feet,jsons/VE125_randls_12_rotated.json,682381,860743,34,Man
120,991770,DepthScenes,duration_manipulation_targetAtFixation,jsons/VE125_randls_12_rotated.json,http://54.235.29.9/FacialAge/BNav_EC2/DepthDuration/v2_depth_duration_MTurk/v2_DepthDuration_HTML.html#226,226,1366,625,1366,768,9-3-2022,9-22-36,121,depth_duration_stimuli/000854_2014-06-09_19-43-13_260595134347_rgbf000066-resize_0/000854_2014-06-09_19-43-13_260595134347_rgbf000066-resize_0-target.png,125,3.068,4,3818,126,feet,jsons/VE125_randls_12_rotated.json,682381,860743,34,Man
121,991770,DepthScenes,duration_manipulation_targetAtFixation,jsons/VE125_randls_12_rotated.json,http://54.235.29.9/FacialAge/BNav_EC2/DepthDuration/v2_depth_duration_MTurk/v2_DepthDuration_HTML.html#226,226,1366,625,1366,768,9-3-2022,9-22-36,122,depth_duration_stimuli/000758_2014-06-08_22-05-08_260595134347_rgbf000085-resize_0/000758_2014-06-08_22-05-08_260595134347_rgbf000085-resize_0-target.png,125,3.3810000000000002,5,3098,125,feet,jsons/VE125_randls_12_rotated.json,682381,860743,34,Man
122,991770,DepthScenes,duration_manipulation_targetAtFixation,jsons/VE125_randls_12_rotated.json,http://54.235.29.9/FacialAge/BNav_EC2/DepthDuration/v2_depth_duration_MTurk/v2_DepthDuration_HTML.html#226,226,1366,625,1366,768,9-3-2022,9-22-36,123,depth_duration_stimuli/002660_2014-06-13_15-44-18_094959634447_rgbf001878-resize_2/002660_2014-06-13_15-44-18_094959634447_rgbf001878-resize_2-target.png,125,3.576,3,3258,125,feet,jsons/VE125_randls_12_rotated.json,682381,860743,34,Man
123,991770,DepthScenes,duration_manipulation_targetAtFixation,jsons/VE125_randls_12_rotated.json,http://54.235.29.9/FacialAge/BNav_EC2/DepthDuration/v2_depth_duration_MTurk/v2_DepthDuration_HTML.html#226,226,1366,625,1366,768,9-3-2022,9-22-36,124,depth_duration_stimuli/002153_2014-06-25_21-27-18_260595134347_rgbf000038-resize_5/002153_2014-06-25_21-27-18_260595134347_rgbf000038-resize_5-target.png,125,2.505,4,2717,124,feet,jsons/VE125_randls_12_rotated.json,682381,860743,34,Man
124,991770,DepthScenes,duration_manipulation_targetAtFixation,jsons/VE125_randls_12_rotated.json,http://54.235.29.9/FacialAge/BNav_EC2/DepthDuration/v2_depth_duration_MTurk/v2_DepthDuration_HTML.html#226,226,1366,625,1366,768,9-3-2022,9-22-36,125,depth_duration_stimuli/000709_2014-06-08_13-51-55_260595134347_rgbf000068-resize_3/000709_2014-06-08_13-51-55_260595134347_rgbf000068-resize_3-target.png,125,1.8030000000000002,3,3318,124,feet,jsons/VE125_randls_12_rotated.json,682381,860743,34,Man
125,991770,DepthScenes,duration_manipulation_targetAtFixation,jsons/VE125_randls_12_rotated.json,http://54.235.29.9/FacialAge/BNav_EC2/DepthDuration/v2_depth_duration_MTurk/v2_DepthDuration_HTML.html#226,226,1366,625,1366,768,9-3-2022,9-22-36,126,depth_duration_stimuli/002057_2014-06-24_21-00-13_260595134347_rgbf000120-resize_1/002057_2014-06-24_21-00-13_260595134347_rgbf000120-resize_1-target.png,125,2.967,9,4802,126,feet,jsons/VE125_randls_12_rotated.json,682381,860743,34,Man
126,991770,DepthScenes,duration_manipulation_targetAtFixation,jsons/VE125_randls_12_rotated.json,http://54.235.29.9/FacialAge/BNav_EC2/DepthDuration/v2_depth_duration_MTurk/v2_DepthDuration_HTML.html#226,226,1366,625,1366,768,9-3-2022,9-22-36,127,depth_duration_stimuli/000191_2014-05-12_17-07-38_260595134347_rgbf000199-resize_0/000191_2014-05-12_17-07-38_260595134347_rgbf000199-resize_0-target.png,125,3.7995,9,2718,126,feet,jsons/VE125_randls_12_rotated.json,682381,860743,34,Man
127,991770,DepthScenes,duration_manipulation_targetAtFixation,jsons/VE125_randls_12_rotated.json,http://54.235.29.9/FacialAge/BNav_EC2/DepthDuration/v2_depth_duration_MTurk/v2_DepthDuration_HTML.html#226,226,1366,625,1366,768,9-3-2022,9-22-36,128,depth_duration_stimuli/000493_2014-06-09_21-01-18_260595134347_rgbf000196-resize_3/000493_2014-06-09_21-01-18_260595134347_rgbf000196-resize_3-target.png,125,3.44,6,4098,124,feet,jsons/VE125_randls_12_rotated.json,682381,860743,34,Man
128,991770,DepthScenes,duration_manipulation_targetAtFixation,jsons/VE125_randls_12_rotated.json,http://54.235.29.9/FacialAge/BNav_EC2/DepthDuration/v2_depth_duration_MTurk/v2_DepthDuration_HTML.html#226,226,1366,625,1366,768,9-3-2022,9-22-36,129,depth_duration_stimuli/002340_2014-06-28_20-05-46_260595134347_rgbf000113-resize_0/002340_2014-06-28_20-05-46_260595134347_rgbf000113-resize_0-target.png,125,2.4735,4,2557,124,feet,jsons/VE125_randls_12_rotated.json,682381,860743,34,Man
129,991770,DepthScenes,duration_manipulation_targetAtFixation,jsons/VE125_randls_12_rotated.json,http://54.235.29.9/FacialAge/BNav_EC2/DepthDuration/v2_depth_duration_MTurk/v2_DepthDuration_HTML.html#226,226,1366,625,1366,768,9-3-2022,9-22-36,130,depth_duration_stimuli/001016_2014-06-09_16-16-10_260595134347_rgbf000112-resize_5/001016_2014-06-09_16-16-10_260595134347_rgbf000112-resize_5-target.png,125,1.6565,6,2659,125,feet,jsons/VE125_randls_12_rotated.json,682381,860743,34,Man
130,991770,DepthScenes,duration_manipulation_targetAtFixation,jsons/VE125_randls_12_rotated.json,http://54.235.29.9/FacialAge/BNav_EC2/DepthDuration/v2_depth_duration_MTurk/v2_DepthDuration_HTML.html#226,226,1366,625,1366,768,9-3-2022,9-22-36,131,depth_duration_stimuli/000691_2014-06-08_13-08-50_260595134347_rgbf000132-resize_3/000691_2014-06-08_13-08-50_260595134347_rgbf000132-resize_3-target.png,125,4.1530000000000005,6,2739,126,feet,jsons/VE125_randls_12_rotated.json,682381,860743,34,Man
131,991770,DepthScenes,duration_manipulation_targetAtFixation,jsons/VE125_randls_12_rotated.json,http://54.235.29.9/FacialAge/BNav_EC2/DepthDuration/v2_depth_duration_MTurk/v2_DepthDuration_HTML.html#226,226,1366,625,1366,768,9-3-2022,9-22-36,132,depth_duration_stimuli/002213_2014-06-28_18-37-58_260595134347_rgbf000055-resize_1/002213_2014-06-28_18-37-58_260595134347_rgbf000055-resize_1-target.png,125,3.62,12,3019,126,feet,jsons/VE125_randls_12_rotated.json,682381,860743,34,Man
132,991770,DepthScenes,duration_manipulation_targetAtFixation,jsons/VE125_randls_12_rotated.json,http://54.235.29.9/FacialAge/BNav_EC2/DepthDuration/v2_depth_duration_MTurk/v2_DepthDuration_HTML.html#226,226,1366,625,1366,768,9-3-2022,9-22-36,133,depth_duration_stimuli/000103_2014-05-14_22-01-17_260595134347_rgbf000152-resize_5/000103_2014-05-14_22-01-17_260595134347_rgbf000152-resize_5-target.png,125,1.993,11,2479,126,feet,jsons/VE125_randls_12_rotated.json,682381,860743,34,Man
133,991770,DepthScenes,duration_manipulation_targetAtFixation,jsons/VE125_randls_12_rotated.json,http://54.235.29.9/FacialAge/BNav_EC2/DepthDuration/v2_depth_duration_MTurk/v2_DepthDuration_HTML.html#226,226,1366,625,1366,768,9-3-2022,9-22-36,134,depth_duration_stimuli/001555_2014-06-20_17-12-10_260595134347_rgbf000065-resize_4/001555_2014-06-20_17-12-10_260595134347_rgbf000065-resize_4-target.png,125,1.633,6,3139,125,feet,jsons/VE125_randls_12_rotated.json,682381,860743,34,Man
134,991770,DepthScenes,duration_manipulation_targetAtFixation,jsons/VE125_randls_12_rotated.json,http://54.235.29.9/FacialAge/BNav_EC2/DepthDuration/v2_depth_duration_MTurk/v2_DepthDuration_HTML.html#226,226,1366,625,1366,768,9-3-2022,9-22-36,135,depth_duration_stimuli/000375_2014-06-08_11-17-29_260595134347_rgbf000133-resize_2/000375_2014-06-08_11-17-29_260595134347_rgbf000133-resize-original.jpg,125,4.718,7,2736,125,feet,jsons/VE125_randls_12_rotated.json,682381,860743,34,Man
135,991770,DepthScenes,duration_manipulation_targetAtFixation,jsons/VE125_randls_12_rotated.json,http://54.235.29.9/FacialAge/BNav_EC2/DepthDuration/v2_depth_duration_MTurk/v2_DepthDuration_HTML.html#226,226,1366,625,1366,768,9-3-2022,9-22-36,136,depth_duration_stimuli/002103_2014-06-25_20-00-40_260595134347_rgbf000049-resize_0/002103_2014-06-25_20-00-40_260595134347_rgbf000049-resize_0-target.png,125,4.105,8,3079,125,feet,jsons/VE125_randls_12_rotated.json,682381,860743,34,Man
136,991770,DepthScenes,duration_manipulation_targetAtFixation,jsons/VE125_randls_12_rotated.json,http://54.235.29.9/FacialAge/BNav_EC2/DepthDuration/v2_depth_duration_MTurk/v2_DepthDuration_HTML.html#226,226,1366,625,1366,768,9-3-2022,9-22-36,137,depth_duration_stimuli/002039_2014-06-24_20-22-38_260595134347_rgbf000084-resize_1/002039_2014-06-24_20-22-38_260595134347_rgbf000084-resize_1-target.png,125,4.408,6,2537,125,feet,jsons/VE125_randls_12_rotated.json,682381,860743,34,Man
137,991770,DepthScenes,duration_manipulation_targetAtFixation,jsons/VE125_randls_12_rotated.json,http://54.235.29.9/FacialAge/BNav_EC2/DepthDuration/v2_depth_duration_MTurk/v2_DepthDuration_HTML.html#226,226,1366,625,1366,768,9-3-2022,9-22-36,138,depth_duration_stimuli/003079_2014-06-15_15-18-20_094959634447_rgbf000152-resize_8/003079_2014-06-15_15-18-20_094959634447_rgbf000152-resize_8-target.png,125,2.8775,11,3056,125,feet,jsons/VE125_randls_12_rotated.json,682381,860743,34,Man
138,991770,DepthScenes,duration_manipulation_targetAtFixation,jsons/VE125_randls_12_rotated.json,http://54.235.29.9/FacialAge/BNav_EC2/DepthDuration/v2_depth_duration_MTurk/v2_DepthDuration_HTML.html#226,226,1366,625,1366,768,9-3-2022,9-22-36,139,depth_duration_stimuli/000506_2014-06-08_23-21-00_260595134347_rgbf000070-resize_7/000506_2014-06-08_23-21-00_260595134347_rgbf000070-resize_7-target.png,125,4.0585,6,2698,125,feet,jsons/VE125_randls_12_rotated.json,682381,860743,34,Man
139,991770,DepthScenes,duration_manipulation_targetAtFixation,jsons/VE125_randls_12_rotated.json,http://54.235.29.9/FacialAge/BNav_EC2/DepthDuration/v2_depth_duration_MTurk/v2_DepthDuration_HTML.html#226,226,1366,625,1366,768,9-3-2022,9-22-36,140,depth_duration_stimuli/001214_2014-06-17_16-13-55_260595134347_rgbf000111-resize_0/001214_2014-06-17_16-13-55_260595134347_rgbf000111-resize_0-target.png,125,2.6505,7,3409,125,feet,jsons/VE125_randls_12_rotated.json,682381,860743,34,Man
140,991770,DepthScenes,duration_manipulation_targetAtFixation,jsons/VE125_randls_12_rotated.json,http://54.235.29.9/FacialAge/BNav_EC2/DepthDuration/v2_depth_duration_MTurk/v2_DepthDuration_HTML.html#226,226,1366,625,1366,768,9-3-2022,9-22-36,141,depth_duration_stimuli/000810_2014-06-08_17-20-01_260595134347_rgbf000105-resize_0/000810_2014-06-08_17-20-01_260595134347_rgbf000105-resize_0-target.png,125,1.4865,8,4169,125,feet,jsons/VE125_randls_12_rotated.json,682381,860743,34,Man
141,991770,DepthScenes,duration_manipulation_targetAtFixation,jsons/VE125_randls_12_rotated.json,http://54.235.29.9/FacialAge/BNav_EC2/DepthDuration/v2_depth_duration_MTurk/v2_DepthDuration_HTML.html#226,226,1366,625,1366,768,9-3-2022,9-22-36,142,depth_duration_stimuli/000635_2014-06-08_16-38-42_260595134347_rgbf000106-resize_1/000635_2014-06-08_16-38-42_260595134347_rgbf000106-resize_1-target.png,125,2.074,8,2802,125,feet,jsons/VE125_randls_12_rotated.json,682381,860743,34,Man
142,991770,DepthScenes,duration_manipulation_targetAtFixation,jsons/VE125_randls_12_rotated.json,http://54.235.29.9/FacialAge/BNav_EC2/DepthDuration/v2_depth_duration_MTurk/v2_DepthDuration_HTML.html#226,226,1366,625,1366,768,9-3-2022,9-22-36,143,depth_duration_stimuli/002279_2014-06-28_18-55-32_260595134347_rgbf000040-resize_5/002279_2014-06-28_18-55-32_260595134347_rgbf000040-resize_5-target.png,125,1.5043333333333,8,4155,127,feet,jsons/VE125_randls_12_rotated.json,682381,860743,34,Man
143,991770,DepthScenes,duration_manipulation_targetAtFixation,jsons/VE125_randls_12_rotated.json,http://54.235.29.9/FacialAge/BNav_EC2/DepthDuration/v2_depth_duration_MTurk/v2_DepthDuration_HTML.html#226,226,1366,625,1366,768,9-3-2022,9-22-36,144,depth_duration_stimuli/001094_2014-06-15_17-36-00_260595134347_rgbf000205-resize_0/001094_2014-06-15_17-36-00_260595134347_rgbf000205-resize_0-target.png,125,4.2175,8,2878,125,feet,jsons/VE125_randls_12_rotated.json,682381,860743,34,Man
144,991770,DepthScenes,duration_manipulation_targetAtFixation,jsons/VE125_randls_12_rotated.json,http://54.235.29.9/FacialAge/BNav_EC2/DepthDuration/v2_depth_duration_MTurk/v2_DepthDuration_HTML.html#226,226,1366,625,1366,768,9-3-2022,9-22-36,145,depth_duration_stimuli/000692_2014-06-08_13-09-42_260595134347_rgbf000199-resize_2/000692_2014-06-08_13-09-42_260595134347_rgbf000199-resize_2-target.png,125,3.661,9,3057,124,feet,jsons/VE125_randls_12_rotated.json,682381,860743,34,Man
145,991770,DepthScenes,duration_manipulation_targetAtFixation,jsons/VE125_randls_12_rotated.json,http://54.235.29.9/FacialAge/BNav_EC2/DepthDuration/v2_depth_duration_MTurk/v2_DepthDuration_HTML.html#226,226,1366,625,1366,768,9-3-2022,9-22-36,146,depth_duration_stimuli/003495_2014-05-21_16-01-51_094959634447_rgbf000100-resize_3/003495_2014-05-21_16-01-51_094959634447_rgbf000100-resize_3-target.png,125,1.6255,7,3041,125,feet,jsons/VE125_randls_12_rotated.json,682381,860743,34,Man
146,991770,DepthScenes,duration_manipulation_targetAtFixation,jsons/VE125_randls_12_rotated.json,http://54.235.29.9/FacialAge/BNav_EC2/DepthDuration/v2_depth_duration_MTurk/v2_DepthDuration_HTML.html#226,226,1366,625,1366,768,9-3-2022,9-22-36,147,depth_duration_stimuli/001244_2014-06-17_16-47-45_260595134347_rgbf000030-resize_4/001244_2014-06-17_16-47-45_260595134347_rgbf000030-resize_4-target.png,125,2.0425,5,2997,124,feet,jsons/VE125_randls_12_rotated.json,682381,860743,34,Man
147,991770,DepthScenes,duration_manipulation_targetAtFixation,jsons/VE125_randls_12_rotated.json,http://54.235.29.9/FacialAge/BNav_EC2/DepthDuration/v2_depth_duration_MTurk/v2_DepthDuration_HTML.html#226,226,1366,625,1366,768,9-3-2022,9-22-36,148,depth_duration_stimuli/003083_2014-06-15_15-21-03_094959634447_rgbf000063-resize_1/003083_2014-06-15_15-21-03_094959634447_rgbf000063-resize_1-target.png,125,4.1405,7,2998,126,feet,jsons/VE125_randls_12_rotated.json,682381,860743,34,Man
148,991770,DepthScenes,duration_manipulation_targetAtFixation,jsons/VE125_randls_12_rotated.json,http://54.235.29.9/FacialAge/BNav_EC2/DepthDuration/v2_depth_duration_MTurk/v2_DepthDuration_HTML.html#226,226,1366,625,1366,768,9-3-2022,9-22-36,149,depth_duration_stimuli/000486_2014-06-09_20-47-20_260595134347_rgbf000143-resize_2/000486_2014-06-09_20-47-20_260595134347_rgbf000143-resize_2-target.png,125,4.8325,5,5899,125,feet,jsons/VE125_randls_12_rotated.json,682381,860743,34,Man
149,991770,DepthScenes,duration_manipulation_targetAtFixation,jsons/VE125_randls_12_rotated.json,http://54.235.29.9/FacialAge/BNav_EC2/DepthDuration/v2_depth_duration_MTurk/v2_DepthDuration_HTML.html#226,226,1366,625,1366,768,9-3-2022,9-22-36,150,depth_duration_stimuli/002953_2014-06-08_17-32-18_094959634447_rgbf000059-resize_5/002953_2014-06-08_17-32-18_094959634447_rgbf000059-resize_5-target.png,125,1.551,3,2658,124,feet,jsons/VE125_randls_12_rotated.json,682381,860743,34,Man
150,991770,DepthScenes,duration_manipulation_targetAtFixation,jsons/VE125_randls_12_rotated.json,http://54.235.29.9/FacialAge/BNav_EC2/DepthDuration/v2_depth_duration_MTurk/v2_DepthDuration_HTML.html#226,226,1366,625,1366,768,9-3-2022,9-22-36,151,depth_duration_stimuli/000878_2014-06-08_22-52-45_260595134347_rgbf000045-resize_2/000878_2014-06-08_22-52-45_260595134347_rgbf000045-resize_2-target.png,125,2.092,4,2858,125,feet,jsons/VE125_randls_12_rotated.json,682381,860743,34,Man
151,991770,DepthScenes,duration_manipulation_targetAtFixation,jsons/VE125_randls_12_rotated.json,http://54.235.29.9/FacialAge/BNav_EC2/DepthDuration/v2_depth_duration_MTurk/v2_DepthDuration_HTML.html#226,226,1366,625,1366,768,9-3-2022,9-22-36,152,depth_duration_stimuli/000569_2014-06-09_22-51-47_260595134347_rgbf000141-resize_3/000569_2014-06-09_22-51-47_260595134347_rgbf000141-resize-original.jpg,125,4.512,5,2481,125,feet,jsons/VE125_randls_12_rotated.json,682381,860743,34,Man
152,991770,DepthScenes,duration_manipulation_targetAtFixation,jsons/VE125_randls_12_rotated.json,http://54.235.29.9/FacialAge/BNav_EC2/DepthDuration/v2_depth_duration_MTurk/v2_DepthDuration_HTML.html#226,226,1366,625,1366,768,9-3-2022,9-22-36,153,depth_duration_stimuli/002323_2014-06-28_20-01-54_260595134347_rgbf000051-resize_4/002323_2014-06-28_20-01-54_260595134347_rgbf000051-resize_4-target.png,125,3.7310000000000003,8,3282,125,feet,jsons/VE125_randls_12_rotated.json,682381,860743,34,Man
153,991770,DepthScenes,duration_manipulation_targetAtFixation,jsons/VE125_randls_12_rotated.json,http://54.235.29.9/FacialAge/BNav_EC2/DepthDuration/v2_depth_duration_MTurk/v2_DepthDuration_HTML.html#226,226,1366,625,1366,768,9-3-2022,9-22-36,154,depth_duration_stimuli/000917_2014-06-09_22-45-29_260595134347_rgbf000149-resize_3/000917_2014-06-09_22-45-29_260595134347_rgbf000149-resize_3-target.png,125,4.1865,9,3327,125,feet,jsons/VE125_randls_12_rotated.json,682381,860743,34,Man
154,991770,DepthScenes,duration_manipulation_targetAtFixation,jsons/VE125_randls_12_rotated.json,http://54.235.29.9/FacialAge/BNav_EC2/DepthDuration/v2_depth_duration_MTurk/v2_DepthDuration_HTML.html#226,226,1366,625,1366,768,9-3-2022,9-22-36,155,depth_duration_stimuli/003048_2014-06-15_13-49-43_094959634447_rgbf000150-resize_1/003048_2014-06-15_13-49-43_094959634447_rgbf000150-resize_1-target.png,125,4.0035,11,3365,125,feet,jsons/VE125_randls_12_rotated.json,682381,860743,34,Man
155,991770,DepthScenes,duration_manipulation_targetAtFixation,jsons/VE125_randls_12_rotated.json,http://54.235.29.9/FacialAge/BNav_EC2/DepthDuration/v2_depth_duration_MTurk/v2_DepthDuration_HTML.html#226,226,1366,625,1366,768,9-3-2022,9-22-36,156,depth_duration_stimuli/002043_2014-06-24_20-29-38_260595134347_rgbf000039-resize_4/002043_2014-06-24_20-29-38_260595134347_rgbf000039-resize_4-target.png,125,2.8435,9,5179,126,feet,jsons/VE125_randls_12_rotated.json,682381,860743,34,Man
156,991770,DepthScenes,duration_manipulation_targetAtFixation,jsons/VE125_randls_12_rotated.json,http://54.235.29.9/FacialAge/BNav_EC2/DepthDuration/v2_depth_duration_MTurk/v2_DepthDuration_HTML.html#226,226,1366,625,1366,768,9-3-2022,9-22-36,157,depth_duration_stimuli/000749_2014-06-08_21-55-06_260595134347_rgbf000070-resize_2/000749_2014-06-08_21-55-06_260595134347_rgbf000070-resize_2-target.png,125,2.331,7,4176,125,feet,jsons/VE125_randls_12_rotated.json,682381,860743,34,Man
157,991770,DepthScenes,duration_manipulation_targetAtFixation,jsons/VE125_randls_12_rotated.json,http://54.235.29.9/FacialAge/BNav_EC2/DepthDuration/v2_depth_duration_MTurk/v2_DepthDuration_HTML.html#226,226,1366,625,1366,768,9-3-2022,9-22-36,158,depth_duration_stimuli/002788_2014-06-22_19-36-03_094959634447_rgbf000088-resize_2/002788_2014-06-22_19-36-03_094959634447_rgbf000088-resize_2-target.png,125,1.6465,7,3601,125,feet,jsons/VE125_randls_12_rotated.json,682381,860743,34,Man
158,991770,DepthScenes,duration_manipulation_targetAtFixation,jsons/VE125_randls_12_rotated.json,http://54.235.29.9/FacialAge/BNav_EC2/DepthDuration/v2_depth_duration_MTurk/v2_DepthDuration_HTML.html#226,226,1366,625,1366,768,9-3-2022,9-22-36,159,depth_duration_stimuli/001136_2014-06-17_15-19-41_260595134347_rgbf000076-resize_3/001136_2014-06-17_15-19-41_260595134347_rgbf000076-resize_3-target.png,125,1.8655,5,4718,124,feet,jsons/VE125_randls_12_rotated.json,682381,860743,34,Man
159,991770,DepthScenes,duration_manipulation_targetAtFixation,jsons/VE125_randls_12_rotated.json,http://54.235.29.9/FacialAge/BNav_EC2/DepthDuration/v2_depth_duration_MTurk/v2_DepthDuration_HTML.html#226,226,1366,625,1366,768,9-3-2022,9-22-36,160,depth_duration_stimuli/001164_2014-06-17_15-35-46_260595134347_rgbf000085-resize_3/001164_2014-06-17_15-35-46_260595134347_rgbf000085-resize_3-target.png,125,2.354,6,2959,125,feet,jsons/VE125_randls_12_rotated.json,682381,860743,34,Man
160,991770,DepthScenes,duration_manipulation_targetAtFixation,jsons/VE125_randls_12_rotated.json,http://54.235.29.9/FacialAge/BNav_EC2/DepthDuration/v2_depth_duration_MTurk/v2_DepthDuration_HTML.html#226,226,1366,625,1366,768,9-3-2022,9-22-36,161,depth_duration_stimuli/003010_2014-06-15_12-54-35_094959634447_rgbf000112-resize_0/003010_2014-06-15_12-54-35_094959634447_rgbf000112-resize_0-target.png,125,3.1185,12,2670,125,feet,jsons/VE125_randls_12_rotated.json,682381,860743,34,Man
161,991770,DepthScenes,duration_manipulation_targetAtFixation,jsons/VE125_randls_12_rotated.json,http://54.235.29.9/FacialAge/BNav_EC2/DepthDuration/v2_depth_duration_MTurk/v2_DepthDuration_HTML.html#226,226,1366,625,1366,768,9-3-2022,9-22-36,162,depth_duration_stimuli/001810_2014-06-26_20-51-35_260595134347_rgbf000040-resize_3/001810_2014-06-26_20-51-35_260595134347_rgbf000040-resize_3-target.png,125,2.2525,6,2325,125,feet,jsons/VE125_randls_12_rotated.json,682381,860743,34,Man
162,991770,DepthScenes,duration_manipulation_targetAtFixation,jsons/VE125_randls_12_rotated.json,http://54.235.29.9/FacialAge/BNav_EC2/DepthDuration/v2_depth_duration_MTurk/v2_DepthDuration_HTML.html#226,226,1366,625,1366,768,9-3-2022,9-22-36,163,depth_duration_stimuli/000665_2014-06-09_20-42-35_260595134347_rgbf000110-resize_1/000665_2014-06-09_20-42-35_260595134347_rgbf000110-resize_1-target.png,125,3.057,8,2984,126,feet,jsons/VE125_randls_12_rotated.json,682381,860743,34,Man
163,991770,DepthScenes,duration_manipulation_targetAtFixation,jsons/VE125_randls_12_rotated.json,http://54.235.29.9/FacialAge/BNav_EC2/DepthDuration/v2_depth_duration_MTurk/v2_DepthDuration_HTML.html#226,226,1366,625,1366,768,9-3-2022,9-22-36,164,depth_duration_stimuli/001150_2014-06-17_15-27-34_260595134347_rgbf000108-resize_2/001150_2014-06-17_15-27-34_260595134347_rgbf000108-resize_2-target.png,125,4.0325,6,2693,125,feet,jsons/VE125_randls_12_rotated.json,682381,860743,34,Man
