,subjID,experimentName,versionName,sequenceName,url,selected_row,windowWidth,windowHeight,screenWidth,screenHeight,startDate,startTime,trial,stimulus,duration,actual_depth,depth_estimate,trial_RT,log_sceneDuration,unitSelection,seq_filepath,experimentTime,totalTime,age,gender
0,994489,DepthScenes,duration_manipulation_targetAtFixation,jsons/VE125_randls_73_rotated.json,http://54.235.29.9/FacialAge/BNav_EC2/DepthDuration/v2_depth_duration_MTurk/v2_DepthDuration_HTML.html#97,97,1600,789,1600,900,8-21-2022,9-37-54,1,depth_duration_stimuli/000749_2014-06-08_21-55-06_260595134347_rgbf000070-resize_2/000749_2014-06-08_21-55-06_260595134347_rgbf000070-resize_2-target.png,125,2.331,55,32541,124,meters,jsons/VE125_randls_73_rotated.json,1611075,1890025,42,Woman
1,994489,DepthScenes,duration_manipulation_targetAtFixation,jsons/VE125_randls_73_rotated.json,http://54.235.29.9/FacialAge/BNav_EC2/DepthDuration/v2_depth_duration_MTurk/v2_DepthDuration_HTML.html#97,97,1600,789,1600,900,8-21-2022,9-37-54,2,depth_duration_stimuli/002788_2014-06-22_19-36-03_094959634447_rgbf000088-resize_2/002788_2014-06-22_19-36-03_094959634447_rgbf000088-resize_2-target.png,125,1.6465,0,6219,125,meters,jsons/VE125_randls_73_rotated.json,1611075,1890025,42,Woman
2,994489,DepthScenes,duration_manipulation_targetAtFixation,jsons/VE125_randls_73_rotated.json,http://54.235.29.9/FacialAge/BNav_EC2/DepthDuration/v2_depth_duration_MTurk/v2_DepthDuration_HTML.html#97,97,1600,789,1600,900,8-21-2022,9-37-54,3,depth_duration_stimuli/002758_2014-06-22_19-11-20_094959634447_rgbf000128-resize_1/002758_2014-06-22_19-11-20_094959634447_rgbf000128-resize_1-target.png,125,2.555,50,3514,124,meters,jsons/VE125_randls_73_rotated.json,1611075,1890025,42,Woman
3,994489,DepthScenes,duration_manipulation_targetAtFixation,jsons/VE125_randls_73_rotated.json,http://54.235.29.9/FacialAge/BNav_EC2/DepthDuration/v2_depth_duration_MTurk/v2_DepthDuration_HTML.html#97,97,1600,789,1600,900,8-21-2022,9-37-54,4,depth_duration_stimuli/002630_2014-06-24_14-47-50_094959634447_rgbf000055-resize_1/002630_2014-06-24_14-47-50_094959634447_rgbf000055-resize_1-target.png,125,3.0095,55,2650,126,meters,jsons/VE125_randls_73_rotated.json,1611075,1890025,42,Woman
4,994489,DepthScenes,duration_manipulation_targetAtFixation,jsons/VE125_randls_73_rotated.json,http://54.235.29.9/FacialAge/BNav_EC2/DepthDuration/v2_depth_duration_MTurk/v2_DepthDuration_HTML.html#97,97,1600,789,1600,900,8-21-2022,9-37-54,5,depth_duration_stimuli/002568_2014-06-24_13-59-21_094959634447_rgbf000062-resize_4/002568_2014-06-24_13-59-21_094959634447_rgbf000062-resize_4-target.png,125,3.015,50,45471,125,meters,jsons/VE125_randls_73_rotated.json,1611075,1890025,42,Woman
5,994489,DepthScenes,duration_manipulation_targetAtFixation,jsons/VE125_randls_73_rotated.json,http://54.235.29.9/FacialAge/BNav_EC2/DepthDuration/v2_depth_duration_MTurk/v2_DepthDuration_HTML.html#97,97,1600,789,1600,900,8-21-2022,9-37-54,6,depth_duration_stimuli/003492_2014-05-21_15-50-55_094959634447_rgbf000828-resize_1/003492_2014-05-21_15-50-55_094959634447_rgbf000828-resize_1-target.png,125,4.06875,55,3754,126,meters,jsons/VE125_randls_73_rotated.json,1611075,1890025,42,Woman
6,994489,DepthScenes,duration_manipulation_targetAtFixation,jsons/VE125_randls_73_rotated.json,http://54.235.29.9/FacialAge/BNav_EC2/DepthDuration/v2_depth_duration_MTurk/v2_DepthDuration_HTML.html#97,97,1600,789,1600,900,8-21-2022,9-37-54,7,depth_duration_stimuli/001132_2014-06-17_14-48-54_260595134347_rgbf000100-resize_2/001132_2014-06-17_14-48-54_260595134347_rgbf000100-resize_2-target.png,125,3.753,55,4401,124,meters,jsons/VE125_randls_73_rotated.json,1611075,1890025,42,Woman
7,994489,DepthScenes,duration_manipulation_targetAtFixation,jsons/VE125_randls_73_rotated.json,http://54.235.29.9/FacialAge/BNav_EC2/DepthDuration/v2_depth_duration_MTurk/v2_DepthDuration_HTML.html#97,97,1600,789,1600,900,8-21-2022,9-37-54,8,depth_duration_stimuli/001133_2014-06-17_14-49-16_260595134347_rgbf000100-resize_0/001133_2014-06-17_14-49-16_260595134347_rgbf000100-resize_0-target.png,125,4.2115,65,3770,126,meters,jsons/VE125_randls_73_rotated.json,1611075,1890025,42,Woman
8,994489,DepthScenes,duration_manipulation_targetAtFixation,jsons/VE125_randls_73_rotated.json,http://54.235.29.9/FacialAge/BNav_EC2/DepthDuration/v2_depth_duration_MTurk/v2_DepthDuration_HTML.html#97,97,1600,789,1600,900,8-21-2022,9-37-54,9,depth_duration_stimuli/000457_2014-06-08_16-52-43_260595134347_rgbf000199-resize_1/000457_2014-06-08_16-52-43_260595134347_rgbf000199-resize_1-target.png,125,3.6489999999999996,70,13129,124,meters,jsons/VE125_randls_73_rotated.json,1611075,1890025,42,Woman
9,994489,DepthScenes,duration_manipulation_targetAtFixation,jsons/VE125_randls_73_rotated.json,http://54.235.29.9/FacialAge/BNav_EC2/DepthDuration/v2_depth_duration_MTurk/v2_DepthDuration_HTML.html#97,97,1600,789,1600,900,8-21-2022,9-37-54,10,depth_duration_stimuli/000929_2014-06-09_16-33-19_260595134347_rgbf000139-resize_0/000929_2014-06-09_16-33-19_260595134347_rgbf000139-resize_0-target.png,125,2.8680000000000003,75,5631,120,meters,jsons/VE125_randls_73_rotated.json,1611075,1890025,42,Woman
10,994489,DepthScenes,duration_manipulation_targetAtFixation,jsons/VE125_randls_73_rotated.json,http://54.235.29.9/FacialAge/BNav_EC2/DepthDuration/v2_depth_duration_MTurk/v2_DepthDuration_HTML.html#97,97,1600,789,1600,900,8-21-2022,9-37-54,11,depth_duration_stimuli/001516_2014-06-20_16-25-09_260595134347_rgbf000076-resize_2/001516_2014-06-20_16-25-09_260595134347_rgbf000076-resize_2-target.png,125,1.7445,55,3584,124,meters,jsons/VE125_randls_73_rotated.json,1611075,1890025,42,Woman
11,994489,DepthScenes,duration_manipulation_targetAtFixation,jsons/VE125_randls_73_rotated.json,http://54.235.29.9/FacialAge/BNav_EC2/DepthDuration/v2_depth_duration_MTurk/v2_DepthDuration_HTML.html#97,97,1600,789,1600,900,8-21-2022,9-37-54,12,depth_duration_stimuli/002118_2014-06-25_20-32-08_260595134347_rgbf000078-resize_1/002118_2014-06-25_20-32-08_260595134347_rgbf000078-resize_1-target.png,125,2.6460000000000004,53,4202,126,meters,jsons/VE125_randls_73_rotated.json,1611075,1890025,42,Woman
12,994489,DepthScenes,duration_manipulation_targetAtFixation,jsons/VE125_randls_73_rotated.json,http://54.235.29.9/FacialAge/BNav_EC2/DepthDuration/v2_depth_duration_MTurk/v2_DepthDuration_HTML.html#97,97,1600,789,1600,900,8-21-2022,9-37-54,13,depth_duration_stimuli/002657_2014-06-13_15-29-54_094959634447_rgbf000150-resize_1/002657_2014-06-13_15-29-54_094959634447_rgbf000150-resize_1-target.png,125,4.919,55,3770,125,meters,jsons/VE125_randls_73_rotated.json,1611075,1890025,42,Woman
13,994489,DepthScenes,duration_manipulation_targetAtFixation,jsons/VE125_randls_73_rotated.json,http://54.235.29.9/FacialAge/BNav_EC2/DepthDuration/v2_depth_duration_MTurk/v2_DepthDuration_HTML.html#97,97,1600,789,1600,900,8-21-2022,9-37-54,14,depth_duration_stimuli/002375_2014-06-28_20-13-44_260595134347_rgbf000032-resize_1/002375_2014-06-28_20-13-44_260595134347_rgbf000032-resize_1-target.png,125,4.0175,55,3626,126,meters,jsons/VE125_randls_73_rotated.json,1611075,1890025,42,Woman
14,994489,DepthScenes,duration_manipulation_targetAtFixation,jsons/VE125_randls_73_rotated.json,http://54.235.29.9/FacialAge/BNav_EC2/DepthDuration/v2_depth_duration_MTurk/v2_DepthDuration_HTML.html#97,97,1600,789,1600,900,8-21-2022,9-37-54,15,depth_duration_stimuli/003490_2014-05-21_15-50-11_094959634447_rgbf000101-resize_3/003490_2014-05-21_15-50-11_094959634447_rgbf000101-resize_3-target.png,125,3.6445,55,54596,124,meters,jsons/VE125_randls_73_rotated.json,1611075,1890025,42,Woman
15,994489,DepthScenes,duration_manipulation_targetAtFixation,jsons/VE125_randls_73_rotated.json,http://54.235.29.9/FacialAge/BNav_EC2/DepthDuration/v2_depth_duration_MTurk/v2_DepthDuration_HTML.html#97,97,1600,789,1600,900,8-21-2022,9-37-54,16,depth_duration_stimuli/001175_2014-06-17_15-45-55_260595134347_rgbf000129-resize_4/001175_2014-06-17_15-45-55_260595134347_rgbf000129-resize_4-target.png,125,4.255,75,4274,124,meters,jsons/VE125_randls_73_rotated.json,1611075,1890025,42,Woman
16,994489,DepthScenes,duration_manipulation_targetAtFixation,jsons/VE125_randls_73_rotated.json,http://54.235.29.9/FacialAge/BNav_EC2/DepthDuration/v2_depth_duration_MTurk/v2_DepthDuration_HTML.html#97,97,1600,789,1600,900,8-21-2022,9-37-54,17,depth_duration_stimuli/002199_2014-06-28_18-33-56_260595134347_rgbf000074-resize_0/002199_2014-06-28_18-33-56_260595134347_rgbf000074-resize_0-target.png,125,1.996,55,2867,126,meters,jsons/VE125_randls_73_rotated.json,1611075,1890025,42,Woman
17,994489,DepthScenes,duration_manipulation_targetAtFixation,jsons/VE125_randls_73_rotated.json,http://54.235.29.9/FacialAge/BNav_EC2/DepthDuration/v2_depth_duration_MTurk/v2_DepthDuration_HTML.html#97,97,1600,789,1600,900,8-21-2022,9-37-54,18,depth_duration_stimuli/001056_2014-06-08_18-46-44_260595134347_rgbf000068-resize_0/001056_2014-06-08_18-46-44_260595134347_rgbf000068-resize_0-target.png,125,2.6625,58,7423,125,meters,jsons/VE125_randls_73_rotated.json,1611075,1890025,42,Woman
18,994489,DepthScenes,duration_manipulation_targetAtFixation,jsons/VE125_randls_73_rotated.json,http://54.235.29.9/FacialAge/BNav_EC2/DepthDuration/v2_depth_duration_MTurk/v2_DepthDuration_HTML.html#97,97,1600,789,1600,900,8-21-2022,9-37-54,19,depth_duration_stimuli/001498_2014-06-19_17-45-14_260595134347_rgbf000129-resize_4/001498_2014-06-19_17-45-14_260595134347_rgbf000129-resize-original.jpg,125,1.4075,0,3874,124,meters,jsons/VE125_randls_73_rotated.json,1611075,1890025,42,Woman
19,994489,DepthScenes,duration_manipulation_targetAtFixation,jsons/VE125_randls_73_rotated.json,http://54.235.29.9/FacialAge/BNav_EC2/DepthDuration/v2_depth_duration_MTurk/v2_DepthDuration_HTML.html#97,97,1600,789,1600,900,8-21-2022,9-37-54,20,depth_duration_stimuli/003081_2014-06-15_15-19-16_094959634447_rgbf000150-resize_1/003081_2014-06-15_15-19-16_094959634447_rgbf000150-resize_1-target.png,125,3.9125,55,3178,126,meters,jsons/VE125_randls_73_rotated.json,1611075,1890025,42,Woman
20,994489,DepthScenes,duration_manipulation_targetAtFixation,jsons/VE125_randls_73_rotated.json,http://54.235.29.9/FacialAge/BNav_EC2/DepthDuration/v2_depth_duration_MTurk/v2_DepthDuration_HTML.html#97,97,1600,789,1600,900,8-21-2022,9-37-54,21,depth_duration_stimuli/001417_2014-06-19_16-25-36_260595134347_rgbf000115-resize_5/001417_2014-06-19_16-25-36_260595134347_rgbf000115-resize_5-target.png,125,4.6255,55,2602,125,meters,jsons/VE125_randls_73_rotated.json,1611075,1890025,42,Woman
21,994489,DepthScenes,duration_manipulation_targetAtFixation,jsons/VE125_randls_73_rotated.json,http://54.235.29.9/FacialAge/BNav_EC2/DepthDuration/v2_depth_duration_MTurk/v2_DepthDuration_HTML.html#97,97,1600,789,1600,900,8-21-2022,9-37-54,22,depth_duration_stimuli/003587_2014-05-23_16-48-02_094959634447_rgbf002384-resize_2/003587_2014-05-23_16-48-02_094959634447_rgbf002384-resize_2-target.png,125,1.357,65,6793,122,meters,jsons/VE125_randls_73_rotated.json,1611075,1890025,42,Woman
22,994489,DepthScenes,duration_manipulation_targetAtFixation,jsons/VE125_randls_73_rotated.json,http://54.235.29.9/FacialAge/BNav_EC2/DepthDuration/v2_depth_duration_MTurk/v2_DepthDuration_HTML.html#97,97,1600,789,1600,900,8-21-2022,9-37-54,23,depth_duration_stimuli/001167_2014-06-17_15-38-07_260595134347_rgbf000108-resize_0/001167_2014-06-17_15-38-07_260595134347_rgbf000108-resize_0-target.png,125,1.8505,55,2792,126,meters,jsons/VE125_randls_73_rotated.json,1611075,1890025,42,Woman
23,994489,DepthScenes,duration_manipulation_targetAtFixation,jsons/VE125_randls_73_rotated.json,http://54.235.29.9/FacialAge/BNav_EC2/DepthDuration/v2_depth_duration_MTurk/v2_DepthDuration_HTML.html#97,97,1600,789,1600,900,8-21-2022,9-37-54,24,depth_duration_stimuli/002545_2014-06-24_13-38-53_094959634447_rgbf000080-resize_4/002545_2014-06-24_13-38-53_094959634447_rgbf000080-resize_4-target.png,125,1.9205,55,2660,126,meters,jsons/VE125_randls_73_rotated.json,1611075,1890025,42,Woman
24,994489,DepthScenes,duration_manipulation_targetAtFixation,jsons/VE125_randls_73_rotated.json,http://54.235.29.9/FacialAge/BNav_EC2/DepthDuration/v2_depth_duration_MTurk/v2_DepthDuration_HTML.html#97,97,1600,789,1600,900,8-21-2022,9-37-54,25,depth_duration_stimuli/001092_2014-06-15_17-34-58_260595134347_rgbf000171-resize_3/001092_2014-06-15_17-34-58_260595134347_rgbf000171-resize_3-target.png,125,2.6935,65,3115,124,meters,jsons/VE125_randls_73_rotated.json,1611075,1890025,42,Woman
25,994489,DepthScenes,duration_manipulation_targetAtFixation,jsons/VE125_randls_73_rotated.json,http://54.235.29.9/FacialAge/BNav_EC2/DepthDuration/v2_depth_duration_MTurk/v2_DepthDuration_HTML.html#97,97,1600,789,1600,900,8-21-2022,9-37-54,26,depth_duration_stimuli/002949_2014-06-26_15-57-42_094959634447_rgbf000079-resize_1/002949_2014-06-26_15-57-42_094959634447_rgbf000079-resize_1-target.png,125,1.8915,80,4475,126,meters,jsons/VE125_randls_73_rotated.json,1611075,1890025,42,Woman
26,994489,DepthScenes,duration_manipulation_targetAtFixation,jsons/VE125_randls_73_rotated.json,http://54.235.29.9/FacialAge/BNav_EC2/DepthDuration/v2_depth_duration_MTurk/v2_DepthDuration_HTML.html#97,97,1600,789,1600,900,8-21-2022,9-37-54,27,depth_duration_stimuli/000522_2014-06-08_13-35-06_260595134347_rgbf000244-resize_1/000522_2014-06-08_13-35-06_260595134347_rgbf000244-resize_1-target.png,125,2.3715,57,3881,124,meters,jsons/VE125_randls_73_rotated.json,1611075,1890025,42,Woman
27,994489,DepthScenes,duration_manipulation_targetAtFixation,jsons/VE125_randls_73_rotated.json,http://54.235.29.9/FacialAge/BNav_EC2/DepthDuration/v2_depth_duration_MTurk/v2_DepthDuration_HTML.html#97,97,1600,789,1600,900,8-21-2022,9-37-54,28,depth_duration_stimuli/001235_2014-06-17_16-37-36_260595134347_rgbf000084-resize_4/001235_2014-06-17_16-37-36_260595134347_rgbf000084-resize_4-target.png,125,3.6605,58,4169,125,meters,jsons/VE125_randls_73_rotated.json,1611075,1890025,42,Woman
28,994489,DepthScenes,duration_manipulation_targetAtFixation,jsons/VE125_randls_73_rotated.json,http://54.235.29.9/FacialAge/BNav_EC2/DepthDuration/v2_depth_duration_MTurk/v2_DepthDuration_HTML.html#97,97,1600,789,1600,900,8-21-2022,9-37-54,29,depth_duration_stimuli/000788_2014-06-08_22-34-36_260595134347_rgbf000131-resize_1/000788_2014-06-08_22-34-36_260595134347_rgbf000131-resize_1-target.png,125,3.359,59,3362,126,meters,jsons/VE125_randls_73_rotated.json,1611075,1890025,42,Woman
29,994489,DepthScenes,duration_manipulation_targetAtFixation,jsons/VE125_randls_73_rotated.json,http://54.235.29.9/FacialAge/BNav_EC2/DepthDuration/v2_depth_duration_MTurk/v2_DepthDuration_HTML.html#97,97,1600,789,1600,900,8-21-2022,9-37-54,30,depth_duration_stimuli/002072_2014-06-24_21-48-06_260595134347_rgbf000115-resize_0/002072_2014-06-24_21-48-06_260595134347_rgbf000115-resize-original.jpg,125,4.702,0,65686,125,meters,jsons/VE125_randls_73_rotated.json,1611075,1890025,42,Woman
30,994489,DepthScenes,duration_manipulation_targetAtFixation,jsons/VE125_randls_73_rotated.json,http://54.235.29.9/FacialAge/BNav_EC2/DepthDuration/v2_depth_duration_MTurk/v2_DepthDuration_HTML.html#97,97,1600,789,1600,900,8-21-2022,9-37-54,31,depth_duration_stimuli/001136_2014-06-17_15-19-41_260595134347_rgbf000076-resize_3/001136_2014-06-17_15-19-41_260595134347_rgbf000076-resize_3-target.png,125,1.8655,55,2956,125,meters,jsons/VE125_randls_73_rotated.json,1611075,1890025,42,Woman
31,994489,DepthScenes,duration_manipulation_targetAtFixation,jsons/VE125_randls_73_rotated.json,http://54.235.29.9/FacialAge/BNav_EC2/DepthDuration/v2_depth_duration_MTurk/v2_DepthDuration_HTML.html#97,97,1600,789,1600,900,8-21-2022,9-37-54,32,depth_duration_stimuli/001164_2014-06-17_15-35-46_260595134347_rgbf000085-resize_3/001164_2014-06-17_15-35-46_260595134347_rgbf000085-resize_3-target.png,125,2.354,55,22679,124,meters,jsons/VE125_randls_73_rotated.json,1611075,1890025,42,Woman
32,994489,DepthScenes,duration_manipulation_targetAtFixation,jsons/VE125_randls_73_rotated.json,http://54.235.29.9/FacialAge/BNav_EC2/DepthDuration/v2_depth_duration_MTurk/v2_DepthDuration_HTML.html#97,97,1600,789,1600,900,8-21-2022,9-37-54,33,depth_duration_stimuli/003079_2014-06-15_15-18-20_094959634447_rgbf000152-resize_8/003079_2014-06-15_15-18-20_094959634447_rgbf000152-resize_8-target.png,125,2.8775,0,2929,113,meters,jsons/VE125_randls_73_rotated.json,1611075,1890025,42,Woman
33,994489,DepthScenes,duration_manipulation_targetAtFixation,jsons/VE125_randls_73_rotated.json,http://54.235.29.9/FacialAge/BNav_EC2/DepthDuration/v2_depth_duration_MTurk/v2_DepthDuration_HTML.html#97,97,1600,789,1600,900,8-21-2022,9-37-54,34,depth_duration_stimuli/000506_2014-06-08_23-21-00_260595134347_rgbf000070-resize_7/000506_2014-06-08_23-21-00_260595134347_rgbf000070-resize_7-target.png,125,4.0585,54,3319,126,meters,jsons/VE125_randls_73_rotated.json,1611075,1890025,42,Woman
34,994489,DepthScenes,duration_manipulation_targetAtFixation,jsons/VE125_randls_73_rotated.json,http://54.235.29.9/FacialAge/BNav_EC2/DepthDuration/v2_depth_duration_MTurk/v2_DepthDuration_HTML.html#97,97,1600,789,1600,900,8-21-2022,9-37-54,35,depth_duration_stimuli/003338_2014-05-20_11-01-23_094959634447_rgbf000051-resize_6/003338_2014-05-20_11-01-23_094959634447_rgbf000051-resize_6-target.png,125,1.693,54,3992,127,meters,jsons/VE125_randls_73_rotated.json,1611075,1890025,42,Woman
35,994489,DepthScenes,duration_manipulation_targetAtFixation,jsons/VE125_randls_73_rotated.json,http://54.235.29.9/FacialAge/BNav_EC2/DepthDuration/v2_depth_duration_MTurk/v2_DepthDuration_HTML.html#97,97,1600,789,1600,900,8-21-2022,9-37-54,36,depth_duration_stimuli/002509_2014-06-24_13-19-22_094959634447_rgbf000077-resize_0/002509_2014-06-24_13-19-22_094959634447_rgbf000077-resize_0-target.png,125,1.3065,0,4220,122,meters,jsons/VE125_randls_73_rotated.json,1611075,1890025,42,Woman
36,994489,DepthScenes,duration_manipulation_targetAtFixation,jsons/VE125_randls_73_rotated.json,http://54.235.29.9/FacialAge/BNav_EC2/DepthDuration/v2_depth_duration_MTurk/v2_DepthDuration_HTML.html#97,97,1600,789,1600,900,8-21-2022,9-37-54,37,depth_duration_stimuli/001392_2014-06-19_16-07-59_260595134347_rgbf000046-resize_1/001392_2014-06-19_16-07-59_260595134347_rgbf000046-resize_1-target.png,125,4.135,77,9662,124,meters,jsons/VE125_randls_73_rotated.json,1611075,1890025,42,Woman
37,994489,DepthScenes,duration_manipulation_targetAtFixation,jsons/VE125_randls_73_rotated.json,http://54.235.29.9/FacialAge/BNav_EC2/DepthDuration/v2_depth_duration_MTurk/v2_DepthDuration_HTML.html#97,97,1600,789,1600,900,8-21-2022,9-37-54,38,depth_duration_stimuli/001570_2014-06-20_17-21-09_260595134347_rgbf000135-resize_4/001570_2014-06-20_17-21-09_260595134347_rgbf000135-resize_4-target.png,125,4.467,0,19766,123,meters,jsons/VE125_randls_73_rotated.json,1611075,1890025,42,Woman
38,994489,DepthScenes,duration_manipulation_targetAtFixation,jsons/VE125_randls_73_rotated.json,http://54.235.29.9/FacialAge/BNav_EC2/DepthDuration/v2_depth_duration_MTurk/v2_DepthDuration_HTML.html#97,97,1600,789,1600,900,8-21-2022,9-37-54,39,depth_duration_stimuli/003423_2014-05-21_10-23-26_094959634447_rgbf002665-resize_2/003423_2014-05-21_10-23-26_094959634447_rgbf002665-resize_2-target.png,125,3.2575,55,3873,124,meters,jsons/VE125_randls_73_rotated.json,1611075,1890025,42,Woman
39,994489,DepthScenes,duration_manipulation_targetAtFixation,jsons/VE125_randls_73_rotated.json,http://54.235.29.9/FacialAge/BNav_EC2/DepthDuration/v2_depth_duration_MTurk/v2_DepthDuration_HTML.html#97,97,1600,789,1600,900,8-21-2022,9-37-54,40,depth_duration_stimuli/002905_2014-06-03_18-04-43_094959634447_rgbf000151-resize_2/002905_2014-06-03_18-04-43_094959634447_rgbf000151-resize_2-target.png,125,2.0295,54,4514,124,meters,jsons/VE125_randls_73_rotated.json,1611075,1890025,42,Woman
40,994489,DepthScenes,duration_manipulation_targetAtFixation,jsons/VE125_randls_73_rotated.json,http://54.235.29.9/FacialAge/BNav_EC2/DepthDuration/v2_depth_duration_MTurk/v2_DepthDuration_HTML.html#97,97,1600,789,1600,900,8-21-2022,9-37-54,41,depth_duration_stimuli/000109_2014-05-14_23-41-52_260595134347_rgbf000035-resize_9/000109_2014-05-14_23-41-52_260595134347_rgbf000035-resize_9-target.png,125,1.3545,55,6731,125,meters,jsons/VE125_randls_73_rotated.json,1611075,1890025,42,Woman
41,994489,DepthScenes,duration_manipulation_targetAtFixation,jsons/VE125_randls_73_rotated.json,http://54.235.29.9/FacialAge/BNav_EC2/DepthDuration/v2_depth_duration_MTurk/v2_DepthDuration_HTML.html#97,97,1600,789,1600,900,8-21-2022,9-37-54,42,depth_duration_stimuli/000470_2014-06-09_19-42-40_260595134347_rgbf000094-resize_1/000470_2014-06-09_19-42-40_260595134347_rgbf000094-resize_1-target.png,125,1.831,52,2744,125,meters,jsons/VE125_randls_73_rotated.json,1611075,1890025,42,Woman
42,994489,DepthScenes,duration_manipulation_targetAtFixation,jsons/VE125_randls_73_rotated.json,http://54.235.29.9/FacialAge/BNav_EC2/DepthDuration/v2_depth_duration_MTurk/v2_DepthDuration_HTML.html#97,97,1600,789,1600,900,8-21-2022,9-37-54,43,depth_duration_stimuli/000734_2014-06-08_17-39-11_260595134347_rgbf000128-resize_2/000734_2014-06-08_17-39-11_260595134347_rgbf000128-resize_2-target.png,125,4.098,55,77534,126,meters,jsons/VE125_randls_73_rotated.json,1611075,1890025,42,Woman
43,994489,DepthScenes,duration_manipulation_targetAtFixation,jsons/VE125_randls_73_rotated.json,http://54.235.29.9/FacialAge/BNav_EC2/DepthDuration/v2_depth_duration_MTurk/v2_DepthDuration_HTML.html#97,97,1600,789,1600,900,8-21-2022,9-37-54,44,depth_duration_stimuli/000739_2014-06-08_18-45-58_260595134347_rgbf000068-resize_1/000739_2014-06-08_18-45-58_260595134347_rgbf000068-resize_1-target.png,125,3.534,0,2426,124,meters,jsons/VE125_randls_73_rotated.json,1611075,1890025,42,Woman
44,994489,DepthScenes,duration_manipulation_targetAtFixation,jsons/VE125_randls_73_rotated.json,http://54.235.29.9/FacialAge/BNav_EC2/DepthDuration/v2_depth_duration_MTurk/v2_DepthDuration_HTML.html#97,97,1600,789,1600,900,8-21-2022,9-37-54,45,depth_duration_stimuli/003010_2014-06-15_12-54-35_094959634447_rgbf000112-resize_0/003010_2014-06-15_12-54-35_094959634447_rgbf000112-resize_0-target.png,125,3.1185,66,2778,124,meters,jsons/VE125_randls_73_rotated.json,1611075,1890025,42,Woman
45,994489,DepthScenes,duration_manipulation_targetAtFixation,jsons/VE125_randls_73_rotated.json,http://54.235.29.9/FacialAge/BNav_EC2/DepthDuration/v2_depth_duration_MTurk/v2_DepthDuration_HTML.html#97,97,1600,789,1600,900,8-21-2022,9-37-54,46,depth_duration_stimuli/001810_2014-06-26_20-51-35_260595134347_rgbf000040-resize_3/001810_2014-06-26_20-51-35_260595134347_rgbf000040-resize_3-target.png,125,2.2525,65,2522,125,meters,jsons/VE125_randls_73_rotated.json,1611075,1890025,42,Woman
46,994489,DepthScenes,duration_manipulation_targetAtFixation,jsons/VE125_randls_73_rotated.json,http://54.235.29.9/FacialAge/BNav_EC2/DepthDuration/v2_depth_duration_MTurk/v2_DepthDuration_HTML.html#97,97,1600,789,1600,900,8-21-2022,9-37-54,47,depth_duration_stimuli/000866_2014-06-09_20-45-42_260595134347_rgbf000139-resize_1/000866_2014-06-09_20-45-42_260595134347_rgbf000139-resize_1-target.png,125,3.2155,66,2330,124,meters,jsons/VE125_randls_73_rotated.json,1611075,1890025,42,Woman
47,994489,DepthScenes,duration_manipulation_targetAtFixation,jsons/VE125_randls_73_rotated.json,http://54.235.29.9/FacialAge/BNav_EC2/DepthDuration/v2_depth_duration_MTurk/v2_DepthDuration_HTML.html#97,97,1600,789,1600,900,8-21-2022,9-37-54,48,depth_duration_stimuli/002989_2014-06-15_12-25-03_094959634447_rgbf000150-resize_3/002989_2014-06-15_12-25-03_094959634447_rgbf000150-resize_3-target.png,125,4.1975,52,2478,125,meters,jsons/VE125_randls_73_rotated.json,1611075,1890025,42,Woman
48,994489,DepthScenes,duration_manipulation_targetAtFixation,jsons/VE125_randls_73_rotated.json,http://54.235.29.9/FacialAge/BNav_EC2/DepthDuration/v2_depth_duration_MTurk/v2_DepthDuration_HTML.html#97,97,1600,789,1600,900,8-21-2022,9-37-54,49,depth_duration_stimuli/001170_2014-06-17_15-43-44_260595134347_rgbf000096-resize_6/001170_2014-06-17_15-43-44_260595134347_rgbf000096-resize-original.jpg,125,1.1909999999999998,0,2167,124,meters,jsons/VE125_randls_73_rotated.json,1611075,1890025,42,Woman
49,994489,DepthScenes,duration_manipulation_targetAtFixation,jsons/VE125_randls_73_rotated.json,http://54.235.29.9/FacialAge/BNav_EC2/DepthDuration/v2_depth_duration_MTurk/v2_DepthDuration_HTML.html#97,97,1600,789,1600,900,8-21-2022,9-37-54,50,depth_duration_stimuli/001571_2014-06-20_17-21-32_260595134347_rgbf000089-resize_1/001571_2014-06-20_17-21-32_260595134347_rgbf000089-resize_1-target.png,125,1.86,55,2316,125,meters,jsons/VE125_randls_73_rotated.json,1611075,1890025,42,Woman
50,994489,DepthScenes,duration_manipulation_targetAtFixation,jsons/VE125_randls_73_rotated.json,http://54.235.29.9/FacialAge/BNav_EC2/DepthDuration/v2_depth_duration_MTurk/v2_DepthDuration_HTML.html#97,97,1600,789,1600,900,8-21-2022,9-37-54,51,depth_duration_stimuli/002272_2014-06-28_18-53-56_260595134347_rgbf000067-resize_2/002272_2014-06-28_18-53-56_260595134347_rgbf000067-resize_2-target.png,125,1.138,55,2411,124,meters,jsons/VE125_randls_73_rotated.json,1611075,1890025,42,Woman
51,994489,DepthScenes,duration_manipulation_targetAtFixation,jsons/VE125_randls_73_rotated.json,http://54.235.29.9/FacialAge/BNav_EC2/DepthDuration/v2_depth_duration_MTurk/v2_DepthDuration_HTML.html#97,97,1600,789,1600,900,8-21-2022,9-37-54,52,depth_duration_stimuli/002637_2014-06-24_14-51-13_094959634447_rgbf000066-resize_4/002637_2014-06-24_14-51-13_094959634447_rgbf000066-resize_4-target.png,125,1.9955,54,2489,124,meters,jsons/VE125_randls_73_rotated.json,1611075,1890025,42,Woman
52,994489,DepthScenes,duration_manipulation_targetAtFixation,jsons/VE125_randls_73_rotated.json,http://54.235.29.9/FacialAge/BNav_EC2/DepthDuration/v2_depth_duration_MTurk/v2_DepthDuration_HTML.html#97,97,1600,789,1600,900,8-21-2022,9-37-54,53,depth_duration_stimuli/003534_2014-05-22_15-06-10_094959634447_rgbf000102-resize_4/003534_2014-05-22_15-06-10_094959634447_rgbf000102-resize_4-target.png,125,1.426,85,2330,125,meters,jsons/VE125_randls_73_rotated.json,1611075,1890025,42,Woman
53,994489,DepthScenes,duration_manipulation_targetAtFixation,jsons/VE125_randls_73_rotated.json,http://54.235.29.9/FacialAge/BNav_EC2/DepthDuration/v2_depth_duration_MTurk/v2_DepthDuration_HTML.html#97,97,1600,789,1600,900,8-21-2022,9-37-54,54,depth_duration_stimuli/002425_2014-06-28_20-27-29_260595134347_rgbf000031-resize_8/002425_2014-06-28_20-27-29_260595134347_rgbf000031-resize_8-target.png,125,3.8960000000000004,45,2235,125,meters,jsons/VE125_randls_73_rotated.json,1611075,1890025,42,Woman
54,994489,DepthScenes,duration_manipulation_targetAtFixation,jsons/VE125_randls_73_rotated.json,http://54.235.29.9/FacialAge/BNav_EC2/DepthDuration/v2_depth_duration_MTurk/v2_DepthDuration_HTML.html#97,97,1600,789,1600,900,8-21-2022,9-37-54,55,depth_duration_stimuli/000642_2014-06-08_16-59-25_260595134347_rgbf000098-resize_2/000642_2014-06-08_16-59-25_260595134347_rgbf000098-resize_2-target.png,125,2.8815,65,2713,125,meters,jsons/VE125_randls_73_rotated.json,1611075,1890025,42,Woman
55,994489,DepthScenes,duration_manipulation_targetAtFixation,jsons/VE125_randls_73_rotated.json,http://54.235.29.9/FacialAge/BNav_EC2/DepthDuration/v2_depth_duration_MTurk/v2_DepthDuration_HTML.html#97,97,1600,789,1600,900,8-21-2022,9-37-54,56,depth_duration_stimuli/001052_2014-06-08_18-24-54_260595134347_rgbf000130-resize_1/001052_2014-06-08_18-24-54_260595134347_rgbf000130-resize_1-target.png,125,4.1045,66,2556,125,meters,jsons/VE125_randls_73_rotated.json,1611075,1890025,42,Woman
56,994489,DepthScenes,duration_manipulation_targetAtFixation,jsons/VE125_randls_73_rotated.json,http://54.235.29.9/FacialAge/BNav_EC2/DepthDuration/v2_depth_duration_MTurk/v2_DepthDuration_HTML.html#97,97,1600,789,1600,900,8-21-2022,9-37-54,57,depth_duration_stimuli/002988_2014-06-15_12-24-20_094959634447_rgbf000150-resize_1/002988_2014-06-15_12-24-20_094959634447_rgbf000150-resize_1-target.png,125,4.7669999999999995,85,3257,125,meters,jsons/VE125_randls_73_rotated.json,1611075,1890025,42,Woman
57,994489,DepthScenes,duration_manipulation_targetAtFixation,jsons/VE125_randls_73_rotated.json,http://54.235.29.9/FacialAge/BNav_EC2/DepthDuration/v2_depth_duration_MTurk/v2_DepthDuration_HTML.html#97,97,1600,789,1600,900,8-21-2022,9-37-54,58,depth_duration_stimuli/003495_2014-05-21_16-01-51_094959634447_rgbf000100-resize_3/003495_2014-05-21_16-01-51_094959634447_rgbf000100-resize_3-target.png,125,1.6255,53,4613,69,meters,jsons/VE125_randls_73_rotated.json,1611075,1890025,42,Woman
58,994489,DepthScenes,duration_manipulation_targetAtFixation,jsons/VE125_randls_73_rotated.json,http://54.235.29.9/FacialAge/BNav_EC2/DepthDuration/v2_depth_duration_MTurk/v2_DepthDuration_HTML.html#97,97,1600,789,1600,900,8-21-2022,9-37-54,59,depth_duration_stimuli/001244_2014-06-17_16-47-45_260595134347_rgbf000030-resize_4/001244_2014-06-17_16-47-45_260595134347_rgbf000030-resize_4-target.png,125,2.0425,57,3130,126,meters,jsons/VE125_randls_73_rotated.json,1611075,1890025,42,Woman
59,994489,DepthScenes,duration_manipulation_targetAtFixation,jsons/VE125_randls_73_rotated.json,http://54.235.29.9/FacialAge/BNav_EC2/DepthDuration/v2_depth_duration_MTurk/v2_DepthDuration_HTML.html#97,97,1600,789,1600,900,8-21-2022,9-37-54,60,depth_duration_stimuli/003048_2014-06-15_13-49-43_094959634447_rgbf000150-resize_1/003048_2014-06-15_13-49-43_094959634447_rgbf000150-resize_1-target.png,125,4.0035,58,104671,126,meters,jsons/VE125_randls_73_rotated.json,1611075,1890025,42,Woman
60,994489,DepthScenes,duration_manipulation_targetAtFixation,jsons/VE125_randls_73_rotated.json,http://54.235.29.9/FacialAge/BNav_EC2/DepthDuration/v2_depth_duration_MTurk/v2_DepthDuration_HTML.html#97,97,1600,789,1600,900,8-21-2022,9-37-54,61,depth_duration_stimuli/002043_2014-06-24_20-29-38_260595134347_rgbf000039-resize_4/002043_2014-06-24_20-29-38_260595134347_rgbf000039-resize_4-target.png,125,2.8435,55,2954,126,meters,jsons/VE125_randls_73_rotated.json,1611075,1890025,42,Woman
61,994489,DepthScenes,duration_manipulation_targetAtFixation,jsons/VE125_randls_73_rotated.json,http://54.235.29.9/FacialAge/BNav_EC2/DepthDuration/v2_depth_duration_MTurk/v2_DepthDuration_HTML.html#97,97,1600,789,1600,900,8-21-2022,9-37-54,62,depth_duration_stimuli/001094_2014-06-15_17-36-00_260595134347_rgbf000205-resize_0/001094_2014-06-15_17-36-00_260595134347_rgbf000205-resize_0-target.png,125,4.2175,56,4685,124,meters,jsons/VE125_randls_73_rotated.json,1611075,1890025,42,Woman
62,994489,DepthScenes,duration_manipulation_targetAtFixation,jsons/VE125_randls_73_rotated.json,http://54.235.29.9/FacialAge/BNav_EC2/DepthDuration/v2_depth_duration_MTurk/v2_DepthDuration_HTML.html#97,97,1600,789,1600,900,8-21-2022,9-37-54,63,depth_duration_stimuli/000692_2014-06-08_13-09-42_260595134347_rgbf000199-resize_2/000692_2014-06-08_13-09-42_260595134347_rgbf000199-resize_2-target.png,125,3.661,55,2314,126,meters,jsons/VE125_randls_73_rotated.json,1611075,1890025,42,Woman
63,994489,DepthScenes,duration_manipulation_targetAtFixation,jsons/VE125_randls_73_rotated.json,http://54.235.29.9/FacialAge/BNav_EC2/DepthDuration/v2_depth_duration_MTurk/v2_DepthDuration_HTML.html#97,97,1600,789,1600,900,8-21-2022,9-37-54,64,depth_duration_stimuli/000780_2014-06-08_22-28-29_260595134347_rgbf000126-resize_1/000780_2014-06-08_22-28-29_260595134347_rgbf000126-resize_1-target.png,125,3.3825,52,2218,126,meters,jsons/VE125_randls_73_rotated.json,1611075,1890025,42,Woman
64,994489,DepthScenes,duration_manipulation_targetAtFixation,jsons/VE125_randls_73_rotated.json,http://54.235.29.9/FacialAge/BNav_EC2/DepthDuration/v2_depth_duration_MTurk/v2_DepthDuration_HTML.html#97,97,1600,789,1600,900,8-21-2022,9-37-54,65,depth_duration_stimuli/002445_2014-06-28_20-32-16_260595134347_rgbf000029-resize_4/002445_2014-06-28_20-32-16_260595134347_rgbf000029-resize_4-target.png,125,2.5315,0,2633,124,meters,jsons/VE125_randls_73_rotated.json,1611075,1890025,42,Woman
65,994489,DepthScenes,duration_manipulation_targetAtFixation,jsons/VE125_randls_73_rotated.json,http://54.235.29.9/FacialAge/BNav_EC2/DepthDuration/v2_depth_duration_MTurk/v2_DepthDuration_HTML.html#97,97,1600,789,1600,900,8-21-2022,9-37-54,66,depth_duration_stimuli/001540_2014-06-20_17-01-05_260595134347_rgbf000086-resize_2/001540_2014-06-20_17-01-05_260595134347_rgbf000086-resize-original.jpg,125,1.459,52,2587,124,meters,jsons/VE125_randls_73_rotated.json,1611075,1890025,42,Woman
66,994489,DepthScenes,duration_manipulation_targetAtFixation,jsons/VE125_randls_73_rotated.json,http://54.235.29.9/FacialAge/BNav_EC2/DepthDuration/v2_depth_duration_MTurk/v2_DepthDuration_HTML.html#97,97,1600,789,1600,900,8-21-2022,9-37-54,67,depth_duration_stimuli/002995_2014-06-15_12-31-26_094959634447_rgbf000150-resize_1/002995_2014-06-15_12-31-26_094959634447_rgbf000150-resize_1-target.png,125,3.8360000000000003,55,2632,125,meters,jsons/VE125_randls_73_rotated.json,1611075,1890025,42,Woman
67,994489,DepthScenes,duration_manipulation_targetAtFixation,jsons/VE125_randls_73_rotated.json,http://54.235.29.9/FacialAge/BNav_EC2/DepthDuration/v2_depth_duration_MTurk/v2_DepthDuration_HTML.html#97,97,1600,789,1600,900,8-21-2022,9-37-54,68,depth_duration_stimuli/002748_2014-06-22_19-07-22_094959634447_rgbf000078-resize_1/002748_2014-06-22_19-07-22_094959634447_rgbf000078-resize_1-target.png,125,4.6705,55,2506,124,meters,jsons/VE125_randls_73_rotated.json,1611075,1890025,42,Woman
68,994489,DepthScenes,duration_manipulation_targetAtFixation,jsons/VE125_randls_73_rotated.json,http://54.235.29.9/FacialAge/BNav_EC2/DepthDuration/v2_depth_duration_MTurk/v2_DepthDuration_HTML.html#97,97,1600,789,1600,900,8-21-2022,9-37-54,69,depth_duration_stimuli/001032_2014-06-08_13-23-17_260595134347_rgbf000021-resize_3/001032_2014-06-08_13-23-17_260595134347_rgbf000021-resize_3-target.png,125,3.2725,56,2634,125,meters,jsons/VE125_randls_73_rotated.json,1611075,1890025,42,Woman
69,994489,DepthScenes,duration_manipulation_targetAtFixation,jsons/VE125_randls_73_rotated.json,http://54.235.29.9/FacialAge/BNav_EC2/DepthDuration/v2_depth_duration_MTurk/v2_DepthDuration_HTML.html#97,97,1600,789,1600,900,8-21-2022,9-37-54,70,depth_duration_stimuli/001059_2014-06-08_21-53-27_260595134347_rgbf000061-resize_4/001059_2014-06-08_21-53-27_260595134347_rgbf000061-resize_4-target.png,125,2.4185,59,2298,124,meters,jsons/VE125_randls_73_rotated.json,1611075,1890025,42,Woman
70,994489,DepthScenes,duration_manipulation_targetAtFixation,jsons/VE125_randls_73_rotated.json,http://54.235.29.9/FacialAge/BNav_EC2/DepthDuration/v2_depth_duration_MTurk/v2_DepthDuration_HTML.html#97,97,1600,789,1600,900,8-21-2022,9-37-54,71,depth_duration_stimuli/000943_2014-06-09_19-31-07_260595134347_rgbf000128-resize_1/000943_2014-06-09_19-31-07_260595134347_rgbf000128-resize_1-target.png,125,1.9765,55,2378,125,meters,jsons/VE125_randls_73_rotated.json,1611075,1890025,42,Woman
71,994489,DepthScenes,duration_manipulation_targetAtFixation,jsons/VE125_randls_73_rotated.json,http://54.235.29.9/FacialAge/BNav_EC2/DepthDuration/v2_depth_duration_MTurk/v2_DepthDuration_HTML.html#97,97,1600,789,1600,900,8-21-2022,9-37-54,72,depth_duration_stimuli/003070_2014-06-15_14-58-27_094959634447_rgbf000150-resize_3/003070_2014-06-15_14-58-27_094959634447_rgbf000150-resize_3-target.png,125,2.9415,52,2315,125,meters,jsons/VE125_randls_73_rotated.json,1611075,1890025,42,Woman
72,994489,DepthScenes,duration_manipulation_targetAtFixation,jsons/VE125_randls_73_rotated.json,http://54.235.29.9/FacialAge/BNav_EC2/DepthDuration/v2_depth_duration_MTurk/v2_DepthDuration_HTML.html#97,97,1600,789,1600,900,8-21-2022,9-37-54,73,depth_duration_stimuli/000927_2014-06-09_16-32-30_260595134347_rgbf000123-resize_3/000927_2014-06-09_16-32-30_260595134347_rgbf000123-resize_3-target.png,125,2.6785,63,4057,124,meters,jsons/VE125_randls_73_rotated.json,1611075,1890025,42,Woman
73,994489,DepthScenes,duration_manipulation_targetAtFixation,jsons/VE125_randls_73_rotated.json,http://54.235.29.9/FacialAge/BNav_EC2/DepthDuration/v2_depth_duration_MTurk/v2_DepthDuration_HTML.html#97,97,1600,789,1600,900,8-21-2022,9-37-54,74,depth_duration_stimuli/001110_2014-06-15_17-25-28_260595134347_rgbf000150-resize_1/001110_2014-06-15_17-25-28_260595134347_rgbf000150-resize_1-target.png,125,1.7115,66,2553,125,meters,jsons/VE125_randls_73_rotated.json,1611075,1890025,42,Woman
74,994489,DepthScenes,duration_manipulation_targetAtFixation,jsons/VE125_randls_73_rotated.json,http://54.235.29.9/FacialAge/BNav_EC2/DepthDuration/v2_depth_duration_MTurk/v2_DepthDuration_HTML.html#97,97,1600,789,1600,900,8-21-2022,9-37-54,75,depth_duration_stimuli/003083_2014-06-15_15-21-03_094959634447_rgbf000063-resize_1/003083_2014-06-15_15-21-03_094959634447_rgbf000063-resize_1-target.png,125,4.1405,68,2938,126,meters,jsons/VE125_randls_73_rotated.json,1611075,1890025,42,Woman
75,994489,DepthScenes,duration_manipulation_targetAtFixation,jsons/VE125_randls_73_rotated.json,http://54.235.29.9/FacialAge/BNav_EC2/DepthDuration/v2_depth_duration_MTurk/v2_DepthDuration_HTML.html#97,97,1600,789,1600,900,8-21-2022,9-37-54,76,depth_duration_stimuli/000486_2014-06-09_20-47-20_260595134347_rgbf000143-resize_2/000486_2014-06-09_20-47-20_260595134347_rgbf000143-resize_2-target.png,125,4.8325,66,2378,124,meters,jsons/VE125_randls_73_rotated.json,1611075,1890025,42,Woman
76,994489,DepthScenes,duration_manipulation_targetAtFixation,jsons/VE125_randls_73_rotated.json,http://54.235.29.9/FacialAge/BNav_EC2/DepthDuration/v2_depth_duration_MTurk/v2_DepthDuration_HTML.html#97,97,1600,789,1600,900,8-21-2022,9-37-54,77,depth_duration_stimuli/002209_2014-06-28_18-36-10_260595134347_rgbf000051-resize_1/002209_2014-06-28_18-36-10_260595134347_rgbf000051-resize_1-target.png,125,2.057,52,2538,125,meters,jsons/VE125_randls_73_rotated.json,1611075,1890025,42,Woman
77,994489,DepthScenes,duration_manipulation_targetAtFixation,jsons/VE125_randls_73_rotated.json,http://54.235.29.9/FacialAge/BNav_EC2/DepthDuration/v2_depth_duration_MTurk/v2_DepthDuration_HTML.html#97,97,1600,789,1600,900,8-21-2022,9-37-54,78,depth_duration_stimuli/002763_2014-06-22_19-13-10_094959634447_rgbf000075-resize_4/002763_2014-06-22_19-13-10_094959634447_rgbf000075-resize_4-target.png,125,1.68375,66,2347,124,meters,jsons/VE125_randls_73_rotated.json,1611075,1890025,42,Woman
78,994489,DepthScenes,duration_manipulation_targetAtFixation,jsons/VE125_randls_73_rotated.json,http://54.235.29.9/FacialAge/BNav_EC2/DepthDuration/v2_depth_duration_MTurk/v2_DepthDuration_HTML.html#97,97,1600,789,1600,900,8-21-2022,9-37-54,79,depth_duration_stimuli/000691_2014-06-08_13-08-50_260595134347_rgbf000132-resize_3/000691_2014-06-08_13-08-50_260595134347_rgbf000132-resize_3-target.png,125,4.1530000000000005,66,2392,124,meters,jsons/VE125_randls_73_rotated.json,1611075,1890025,42,Woman
79,994489,DepthScenes,duration_manipulation_targetAtFixation,jsons/VE125_randls_73_rotated.json,http://54.235.29.9/FacialAge/BNav_EC2/DepthDuration/v2_depth_duration_MTurk/v2_DepthDuration_HTML.html#97,97,1600,789,1600,900,8-21-2022,9-37-54,80,depth_duration_stimuli/002213_2014-06-28_18-37-58_260595134347_rgbf000055-resize_1/002213_2014-06-28_18-37-58_260595134347_rgbf000055-resize_1-target.png,125,3.62,55,2266,125,meters,jsons/VE125_randls_73_rotated.json,1611075,1890025,42,Woman
80,994489,DepthScenes,duration_manipulation_targetAtFixation,jsons/VE125_randls_73_rotated.json,http://54.235.29.9/FacialAge/BNav_EC2/DepthDuration/v2_depth_duration_MTurk/v2_DepthDuration_HTML.html#97,97,1600,789,1600,900,8-21-2022,9-37-54,81,depth_duration_stimuli/003228_2014-05-14_13-42-35_094959634447_rgbf000101-resize_1/003228_2014-05-14_13-42-35_094959634447_rgbf000101-resize_1-target.png,125,1.9680000000000002,51,2317,124,meters,jsons/VE125_randls_73_rotated.json,1611075,1890025,42,Woman
81,994489,DepthScenes,duration_manipulation_targetAtFixation,jsons/VE125_randls_73_rotated.json,http://54.235.29.9/FacialAge/BNav_EC2/DepthDuration/v2_depth_duration_MTurk/v2_DepthDuration_HTML.html#97,97,1600,789,1600,900,8-21-2022,9-37-54,82,depth_duration_stimuli/002600_2014-06-24_14-27-04_094959634447_rgbf000074-resize_2/002600_2014-06-24_14-27-04_094959634447_rgbf000074-resize_2-target.png,125,2.7575,52,2218,124,meters,jsons/VE125_randls_73_rotated.json,1611075,1890025,42,Woman
82,994489,DepthScenes,duration_manipulation_targetAtFixation,jsons/VE125_randls_73_rotated.json,http://54.235.29.9/FacialAge/BNav_EC2/DepthDuration/v2_depth_duration_MTurk/v2_DepthDuration_HTML.html#97,97,1600,789,1600,900,8-21-2022,9-37-54,83,depth_duration_stimuli/000709_2014-06-08_13-51-55_260595134347_rgbf000068-resize_3/000709_2014-06-08_13-51-55_260595134347_rgbf000068-resize_3-target.png,125,1.8030000000000002,53,3402,124,meters,jsons/VE125_randls_73_rotated.json,1611075,1890025,42,Woman
83,994489,DepthScenes,duration_manipulation_targetAtFixation,jsons/VE125_randls_73_rotated.json,http://54.235.29.9/FacialAge/BNav_EC2/DepthDuration/v2_depth_duration_MTurk/v2_DepthDuration_HTML.html#97,97,1600,789,1600,900,8-21-2022,9-37-54,84,depth_duration_stimuli/002057_2014-06-24_21-00-13_260595134347_rgbf000120-resize_1/002057_2014-06-24_21-00-13_260595134347_rgbf000120-resize_1-target.png,125,2.967,52,2394,125,meters,jsons/VE125_randls_73_rotated.json,1611075,1890025,42,Woman
84,994489,DepthScenes,duration_manipulation_targetAtFixation,jsons/VE125_randls_73_rotated.json,http://54.235.29.9/FacialAge/BNav_EC2/DepthDuration/v2_depth_duration_MTurk/v2_DepthDuration_HTML.html#97,97,1600,789,1600,900,8-21-2022,9-37-54,85,depth_duration_stimuli/002414_2014-06-28_20-24-58_260595134347_rgbf000067-resize_4/002414_2014-06-28_20-24-58_260595134347_rgbf000067-resize_4-target.png,125,4.363,58,2332,125,meters,jsons/VE125_randls_73_rotated.json,1611075,1890025,42,Woman
85,994489,DepthScenes,duration_manipulation_targetAtFixation,jsons/VE125_randls_73_rotated.json,http://54.235.29.9/FacialAge/BNav_EC2/DepthDuration/v2_depth_duration_MTurk/v2_DepthDuration_HTML.html#97,97,1600,789,1600,900,8-21-2022,9-37-54,86,depth_duration_stimuli/000773_2014-06-08_22-24-54_260595134347_rgbf000093-resize_1/000773_2014-06-08_22-24-54_260595134347_rgbf000093-resize_1-target.png,125,4.973,56,2345,125,meters,jsons/VE125_randls_73_rotated.json,1611075,1890025,42,Woman
86,994489,DepthScenes,duration_manipulation_targetAtFixation,jsons/VE125_randls_73_rotated.json,http://54.235.29.9/FacialAge/BNav_EC2/DepthDuration/v2_depth_duration_MTurk/v2_DepthDuration_HTML.html#97,97,1600,789,1600,900,8-21-2022,9-37-54,87,depth_duration_stimuli/003129_2014-05-12_10-48-10_094959634447_rgbf000100-resize_0/003129_2014-05-12_10-48-10_094959634447_rgbf000100-resize_0-target.png,125,4.9305,59,2362,125,meters,jsons/VE125_randls_73_rotated.json,1611075,1890025,42,Woman
87,994489,DepthScenes,duration_manipulation_targetAtFixation,jsons/VE125_randls_73_rotated.json,http://54.235.29.9/FacialAge/BNav_EC2/DepthDuration/v2_depth_duration_MTurk/v2_DepthDuration_HTML.html#97,97,1600,789,1600,900,8-21-2022,9-37-54,88,depth_duration_stimuli/000414_2014-06-04_19-49-13_260595134347_rgbf000044-resize_0/000414_2014-06-04_19-49-13_260595134347_rgbf000044-resize_0-target.png,125,4.329,57,2393,124,meters,jsons/VE125_randls_73_rotated.json,1611075,1890025,42,Woman
88,994489,DepthScenes,duration_manipulation_targetAtFixation,jsons/VE125_randls_73_rotated.json,http://54.235.29.9/FacialAge/BNav_EC2/DepthDuration/v2_depth_duration_MTurk/v2_DepthDuration_HTML.html#97,97,1600,789,1600,900,8-21-2022,9-37-54,89,depth_duration_stimuli/000665_2014-06-09_20-42-35_260595134347_rgbf000110-resize_1/000665_2014-06-09_20-42-35_260595134347_rgbf000110-resize_1-target.png,125,3.057,59,2683,126,meters,jsons/VE125_randls_73_rotated.json,1611075,1890025,42,Woman
89,994489,DepthScenes,duration_manipulation_targetAtFixation,jsons/VE125_randls_73_rotated.json,http://54.235.29.9/FacialAge/BNav_EC2/DepthDuration/v2_depth_duration_MTurk/v2_DepthDuration_HTML.html#97,97,1600,789,1600,900,8-21-2022,9-37-54,90,depth_duration_stimuli/001150_2014-06-17_15-27-34_260595134347_rgbf000108-resize_2/001150_2014-06-17_15-27-34_260595134347_rgbf000108-resize_2-target.png,125,4.0325,55,246498,125,meters,jsons/VE125_randls_73_rotated.json,1611075,1890025,42,Woman
90,994489,DepthScenes,duration_manipulation_targetAtFixation,jsons/VE125_randls_73_rotated.json,http://54.235.29.9/FacialAge/BNav_EC2/DepthDuration/v2_depth_duration_MTurk/v2_DepthDuration_HTML.html#97,97,1600,789,1600,900,8-21-2022,9-37-54,91,depth_duration_stimuli/002136_2014-06-25_21-18-03_260595134347_rgbf000109-resize_3/002136_2014-06-25_21-18-03_260595134347_rgbf000109-resize_3-target.png,125,1.9569999999999999,55,2666,123,meters,jsons/VE125_randls_73_rotated.json,1611075,1890025,42,Woman
91,994489,DepthScenes,duration_manipulation_targetAtFixation,jsons/VE125_randls_73_rotated.json,http://54.235.29.9/FacialAge/BNav_EC2/DepthDuration/v2_depth_duration_MTurk/v2_DepthDuration_HTML.html#97,97,1600,789,1600,900,8-21-2022,9-37-54,92,depth_duration_stimuli/002964_2014-06-08_17-46-11_094959634447_rgbf000091-resize_4/002964_2014-06-08_17-46-11_094959634447_rgbf000091-resize_4-target.png,125,1.6909999999999998,52,2571,124,meters,jsons/VE125_randls_73_rotated.json,1611075,1890025,42,Woman
92,994489,DepthScenes,duration_manipulation_targetAtFixation,jsons/VE125_randls_73_rotated.json,http://54.235.29.9/FacialAge/BNav_EC2/DepthDuration/v2_depth_duration_MTurk/v2_DepthDuration_HTML.html#97,97,1600,789,1600,900,8-21-2022,9-37-54,93,depth_duration_stimuli/000483_2014-06-09_20-41-45_260595134347_rgbf000116-resize_4/000483_2014-06-09_20-41-45_260595134347_rgbf000116-resize_4-target.png,125,1.337,55,2419,124,meters,jsons/VE125_randls_73_rotated.json,1611075,1890025,42,Woman
93,994489,DepthScenes,duration_manipulation_targetAtFixation,jsons/VE125_randls_73_rotated.json,http://54.235.29.9/FacialAge/BNav_EC2/DepthDuration/v2_depth_duration_MTurk/v2_DepthDuration_HTML.html#97,97,1600,789,1600,900,8-21-2022,9-37-54,94,depth_duration_stimuli/000469_2014-06-09_19-42-10_260595134347_rgbf000081-resize_1/000469_2014-06-09_19-42-10_260595134347_rgbf000081-resize_1-target.png,125,1.652,55,3442,125,meters,jsons/VE125_randls_73_rotated.json,1611075,1890025,42,Woman
94,994489,DepthScenes,duration_manipulation_targetAtFixation,jsons/VE125_randls_73_rotated.json,http://54.235.29.9/FacialAge/BNav_EC2/DepthDuration/v2_depth_duration_MTurk/v2_DepthDuration_HTML.html#97,97,1600,789,1600,900,8-21-2022,9-37-54,95,depth_duration_stimuli/000502_2014-06-08_23-02-32_260595134347_rgbf000063-resize_4/000502_2014-06-08_23-02-32_260595134347_rgbf000063-resize_4-target.png,125,2.431,56,6500,125,meters,jsons/VE125_randls_73_rotated.json,1611075,1890025,42,Woman
95,994489,DepthScenes,duration_manipulation_targetAtFixation,jsons/VE125_randls_73_rotated.json,http://54.235.29.9/FacialAge/BNav_EC2/DepthDuration/v2_depth_duration_MTurk/v2_DepthDuration_HTML.html#97,97,1600,789,1600,900,8-21-2022,9-37-54,96,depth_duration_stimuli/001199_2014-06-17_16-03-48_260595134347_rgbf000077-resize_0/001199_2014-06-17_16-03-48_260595134347_rgbf000077-resize_0-target.png,125,3.4375,55,2862,126,meters,jsons/VE125_randls_73_rotated.json,1611075,1890025,42,Woman
96,994489,DepthScenes,duration_manipulation_targetAtFixation,jsons/VE125_randls_73_rotated.json,http://54.235.29.9/FacialAge/BNav_EC2/DepthDuration/v2_depth_duration_MTurk/v2_DepthDuration_HTML.html#97,97,1600,789,1600,900,8-21-2022,9-37-54,97,depth_duration_stimuli/001450_2014-06-19_17-02-03_260595134347_rgbf000203-resize_4/001450_2014-06-19_17-02-03_260595134347_rgbf000203-resize_4-target.png,125,4.0106666666667,52,17803,126,meters,jsons/VE125_randls_73_rotated.json,1611075,1890025,42,Woman
97,994489,DepthScenes,duration_manipulation_targetAtFixation,jsons/VE125_randls_73_rotated.json,http://54.235.29.9/FacialAge/BNav_EC2/DepthDuration/v2_depth_duration_MTurk/v2_DepthDuration_HTML.html#97,97,1600,789,1600,900,8-21-2022,9-37-54,98,depth_duration_stimuli/001449_2014-06-19_17-01-27_260595134347_rgbf000116-resize_2/001449_2014-06-19_17-01-27_260595134347_rgbf000116-resize_2-target.png,125,3.452,0,4746,123,meters,jsons/VE125_randls_73_rotated.json,1611075,1890025,42,Woman
98,994489,DepthScenes,duration_manipulation_targetAtFixation,jsons/VE125_randls_73_rotated.json,http://54.235.29.9/FacialAge/BNav_EC2/DepthDuration/v2_depth_duration_MTurk/v2_DepthDuration_HTML.html#97,97,1600,789,1600,900,8-21-2022,9-37-54,99,depth_duration_stimuli/001222_2014-06-17_16-24-06_260595134347_rgbf000073-resize_0/001222_2014-06-17_16-24-06_260595134347_rgbf000073-resize-original.jpg,125,1.4385,52,3258,124,meters,jsons/VE125_randls_73_rotated.json,1611075,1890025,42,Woman
99,994489,DepthScenes,duration_manipulation_targetAtFixation,jsons/VE125_randls_73_rotated.json,http://54.235.29.9/FacialAge/BNav_EC2/DepthDuration/v2_depth_duration_MTurk/v2_DepthDuration_HTML.html#97,97,1600,789,1600,900,8-21-2022,9-37-54,100,depth_duration_stimuli/002103_2014-06-25_20-00-40_260595134347_rgbf000049-resize_0/002103_2014-06-25_20-00-40_260595134347_rgbf000049-resize_0-target.png,125,4.105,52,7834,124,meters,jsons/VE125_randls_73_rotated.json,1611075,1890025,42,Woman
100,994489,DepthScenes,duration_manipulation_targetAtFixation,jsons/VE125_randls_73_rotated.json,http://54.235.29.9/FacialAge/BNav_EC2/DepthDuration/v2_depth_duration_MTurk/v2_DepthDuration_HTML.html#97,97,1600,789,1600,900,8-21-2022,9-37-54,101,depth_duration_stimuli/002039_2014-06-24_20-22-38_260595134347_rgbf000084-resize_1/002039_2014-06-24_20-22-38_260595134347_rgbf000084-resize_1-target.png,125,4.408,55,3213,124,meters,jsons/VE125_randls_73_rotated.json,1611075,1890025,42,Woman
101,994489,DepthScenes,duration_manipulation_targetAtFixation,jsons/VE125_randls_73_rotated.json,http://54.235.29.9/FacialAge/BNav_EC2/DepthDuration/v2_depth_duration_MTurk/v2_DepthDuration_HTML.html#97,97,1600,789,1600,900,8-21-2022,9-37-54,102,depth_duration_stimuli/000556_2014-06-09_22-42-56_260595134347_rgbf000214-resize_1/000556_2014-06-09_22-42-56_260595134347_rgbf000214-resize_1-target.png,125,4.8415,55,2295,124,meters,jsons/VE125_randls_73_rotated.json,1611075,1890025,42,Woman
102,994489,DepthScenes,duration_manipulation_targetAtFixation,jsons/VE125_randls_73_rotated.json,http://54.235.29.9/FacialAge/BNav_EC2/DepthDuration/v2_depth_duration_MTurk/v2_DepthDuration_HTML.html#97,97,1600,789,1600,900,8-21-2022,9-37-54,103,depth_duration_stimuli/001158_2014-06-17_15-32-16_260595134347_rgbf000138-resize_2/001158_2014-06-17_15-32-16_260595134347_rgbf000138-resize_2-target.png,125,4.5315,56,2266,124,meters,jsons/VE125_randls_73_rotated.json,1611075,1890025,42,Woman
103,994489,DepthScenes,duration_manipulation_targetAtFixation,jsons/VE125_randls_73_rotated.json,http://54.235.29.9/FacialAge/BNav_EC2/DepthDuration/v2_depth_duration_MTurk/v2_DepthDuration_HTML.html#97,97,1600,789,1600,900,8-21-2022,9-37-54,104,depth_duration_stimuli/001617_2014-06-20_11-35-32_260595134347_rgbf000066-resize_1/001617_2014-06-20_11-35-32_260595134347_rgbf000066-resize_1-target.png,125,3.7910000000000004,59,2986,125,meters,jsons/VE125_randls_73_rotated.json,1611075,1890025,42,Woman
104,994489,DepthScenes,duration_manipulation_targetAtFixation,jsons/VE125_randls_73_rotated.json,http://54.235.29.9/FacialAge/BNav_EC2/DepthDuration/v2_depth_duration_MTurk/v2_DepthDuration_HTML.html#97,97,1600,789,1600,900,8-21-2022,9-37-54,105,depth_duration_stimuli/001806_2014-06-26_20-50-20_260595134347_rgbf000091-resize_1/001806_2014-06-26_20-50-20_260595134347_rgbf000091-resize_1-target.png,125,2.7305,58,2491,124,meters,jsons/VE125_randls_73_rotated.json,1611075,1890025,42,Woman
105,994489,DepthScenes,duration_manipulation_targetAtFixation,jsons/VE125_randls_73_rotated.json,http://54.235.29.9/FacialAge/BNav_EC2/DepthDuration/v2_depth_duration_MTurk/v2_DepthDuration_HTML.html#97,97,1600,789,1600,900,8-21-2022,9-37-54,106,depth_duration_stimuli/001815_2014-06-26_20-52-55_260595134347_rgbf000020-resize_0/001815_2014-06-26_20-52-55_260595134347_rgbf000020-resize_0-target.png,125,3.3865,55,2395,125,meters,jsons/VE125_randls_73_rotated.json,1611075,1890025,42,Woman
106,994489,DepthScenes,duration_manipulation_targetAtFixation,jsons/VE125_randls_73_rotated.json,http://54.235.29.9/FacialAge/BNav_EC2/DepthDuration/v2_depth_duration_MTurk/v2_DepthDuration_HTML.html#97,97,1600,789,1600,900,8-21-2022,9-37-54,107,depth_duration_stimuli/001808_2014-06-26_20-50-58_260595134347_rgbf000029-resize_1/001808_2014-06-26_20-50-58_260595134347_rgbf000029-resize_1-target.png,125,4.249,52,2458,125,meters,jsons/VE125_randls_73_rotated.json,1611075,1890025,42,Woman
107,994489,DepthScenes,duration_manipulation_targetAtFixation,jsons/VE125_randls_73_rotated.json,http://54.235.29.9/FacialAge/BNav_EC2/DepthDuration/v2_depth_duration_MTurk/v2_DepthDuration_HTML.html#97,97,1600,789,1600,900,8-21-2022,9-37-54,108,depth_duration_stimuli/000677_2014-06-08_23-10-32_260595134347_rgbf000158-resize_6/000677_2014-06-08_23-10-32_260595134347_rgbf000158-resize_6-target.png,125,3.556,52,2969,125,meters,jsons/VE125_randls_73_rotated.json,1611075,1890025,42,Woman
108,994489,DepthScenes,duration_manipulation_targetAtFixation,jsons/VE125_randls_73_rotated.json,http://54.235.29.9/FacialAge/BNav_EC2/DepthDuration/v2_depth_duration_MTurk/v2_DepthDuration_HTML.html#97,97,1600,789,1600,900,8-21-2022,9-37-54,109,depth_duration_stimuli/001029_2014-06-08_13-17-57_260595134347_rgbf000065-resize_1/001029_2014-06-08_13-17-57_260595134347_rgbf000065-resize_1-target.png,125,3.0835,55,2218,124,meters,jsons/VE125_randls_73_rotated.json,1611075,1890025,42,Woman
109,994489,DepthScenes,duration_manipulation_targetAtFixation,jsons/VE125_randls_73_rotated.json,http://54.235.29.9/FacialAge/BNav_EC2/DepthDuration/v2_depth_duration_MTurk/v2_DepthDuration_HTML.html#97,97,1600,789,1600,900,8-21-2022,9-37-54,110,depth_duration_stimuli/002467_2014-06-28_20-38-07_260595134347_rgbf000026-resize_2/002467_2014-06-28_20-38-07_260595134347_rgbf000026-resize_2-target.png,125,4.742,55,2313,123,meters,jsons/VE125_randls_73_rotated.json,1611075,1890025,42,Woman
110,994489,DepthScenes,duration_manipulation_targetAtFixation,jsons/VE125_randls_73_rotated.json,http://54.235.29.9/FacialAge/BNav_EC2/DepthDuration/v2_depth_duration_MTurk/v2_DepthDuration_HTML.html#97,97,1600,789,1600,900,8-21-2022,9-37-54,111,depth_duration_stimuli/002570_2014-06-24_13-59-54_094959634447_rgbf000059-resize_0/002570_2014-06-24_13-59-54_094959634447_rgbf000059-resize_0-target.png,125,4.037,55,2362,123,meters,jsons/VE125_randls_73_rotated.json,1611075,1890025,42,Woman
111,994489,DepthScenes,duration_manipulation_targetAtFixation,jsons/VE125_randls_73_rotated.json,http://54.235.29.9/FacialAge/BNav_EC2/DepthDuration/v2_depth_duration_MTurk/v2_DepthDuration_HTML.html#97,97,1600,789,1600,900,8-21-2022,9-37-54,112,depth_duration_stimuli/002750_2014-06-22_19-08-03_094959634447_rgbf000094-resize_4/002750_2014-06-22_19-08-03_094959634447_rgbf000094-resize_4-target.png,125,2.354,55,3421,125,meters,jsons/VE125_randls_73_rotated.json,1611075,1890025,42,Woman
112,994489,DepthScenes,duration_manipulation_targetAtFixation,jsons/VE125_randls_73_rotated.json,http://54.235.29.9/FacialAge/BNav_EC2/DepthDuration/v2_depth_duration_MTurk/v2_DepthDuration_HTML.html#97,97,1600,789,1600,900,8-21-2022,9-37-54,113,depth_duration_stimuli/002549_2014-06-24_13-41-39_094959634447_rgbf000022-resize_3/002549_2014-06-24_13-41-39_094959634447_rgbf000022-resize_3-target.png,125,1.476,57,6599,121,meters,jsons/VE125_randls_73_rotated.json,1611075,1890025,42,Woman
113,994489,DepthScenes,duration_manipulation_targetAtFixation,jsons/VE125_randls_73_rotated.json,http://54.235.29.9/FacialAge/BNav_EC2/DepthDuration/v2_depth_duration_MTurk/v2_DepthDuration_HTML.html#97,97,1600,789,1600,900,8-21-2022,9-37-54,114,depth_duration_stimuli/001584_2014-06-20_11-07-43_260595134347_rgbf000002-resize_1/001584_2014-06-20_11-07-43_260595134347_rgbf000002-resize_1-target.png,125,3.53,58,2988,111,meters,jsons/VE125_randls_73_rotated.json,1611075,1890025,42,Woman
114,994489,DepthScenes,duration_manipulation_targetAtFixation,jsons/VE125_randls_73_rotated.json,http://54.235.29.9/FacialAge/BNav_EC2/DepthDuration/v2_depth_duration_MTurk/v2_DepthDuration_HTML.html#97,97,1600,789,1600,900,8-21-2022,9-37-54,115,depth_duration_stimuli/003621_2014-05-23_18-06-08_094959634447_rgbf000101-resize_1/003621_2014-05-23_18-06-08_094959634447_rgbf000101-resize_1-target.png,125,3.9835,55,3305,125,meters,jsons/VE125_randls_73_rotated.json,1611075,1890025,42,Woman
115,994489,DepthScenes,duration_manipulation_targetAtFixation,jsons/VE125_randls_73_rotated.json,http://54.235.29.9/FacialAge/BNav_EC2/DepthDuration/v2_depth_duration_MTurk/v2_DepthDuration_HTML.html#97,97,1600,789,1600,900,8-21-2022,9-37-54,116,depth_duration_stimuli/002340_2014-06-28_20-05-46_260595134347_rgbf000113-resize_0/002340_2014-06-28_20-05-46_260595134347_rgbf000113-resize_0-target.png,125,2.4735,55,5130,124,meters,jsons/VE125_randls_73_rotated.json,1611075,1890025,42,Woman
116,994489,DepthScenes,duration_manipulation_targetAtFixation,jsons/VE125_randls_73_rotated.json,http://54.235.29.9/FacialAge/BNav_EC2/DepthDuration/v2_depth_duration_MTurk/v2_DepthDuration_HTML.html#97,97,1600,789,1600,900,8-21-2022,9-37-54,117,depth_duration_stimuli/001016_2014-06-09_16-16-10_260595134347_rgbf000112-resize_5/001016_2014-06-09_16-16-10_260595134347_rgbf000112-resize_5-target.png,125,1.6565,56,2856,121,meters,jsons/VE125_randls_73_rotated.json,1611075,1890025,42,Woman
117,994489,DepthScenes,duration_manipulation_targetAtFixation,jsons/VE125_randls_73_rotated.json,http://54.235.29.9/FacialAge/BNav_EC2/DepthDuration/v2_depth_duration_MTurk/v2_DepthDuration_HTML.html#97,97,1600,789,1600,900,8-21-2022,9-37-54,118,depth_duration_stimuli/001100_2014-06-15_17-46-26_260595134347_rgbf000225-resize_2/001100_2014-06-15_17-46-26_260595134347_rgbf000225-resize_2-target.png,125,2.24,0,2330,124,meters,jsons/VE125_randls_73_rotated.json,1611075,1890025,42,Woman
118,994489,DepthScenes,duration_manipulation_targetAtFixation,jsons/VE125_randls_73_rotated.json,http://54.235.29.9/FacialAge/BNav_EC2/DepthDuration/v2_depth_duration_MTurk/v2_DepthDuration_HTML.html#97,97,1600,789,1600,900,8-21-2022,9-37-54,119,depth_duration_stimuli/002784_2014-06-22_19-26-30_094959634447_rgbf000083-resize_3/002784_2014-06-22_19-26-30_094959634447_rgbf000083-resize_3-target.png,125,1.8046666666667,55,2523,126,meters,jsons/VE125_randls_73_rotated.json,1611075,1890025,42,Woman
119,994489,DepthScenes,duration_manipulation_targetAtFixation,jsons/VE125_randls_73_rotated.json,http://54.235.29.9/FacialAge/BNav_EC2/DepthDuration/v2_depth_duration_MTurk/v2_DepthDuration_HTML.html#97,97,1600,789,1600,900,8-21-2022,9-37-54,120,depth_duration_stimuli/000787_2014-06-08_22-33-53_260595134347_rgbf000175-resize_1/000787_2014-06-08_22-33-53_260595134347_rgbf000175-resize-original.jpg,125,4.784,59,3209,125,meters,jsons/VE125_randls_73_rotated.json,1611075,1890025,42,Woman
120,994489,DepthScenes,duration_manipulation_targetAtFixation,jsons/VE125_randls_73_rotated.json,http://54.235.29.9/FacialAge/BNav_EC2/DepthDuration/v2_depth_duration_MTurk/v2_DepthDuration_HTML.html#97,97,1600,789,1600,900,8-21-2022,9-37-54,121,depth_duration_stimuli/002344_2014-06-28_20-06-29_260595134347_rgbf000030-resize_1/002344_2014-06-28_20-06-29_260595134347_rgbf000030-resize_1-target.png,125,1.5795,55,2745,125,meters,jsons/VE125_randls_73_rotated.json,1611075,1890025,42,Woman
121,994489,DepthScenes,duration_manipulation_targetAtFixation,jsons/VE125_randls_73_rotated.json,http://54.235.29.9/FacialAge/BNav_EC2/DepthDuration/v2_depth_duration_MTurk/v2_DepthDuration_HTML.html#97,97,1600,789,1600,900,8-21-2022,9-37-54,122,depth_duration_stimuli/002725_2014-06-22_11-47-51_094959634447_rgbf000070-resize_1/002725_2014-06-22_11-47-51_094959634447_rgbf000070-resize_1-target.png,125,2.195,55,305199,124,meters,jsons/VE125_randls_73_rotated.json,1611075,1890025,42,Woman
122,994489,DepthScenes,duration_manipulation_targetAtFixation,jsons/VE125_randls_73_rotated.json,http://54.235.29.9/FacialAge/BNav_EC2/DepthDuration/v2_depth_duration_MTurk/v2_DepthDuration_HTML.html#97,97,1600,789,1600,900,8-21-2022,9-37-54,123,depth_duration_stimuli/000549_2014-06-08_22-10-24_260595134347_rgbf000247-resize_3/000549_2014-06-08_22-10-24_260595134347_rgbf000247-resize_3-target.png,125,1.841,56,2344,125,meters,jsons/VE125_randls_73_rotated.json,1611075,1890025,42,Woman
123,994489,DepthScenes,duration_manipulation_targetAtFixation,jsons/VE125_randls_73_rotated.json,http://54.235.29.9/FacialAge/BNav_EC2/DepthDuration/v2_depth_duration_MTurk/v2_DepthDuration_HTML.html#97,97,1600,789,1600,900,8-21-2022,9-37-54,124,depth_duration_stimuli/001055_2014-06-08_18-45-35_260595134347_rgbf000111-resize_4/001055_2014-06-08_18-45-35_260595134347_rgbf000111-resize_4-target.png,125,2.4290000000000003,52,2842,125,meters,jsons/VE125_randls_73_rotated.json,1611075,1890025,42,Woman
124,994489,DepthScenes,duration_manipulation_targetAtFixation,jsons/VE125_randls_73_rotated.json,http://54.235.29.9/FacialAge/BNav_EC2/DepthDuration/v2_depth_duration_MTurk/v2_DepthDuration_HTML.html#97,97,1600,789,1600,900,8-21-2022,9-37-54,125,depth_duration_stimuli/002660_2014-06-13_15-44-18_094959634447_rgbf001878-resize_2/002660_2014-06-13_15-44-18_094959634447_rgbf001878-resize_2-target.png,125,3.576,58,2549,120,meters,jsons/VE125_randls_73_rotated.json,1611075,1890025,42,Woman
125,994489,DepthScenes,duration_manipulation_targetAtFixation,jsons/VE125_randls_73_rotated.json,http://54.235.29.9/FacialAge/BNav_EC2/DepthDuration/v2_depth_duration_MTurk/v2_DepthDuration_HTML.html#97,97,1600,789,1600,900,8-21-2022,9-37-54,126,depth_duration_stimuli/002153_2014-06-25_21-27-18_260595134347_rgbf000038-resize_5/002153_2014-06-25_21-27-18_260595134347_rgbf000038-resize_5-target.png,125,2.505,56,2490,126,meters,jsons/VE125_randls_73_rotated.json,1611075,1890025,42,Woman
126,994489,DepthScenes,duration_manipulation_targetAtFixation,jsons/VE125_randls_73_rotated.json,http://54.235.29.9/FacialAge/BNav_EC2/DepthDuration/v2_depth_duration_MTurk/v2_DepthDuration_HTML.html#97,97,1600,789,1600,900,8-21-2022,9-37-54,127,depth_duration_stimuli/000854_2014-06-09_19-43-13_260595134347_rgbf000066-resize_0/000854_2014-06-09_19-43-13_260595134347_rgbf000066-resize_0-target.png,125,3.068,59,2778,125,meters,jsons/VE125_randls_73_rotated.json,1611075,1890025,42,Woman
127,994489,DepthScenes,duration_manipulation_targetAtFixation,jsons/VE125_randls_73_rotated.json,http://54.235.29.9/FacialAge/BNav_EC2/DepthDuration/v2_depth_duration_MTurk/v2_DepthDuration_HTML.html#97,97,1600,789,1600,900,8-21-2022,9-37-54,128,depth_duration_stimuli/000758_2014-06-08_22-05-08_260595134347_rgbf000085-resize_0/000758_2014-06-08_22-05-08_260595134347_rgbf000085-resize_0-target.png,125,3.3810000000000002,56,3511,125,meters,jsons/VE125_randls_73_rotated.json,1611075,1890025,42,Woman
128,994489,DepthScenes,duration_manipulation_targetAtFixation,jsons/VE125_randls_73_rotated.json,http://54.235.29.9/FacialAge/BNav_EC2/DepthDuration/v2_depth_duration_MTurk/v2_DepthDuration_HTML.html#97,97,1600,789,1600,900,8-21-2022,9-37-54,129,depth_duration_stimuli/002953_2014-06-08_17-32-18_094959634447_rgbf000059-resize_5/002953_2014-06-08_17-32-18_094959634447_rgbf000059-resize_5-target.png,125,1.551,52,2617,130,meters,jsons/VE125_randls_73_rotated.json,1611075,1890025,42,Woman
129,994489,DepthScenes,duration_manipulation_targetAtFixation,jsons/VE125_randls_73_rotated.json,http://54.235.29.9/FacialAge/BNav_EC2/DepthDuration/v2_depth_duration_MTurk/v2_DepthDuration_HTML.html#97,97,1600,789,1600,900,8-21-2022,9-37-54,130,depth_duration_stimuli/000878_2014-06-08_22-52-45_260595134347_rgbf000045-resize_2/000878_2014-06-08_22-52-45_260595134347_rgbf000045-resize_2-target.png,125,2.092,58,2586,124,meters,jsons/VE125_randls_73_rotated.json,1611075,1890025,42,Woman
130,994489,DepthScenes,duration_manipulation_targetAtFixation,jsons/VE125_randls_73_rotated.json,http://54.235.29.9/FacialAge/BNav_EC2/DepthDuration/v2_depth_duration_MTurk/v2_DepthDuration_HTML.html#97,97,1600,789,1600,900,8-21-2022,9-37-54,131,depth_duration_stimuli/002323_2014-06-28_20-01-54_260595134347_rgbf000051-resize_4/002323_2014-06-28_20-01-54_260595134347_rgbf000051-resize_4-target.png,125,3.7310000000000003,56,2251,124,meters,jsons/VE125_randls_73_rotated.json,1611075,1890025,42,Woman
131,994489,DepthScenes,duration_manipulation_targetAtFixation,jsons/VE125_randls_73_rotated.json,http://54.235.29.9/FacialAge/BNav_EC2/DepthDuration/v2_depth_duration_MTurk/v2_DepthDuration_HTML.html#97,97,1600,789,1600,900,8-21-2022,9-37-54,132,depth_duration_stimuli/000917_2014-06-09_22-45-29_260595134347_rgbf000149-resize_3/000917_2014-06-09_22-45-29_260595134347_rgbf000149-resize_3-target.png,125,4.1865,0,2472,126,meters,jsons/VE125_randls_73_rotated.json,1611075,1890025,42,Woman
132,994489,DepthScenes,duration_manipulation_targetAtFixation,jsons/VE125_randls_73_rotated.json,http://54.235.29.9/FacialAge/BNav_EC2/DepthDuration/v2_depth_duration_MTurk/v2_DepthDuration_HTML.html#97,97,1600,789,1600,900,8-21-2022,9-37-54,133,depth_duration_stimuli/000191_2014-05-12_17-07-38_260595134347_rgbf000199-resize_0/000191_2014-05-12_17-07-38_260595134347_rgbf000199-resize_0-target.png,125,3.7995,56,2490,124,meters,jsons/VE125_randls_73_rotated.json,1611075,1890025,42,Woman
133,994489,DepthScenes,duration_manipulation_targetAtFixation,jsons/VE125_randls_73_rotated.json,http://54.235.29.9/FacialAge/BNav_EC2/DepthDuration/v2_depth_duration_MTurk/v2_DepthDuration_HTML.html#97,97,1600,789,1600,900,8-21-2022,9-37-54,134,depth_duration_stimuli/000493_2014-06-09_21-01-18_260595134347_rgbf000196-resize_3/000493_2014-06-09_21-01-18_260595134347_rgbf000196-resize_3-target.png,125,3.44,85,2492,125,meters,jsons/VE125_randls_73_rotated.json,1611075,1890025,42,Woman
134,994489,DepthScenes,duration_manipulation_targetAtFixation,jsons/VE125_randls_73_rotated.json,http://54.235.29.9/FacialAge/BNav_EC2/DepthDuration/v2_depth_duration_MTurk/v2_DepthDuration_HTML.html#97,97,1600,789,1600,900,8-21-2022,9-37-54,135,depth_duration_stimuli/000375_2014-06-08_11-17-29_260595134347_rgbf000133-resize_2/000375_2014-06-08_11-17-29_260595134347_rgbf000133-resize-original.jpg,125,4.718,0,2024,125,meters,jsons/VE125_randls_73_rotated.json,1611075,1890025,42,Woman
135,994489,DepthScenes,duration_manipulation_targetAtFixation,jsons/VE125_randls_73_rotated.json,http://54.235.29.9/FacialAge/BNav_EC2/DepthDuration/v2_depth_duration_MTurk/v2_DepthDuration_HTML.html#97,97,1600,789,1600,900,8-21-2022,9-37-54,136,depth_duration_stimuli/002444_2014-06-28_20-32-08_260595134347_rgbf000027-resize_0/002444_2014-06-28_20-32-08_260595134347_rgbf000027-resize_0-target.png,125,4.388999999999999,52,2507,125,meters,jsons/VE125_randls_73_rotated.json,1611075,1890025,42,Woman
136,994489,DepthScenes,duration_manipulation_targetAtFixation,jsons/VE125_randls_73_rotated.json,http://54.235.29.9/FacialAge/BNav_EC2/DepthDuration/v2_depth_duration_MTurk/v2_DepthDuration_HTML.html#97,97,1600,789,1600,900,8-21-2022,9-37-54,137,depth_duration_stimuli/000436_2014-06-09_22-25-11_260595134347_rgbf000137-resize_1/000436_2014-06-09_22-25-11_260595134347_rgbf000137-resize_1-target.png,125,4.0705,56,3962,124,meters,jsons/VE125_randls_73_rotated.json,1611075,1890025,42,Woman
137,994489,DepthScenes,duration_manipulation_targetAtFixation,jsons/VE125_randls_73_rotated.json,http://54.235.29.9/FacialAge/BNav_EC2/DepthDuration/v2_depth_duration_MTurk/v2_DepthDuration_HTML.html#97,97,1600,789,1600,900,8-21-2022,9-37-54,138,depth_duration_stimuli/002805_2014-06-22_19-54-03_094959634447_rgbf000079-resize_1/002805_2014-06-22_19-54-03_094959634447_rgbf000079-resize_1-target.png,125,3.1439999999999997,56,6008,125,meters,jsons/VE125_randls_73_rotated.json,1611075,1890025,42,Woman
138,994489,DepthScenes,duration_manipulation_targetAtFixation,jsons/VE125_randls_73_rotated.json,http://54.235.29.9/FacialAge/BNav_EC2/DepthDuration/v2_depth_duration_MTurk/v2_DepthDuration_HTML.html#97,97,1600,789,1600,900,8-21-2022,9-37-54,139,depth_duration_stimuli/000906_2014-06-08_13-35-43_260595134347_rgbf000155-resize_1/000906_2014-06-08_13-35-43_260595134347_rgbf000155-resize_1-target.png,125,2.8489999999999998,0,2218,125,meters,jsons/VE125_randls_73_rotated.json,1611075,1890025,42,Woman
139,994489,DepthScenes,duration_manipulation_targetAtFixation,jsons/VE125_randls_73_rotated.json,http://54.235.29.9/FacialAge/BNav_EC2/DepthDuration/v2_depth_duration_MTurk/v2_DepthDuration_HTML.html#97,97,1600,789,1600,900,8-21-2022,9-37-54,140,depth_duration_stimuli/000635_2014-06-08_16-38-42_260595134347_rgbf000106-resize_1/000635_2014-06-08_16-38-42_260595134347_rgbf000106-resize_1-target.png,125,2.074,52,5005,124,meters,jsons/VE125_randls_73_rotated.json,1611075,1890025,42,Woman
140,994489,DepthScenes,duration_manipulation_targetAtFixation,jsons/VE125_randls_73_rotated.json,http://54.235.29.9/FacialAge/BNav_EC2/DepthDuration/v2_depth_duration_MTurk/v2_DepthDuration_HTML.html#97,97,1600,789,1600,900,8-21-2022,9-37-54,141,depth_duration_stimuli/002279_2014-06-28_18-55-32_260595134347_rgbf000040-resize_5/002279_2014-06-28_18-55-32_260595134347_rgbf000040-resize_5-target.png,125,1.5043333333333,55,6880,116,meters,jsons/VE125_randls_73_rotated.json,1611075,1890025,42,Woman
141,994489,DepthScenes,duration_manipulation_targetAtFixation,jsons/VE125_randls_73_rotated.json,http://54.235.29.9/FacialAge/BNav_EC2/DepthDuration/v2_depth_duration_MTurk/v2_DepthDuration_HTML.html#97,97,1600,789,1600,900,8-21-2022,9-37-54,142,depth_duration_stimuli/001447_2014-06-19_17-00-32_260595134347_rgbf000082-resize_5/001447_2014-06-19_17-00-32_260595134347_rgbf000082-resize_5-target.png,125,4.13775,50,19177,124,meters,jsons/VE125_randls_73_rotated.json,1611075,1890025,42,Woman
142,994489,DepthScenes,duration_manipulation_targetAtFixation,jsons/VE125_randls_73_rotated.json,http://54.235.29.9/FacialAge/BNav_EC2/DepthDuration/v2_depth_duration_MTurk/v2_DepthDuration_HTML.html#97,97,1600,789,1600,900,8-21-2022,9-37-54,143,depth_duration_stimuli/000447_2014-06-08_16-15-46_260595134347_rgbf000130-resize_1/000447_2014-06-08_16-15-46_260595134347_rgbf000130-resize_1-target.png,125,4.479,55,2359,125,meters,jsons/VE125_randls_73_rotated.json,1611075,1890025,42,Woman
143,994489,DepthScenes,duration_manipulation_targetAtFixation,jsons/VE125_randls_73_rotated.json,http://54.235.29.9/FacialAge/BNav_EC2/DepthDuration/v2_depth_duration_MTurk/v2_DepthDuration_HTML.html#97,97,1600,789,1600,900,8-21-2022,9-37-54,144,depth_duration_stimuli/000137_2014-05-20_17-04-49_260595134347_rgbf000120-resize_1/000137_2014-05-20_17-04-49_260595134347_rgbf000120-resize_1-target.png,125,3.786,55,18410,124,meters,jsons/VE125_randls_73_rotated.json,1611075,1890025,42,Woman
144,994489,DepthScenes,duration_manipulation_targetAtFixation,jsons/VE125_randls_73_rotated.json,http://54.235.29.9/FacialAge/BNav_EC2/DepthDuration/v2_depth_duration_MTurk/v2_DepthDuration_HTML.html#97,97,1600,789,1600,900,8-21-2022,9-37-54,145,depth_duration_stimuli/000736_2014-06-08_18-24-15_260595134347_rgbf000206-resize_3/000736_2014-06-08_18-24-15_260595134347_rgbf000206-resize_3-target.png,125,3.515,52,2315,125,meters,jsons/VE125_randls_73_rotated.json,1611075,1890025,42,Woman
145,994489,DepthScenes,duration_manipulation_targetAtFixation,jsons/VE125_randls_73_rotated.json,http://54.235.29.9/FacialAge/BNav_EC2/DepthDuration/v2_depth_duration_MTurk/v2_DepthDuration_HTML.html#97,97,1600,789,1600,900,8-21-2022,9-37-54,146,depth_duration_stimuli/000409_2014-06-04_19-23-33_260595134347_rgbf000067-resize_0/000409_2014-06-04_19-23-33_260595134347_rgbf000067-resize_0-target.png,125,3.7335,56,2249,124,meters,jsons/VE125_randls_73_rotated.json,1611075,1890025,42,Woman
146,994489,DepthScenes,duration_manipulation_targetAtFixation,jsons/VE125_randls_73_rotated.json,http://54.235.29.9/FacialAge/BNav_EC2/DepthDuration/v2_depth_duration_MTurk/v2_DepthDuration_HTML.html#97,97,1600,789,1600,900,8-21-2022,9-37-54,147,depth_duration_stimuli/002663_2014-06-13_15-50-26_094959634447_rgbf000075-resize_1/002663_2014-06-13_15-50-26_094959634447_rgbf000075-resize_1-target.png,125,4.7495,58,2250,123,meters,jsons/VE125_randls_73_rotated.json,1611075,1890025,42,Woman
147,994489,DepthScenes,duration_manipulation_targetAtFixation,jsons/VE125_randls_73_rotated.json,http://54.235.29.9/FacialAge/BNav_EC2/DepthDuration/v2_depth_duration_MTurk/v2_DepthDuration_HTML.html#97,97,1600,789,1600,900,8-21-2022,9-37-54,148,depth_duration_stimuli/001828_2014-06-26_21-40-03_260595134347_rgbf000024-resize_0/001828_2014-06-26_21-40-03_260595134347_rgbf000024-resize_0-target.png,125,4.8260000000000005,65,2169,125,meters,jsons/VE125_randls_73_rotated.json,1611075,1890025,42,Woman
148,994489,DepthScenes,duration_manipulation_targetAtFixation,jsons/VE125_randls_73_rotated.json,http://54.235.29.9/FacialAge/BNav_EC2/DepthDuration/v2_depth_duration_MTurk/v2_DepthDuration_HTML.html#97,97,1600,789,1600,900,8-21-2022,9-37-54,149,depth_duration_stimuli/000009_2014-05-26_14-32-05_260595134347_rgbf000034-resize_3/000009_2014-05-26_14-32-05_260595134347_rgbf000034-resize_3-target.png,125,3.8715,66,3449,125,meters,jsons/VE125_randls_73_rotated.json,1611075,1890025,42,Woman
149,994489,DepthScenes,duration_manipulation_targetAtFixation,jsons/VE125_randls_73_rotated.json,http://54.235.29.9/FacialAge/BNav_EC2/DepthDuration/v2_depth_duration_MTurk/v2_DepthDuration_HTML.html#97,97,1600,789,1600,900,8-21-2022,9-37-54,150,depth_duration_stimuli/002678_2014-06-13_16-15-32_094959634447_rgbf000151-resize_6/002678_2014-06-13_16-15-32_094959634447_rgbf000151-resize_6-target.png,125,2.1830000000000003,63,2794,122,meters,jsons/VE125_randls_73_rotated.json,1611075,1890025,42,Woman
150,994489,DepthScenes,duration_manipulation_targetAtFixation,jsons/VE125_randls_73_rotated.json,http://54.235.29.9/FacialAge/BNav_EC2/DepthDuration/v2_depth_duration_MTurk/v2_DepthDuration_HTML.html#97,97,1600,789,1600,900,8-21-2022,9-37-54,151,depth_duration_stimuli/000368_2014-06-09_15-53-01_260595134347_rgbf000155-resize_2/000368_2014-06-09_15-53-01_260595134347_rgbf000155-resize_2-target.png,125,2.4859999999999998,69,2602,125,meters,jsons/VE125_randls_73_rotated.json,1611075,1890025,42,Woman
151,994489,DepthScenes,duration_manipulation_targetAtFixation,jsons/VE125_randls_73_rotated.json,http://54.235.29.9/FacialAge/BNav_EC2/DepthDuration/v2_depth_duration_MTurk/v2_DepthDuration_HTML.html#97,97,1600,789,1600,900,8-21-2022,9-37-54,152,depth_duration_stimuli/000569_2014-06-09_22-51-47_260595134347_rgbf000141-resize_3/000569_2014-06-09_22-51-47_260595134347_rgbf000141-resize-original.jpg,125,4.512,63,3483,123,meters,jsons/VE125_randls_73_rotated.json,1611075,1890025,42,Woman
152,994489,DepthScenes,duration_manipulation_targetAtFixation,jsons/VE125_randls_73_rotated.json,http://54.235.29.9/FacialAge/BNav_EC2/DepthDuration/v2_depth_duration_MTurk/v2_DepthDuration_HTML.html#97,97,1600,789,1600,900,8-21-2022,9-37-54,153,depth_duration_stimuli/001650_2014-06-20_12-09-00_260595134347_rgbf000087-resize_3/001650_2014-06-20_12-09-00_260595134347_rgbf000087-resize_3-target.png,125,1.9505,52,2482,126,meters,jsons/VE125_randls_73_rotated.json,1611075,1890025,42,Woman
153,994489,DepthScenes,duration_manipulation_targetAtFixation,jsons/VE125_randls_73_rotated.json,http://54.235.29.9/FacialAge/BNav_EC2/DepthDuration/v2_depth_duration_MTurk/v2_DepthDuration_HTML.html#97,97,1600,789,1600,900,8-21-2022,9-37-54,154,depth_duration_stimuli/000682_2014-06-08_23-14-58_260595134347_rgbf000041-resize_5/000682_2014-06-08_23-14-58_260595134347_rgbf000041-resize_5-target.png,125,2.7239999999999998,25,2443,124,meters,jsons/VE125_randls_73_rotated.json,1611075,1890025,42,Woman
154,994489,DepthScenes,duration_manipulation_targetAtFixation,jsons/VE125_randls_73_rotated.json,http://54.235.29.9/FacialAge/BNav_EC2/DepthDuration/v2_depth_duration_MTurk/v2_DepthDuration_HTML.html#97,97,1600,789,1600,900,8-21-2022,9-37-54,155,depth_duration_stimuli/000103_2014-05-14_22-01-17_260595134347_rgbf000152-resize_5/000103_2014-05-14_22-01-17_260595134347_rgbf000152-resize_5-target.png,125,1.993,58,2744,123,meters,jsons/VE125_randls_73_rotated.json,1611075,1890025,42,Woman
155,994489,DepthScenes,duration_manipulation_targetAtFixation,jsons/VE125_randls_73_rotated.json,http://54.235.29.9/FacialAge/BNav_EC2/DepthDuration/v2_depth_duration_MTurk/v2_DepthDuration_HTML.html#97,97,1600,789,1600,900,8-21-2022,9-37-54,156,depth_duration_stimuli/001555_2014-06-20_17-12-10_260595134347_rgbf000065-resize_4/001555_2014-06-20_17-12-10_260595134347_rgbf000065-resize_4-target.png,125,1.633,56,2300,126,meters,jsons/VE125_randls_73_rotated.json,1611075,1890025,42,Woman
156,994489,DepthScenes,duration_manipulation_targetAtFixation,jsons/VE125_randls_73_rotated.json,http://54.235.29.9/FacialAge/BNav_EC2/DepthDuration/v2_depth_duration_MTurk/v2_DepthDuration_HTML.html#97,97,1600,789,1600,900,8-21-2022,9-37-54,157,depth_duration_stimuli/000742_2014-06-08_18-48-09_260595134347_rgbf000164-resize_4/000742_2014-06-08_18-48-09_260595134347_rgbf000164-resize_4-target.png,125,4.632,54,2362,124,meters,jsons/VE125_randls_73_rotated.json,1611075,1890025,42,Woman
157,994489,DepthScenes,duration_manipulation_targetAtFixation,jsons/VE125_randls_73_rotated.json,http://54.235.29.9/FacialAge/BNav_EC2/DepthDuration/v2_depth_duration_MTurk/v2_DepthDuration_HTML.html#97,97,1600,789,1600,900,8-21-2022,9-37-54,158,depth_duration_stimuli/001066_2014-06-08_22-03-20_260595134347_rgbf000066-resize_4/001066_2014-06-08_22-03-20_260595134347_rgbf000066-resize_4-target.png,125,4.2330000000000005,55,2138,125,meters,jsons/VE125_randls_73_rotated.json,1611075,1890025,42,Woman
158,994489,DepthScenes,duration_manipulation_targetAtFixation,jsons/VE125_randls_73_rotated.json,http://54.235.29.9/FacialAge/BNav_EC2/DepthDuration/v2_depth_duration_MTurk/v2_DepthDuration_HTML.html#97,97,1600,789,1600,900,8-21-2022,9-37-54,159,depth_duration_stimuli/002639_2014-06-24_14-51-37_094959634447_rgbf000074-resize_4/002639_2014-06-24_14-51-37_094959634447_rgbf000074-resize_4-target.png,125,4.0375,59,2219,124,meters,jsons/VE125_randls_73_rotated.json,1611075,1890025,42,Woman
159,994489,DepthScenes,duration_manipulation_targetAtFixation,jsons/VE125_randls_73_rotated.json,http://54.235.29.9/FacialAge/BNav_EC2/DepthDuration/v2_depth_duration_MTurk/v2_DepthDuration_HTML.html#97,97,1600,789,1600,900,8-21-2022,9-37-54,160,depth_duration_stimuli/003292_2014-05-14_21-53-49_094959634447_rgbf000100-resize_2/003292_2014-05-14_21-53-49_094959634447_rgbf000100-resize_2-target.png,125,3.4815,57,2376,124,meters,jsons/VE125_randls_73_rotated.json,1611075,1890025,42,Woman
160,994489,DepthScenes,duration_manipulation_targetAtFixation,jsons/VE125_randls_73_rotated.json,http://54.235.29.9/FacialAge/BNav_EC2/DepthDuration/v2_depth_duration_MTurk/v2_DepthDuration_HTML.html#97,97,1600,789,1600,900,8-21-2022,9-37-54,161,depth_duration_stimuli/001214_2014-06-17_16-13-55_260595134347_rgbf000111-resize_0/001214_2014-06-17_16-13-55_260595134347_rgbf000111-resize_0-target.png,125,2.6505,58,9227,125,meters,jsons/VE125_randls_73_rotated.json,1611075,1890025,42,Woman
161,994489,DepthScenes,duration_manipulation_targetAtFixation,jsons/VE125_randls_73_rotated.json,http://54.235.29.9/FacialAge/BNav_EC2/DepthDuration/v2_depth_duration_MTurk/v2_DepthDuration_HTML.html#97,97,1600,789,1600,900,8-21-2022,9-37-54,162,depth_duration_stimuli/000810_2014-06-08_17-20-01_260595134347_rgbf000105-resize_0/000810_2014-06-08_17-20-01_260595134347_rgbf000105-resize_0-target.png,125,1.4865,56,2456,119,meters,jsons/VE125_randls_73_rotated.json,1611075,1890025,42,Woman
162,994489,DepthScenes,duration_manipulation_targetAtFixation,jsons/VE125_randls_73_rotated.json,http://54.235.29.9/FacialAge/BNav_EC2/DepthDuration/v2_depth_duration_MTurk/v2_DepthDuration_HTML.html#97,97,1600,789,1600,900,8-21-2022,9-37-54,163,depth_duration_stimuli/002875_2014-06-01_15-19-00_094959634447_rgbf000151-resize_1/002875_2014-06-01_15-19-00_094959634447_rgbf000151-resize_1-target.png,125,1.9675,52,5051,125,meters,jsons/VE125_randls_73_rotated.json,1611075,1890025,42,Woman
163,994489,DepthScenes,duration_manipulation_targetAtFixation,jsons/VE125_randls_73_rotated.json,http://54.235.29.9/FacialAge/BNav_EC2/DepthDuration/v2_depth_duration_MTurk/v2_DepthDuration_HTML.html#97,97,1600,789,1600,900,8-21-2022,9-37-54,164,depth_duration_stimuli/001011_2014-06-08_23-18-54_260595134347_rgbf000044-resize_4/001011_2014-06-08_23-18-54_260595134347_rgbf000044-resize_4-target.png,125,2.4730000000000003,55,2348,124,meters,jsons/VE125_randls_73_rotated.json,1611075,1890025,42,Woman
