,subjID,experimentName,versionName,sequenceName,url,selected_row,windowWidth,windowHeight,screenWidth,screenHeight,startDate,startTime,trial,stimulus,duration,actual_depth,depth_estimate,trial_RT,log_sceneDuration,unitSelection,seq_filepath,experimentTime,totalTime,age,gender
0,996244,DepthScenes,duration_manipulation_targetAtFixation,jsons/VE125_randls_65.json,http://54.235.29.9/FacialAge/BNav_EC2/DepthDuration/v2_depth_duration_MTurk/v2_DepthDuration_HTML.html#85,85,1536,864,1536,864,8-21-2022,9-41-26,1,depth_duration_stimuli/001055_2014-06-08_18-45-35_260595134347_rgbf000111-resize_4/001055_2014-06-08_18-45-35_260595134347_rgbf000111-resize_4-target.png,125,2.4290000000000003,11,3631,121,feet,jsons/VE125_randls_65.json,446066,997986,38,Woman
1,996244,DepthScenes,duration_manipulation_targetAtFixation,jsons/VE125_randls_65.json,http://54.235.29.9/FacialAge/BNav_EC2/DepthDuration/v2_depth_duration_MTurk/v2_DepthDuration_HTML.html#85,85,1536,864,1536,864,8-21-2022,9-41-26,2,depth_duration_stimuli/000549_2014-06-08_22-10-24_260595134347_rgbf000247-resize_3/000549_2014-06-08_22-10-24_260595134347_rgbf000247-resize_3-target.png,125,1.841,3,2859,114,feet,jsons/VE125_randls_65.json,446066,997986,38,Woman
2,996244,DepthScenes,duration_manipulation_targetAtFixation,jsons/VE125_randls_65.json,http://54.235.29.9/FacialAge/BNav_EC2/DepthDuration/v2_depth_duration_MTurk/v2_DepthDuration_HTML.html#85,85,1536,864,1536,864,8-21-2022,9-41-26,3,depth_duration_stimuli/002057_2014-06-24_21-00-13_260595134347_rgbf000120-resize_1/002057_2014-06-24_21-00-13_260595134347_rgbf000120-resize_1-target.png,125,2.967,8,3187,136,feet,jsons/VE125_randls_65.json,446066,997986,38,Woman
3,996244,DepthScenes,duration_manipulation_targetAtFixation,jsons/VE125_randls_65.json,http://54.235.29.9/FacialAge/BNav_EC2/DepthDuration/v2_depth_duration_MTurk/v2_DepthDuration_HTML.html#85,85,1536,864,1536,864,8-21-2022,9-41-26,4,depth_duration_stimuli/000709_2014-06-08_13-51-55_260595134347_rgbf000068-resize_3/000709_2014-06-08_13-51-55_260595134347_rgbf000068-resize_3-target.png,125,1.8030000000000002,5,2426,125,feet,jsons/VE125_randls_65.json,446066,997986,38,Woman
4,996244,DepthScenes,duration_manipulation_targetAtFixation,jsons/VE125_randls_65.json,http://54.235.29.9/FacialAge/BNav_EC2/DepthDuration/v2_depth_duration_MTurk/v2_DepthDuration_HTML.html#85,85,1536,864,1536,864,8-21-2022,9-41-26,5,depth_duration_stimuli/002039_2014-06-24_20-22-38_260595134347_rgbf000084-resize_1/002039_2014-06-24_20-22-38_260595134347_rgbf000084-resize_1-target.png,125,4.408,9,2654,121,feet,jsons/VE125_randls_65.json,446066,997986,38,Woman
5,996244,DepthScenes,duration_manipulation_targetAtFixation,jsons/VE125_randls_65.json,http://54.235.29.9/FacialAge/BNav_EC2/DepthDuration/v2_depth_duration_MTurk/v2_DepthDuration_HTML.html#85,85,1536,864,1536,864,8-21-2022,9-41-26,6,depth_duration_stimuli/002103_2014-06-25_20-00-40_260595134347_rgbf000049-resize_0/002103_2014-06-25_20-00-40_260595134347_rgbf000049-resize_0-target.png,125,4.105,7,2796,122,feet,jsons/VE125_randls_65.json,446066,997986,38,Woman
6,996244,DepthScenes,duration_manipulation_targetAtFixation,jsons/VE125_randls_65.json,http://54.235.29.9/FacialAge/BNav_EC2/DepthDuration/v2_depth_duration_MTurk/v2_DepthDuration_HTML.html#85,85,1536,864,1536,864,8-21-2022,9-41-26,7,depth_duration_stimuli/001570_2014-06-20_17-21-09_260595134347_rgbf000135-resize_4/001570_2014-06-20_17-21-09_260595134347_rgbf000135-resize_4-target.png,125,4.467,8,4447,126,feet,jsons/VE125_randls_65.json,446066,997986,38,Woman
7,996244,DepthScenes,duration_manipulation_targetAtFixation,jsons/VE125_randls_65.json,http://54.235.29.9/FacialAge/BNav_EC2/DepthDuration/v2_depth_duration_MTurk/v2_DepthDuration_HTML.html#85,85,1536,864,1536,864,8-21-2022,9-41-26,8,depth_duration_stimuli/001392_2014-06-19_16-07-59_260595134347_rgbf000046-resize_1/001392_2014-06-19_16-07-59_260595134347_rgbf000046-resize_1-target.png,125,4.135,8,5280,124,feet,jsons/VE125_randls_65.json,446066,997986,38,Woman
8,996244,DepthScenes,duration_manipulation_targetAtFixation,jsons/VE125_randls_65.json,http://54.235.29.9/FacialAge/BNav_EC2/DepthDuration/v2_depth_duration_MTurk/v2_DepthDuration_HTML.html#85,85,1536,864,1536,864,8-21-2022,9-41-26,9,depth_duration_stimuli/000414_2014-06-04_19-49-13_260595134347_rgbf000044-resize_0/000414_2014-06-04_19-49-13_260595134347_rgbf000044-resize_0-target.png,125,4.329,8,4328,123,feet,jsons/VE125_randls_65.json,446066,997986,38,Woman
9,996244,DepthScenes,duration_manipulation_targetAtFixation,jsons/VE125_randls_65.json,http://54.235.29.9/FacialAge/BNav_EC2/DepthDuration/v2_depth_duration_MTurk/v2_DepthDuration_HTML.html#85,85,1536,864,1536,864,8-21-2022,9-41-26,10,depth_duration_stimuli/003129_2014-05-12_10-48-10_094959634447_rgbf000100-resize_0/003129_2014-05-12_10-48-10_094959634447_rgbf000100-resize_0-target.png,125,4.9305,7,4617,113,feet,jsons/VE125_randls_65.json,446066,997986,38,Woman
10,996244,DepthScenes,duration_manipulation_targetAtFixation,jsons/VE125_randls_65.json,http://54.235.29.9/FacialAge/BNav_EC2/DepthDuration/v2_depth_duration_MTurk/v2_DepthDuration_HTML.html#85,85,1536,864,1536,864,8-21-2022,9-41-26,11,depth_duration_stimuli/002272_2014-06-28_18-53-56_260595134347_rgbf000067-resize_2/002272_2014-06-28_18-53-56_260595134347_rgbf000067-resize_2-target.png,125,1.138,2,4039,123,feet,jsons/VE125_randls_65.json,446066,997986,38,Woman
11,996244,DepthScenes,duration_manipulation_targetAtFixation,jsons/VE125_randls_65.json,http://54.235.29.9/FacialAge/BNav_EC2/DepthDuration/v2_depth_duration_MTurk/v2_DepthDuration_HTML.html#85,85,1536,864,1536,864,8-21-2022,9-41-26,12,depth_duration_stimuli/001571_2014-06-20_17-21-32_260595134347_rgbf000089-resize_1/001571_2014-06-20_17-21-32_260595134347_rgbf000089-resize_1-target.png,125,1.86,3,4591,127,feet,jsons/VE125_randls_65.json,446066,997986,38,Woman
12,996244,DepthScenes,duration_manipulation_targetAtFixation,jsons/VE125_randls_65.json,http://54.235.29.9/FacialAge/BNav_EC2/DepthDuration/v2_depth_duration_MTurk/v2_DepthDuration_HTML.html#85,85,1536,864,1536,864,8-21-2022,9-41-26,13,depth_duration_stimuli/000569_2014-06-09_22-51-47_260595134347_rgbf000141-resize_3/000569_2014-06-09_22-51-47_260595134347_rgbf000141-resize-original.jpg,125,4.512,0,1947,102,feet,jsons/VE125_randls_65.json,446066,997986,38,Woman
13,996244,DepthScenes,duration_manipulation_targetAtFixation,jsons/VE125_randls_65.json,http://54.235.29.9/FacialAge/BNav_EC2/DepthDuration/v2_depth_duration_MTurk/v2_DepthDuration_HTML.html#85,85,1536,864,1536,864,8-21-2022,9-41-26,14,depth_duration_stimuli/002153_2014-06-25_21-27-18_260595134347_rgbf000038-resize_5/002153_2014-06-25_21-27-18_260595134347_rgbf000038-resize_5-target.png,125,2.505,6,7484,135,feet,jsons/VE125_randls_65.json,446066,997986,38,Woman
14,996244,DepthScenes,duration_manipulation_targetAtFixation,jsons/VE125_randls_65.json,http://54.235.29.9/FacialAge/BNav_EC2/DepthDuration/v2_depth_duration_MTurk/v2_DepthDuration_HTML.html#85,85,1536,864,1536,864,8-21-2022,9-41-26,15,depth_duration_stimuli/002660_2014-06-13_15-44-18_094959634447_rgbf001878-resize_2/002660_2014-06-13_15-44-18_094959634447_rgbf001878-resize_2-target.png,125,3.576,8,2521,126,feet,jsons/VE125_randls_65.json,446066,997986,38,Woman
15,996244,DepthScenes,duration_manipulation_targetAtFixation,jsons/VE125_randls_65.json,http://54.235.29.9/FacialAge/BNav_EC2/DepthDuration/v2_depth_duration_MTurk/v2_DepthDuration_HTML.html#85,85,1536,864,1536,864,8-21-2022,9-41-26,16,depth_duration_stimuli/001056_2014-06-08_18-46-44_260595134347_rgbf000068-resize_0/001056_2014-06-08_18-46-44_260595134347_rgbf000068-resize_0-target.png,125,2.6625,8,2366,131,feet,jsons/VE125_randls_65.json,446066,997986,38,Woman
16,996244,DepthScenes,duration_manipulation_targetAtFixation,jsons/VE125_randls_65.json,http://54.235.29.9/FacialAge/BNav_EC2/DepthDuration/v2_depth_duration_MTurk/v2_DepthDuration_HTML.html#85,85,1536,864,1536,864,8-21-2022,9-41-26,17,depth_duration_stimuli/002199_2014-06-28_18-33-56_260595134347_rgbf000074-resize_0/002199_2014-06-28_18-33-56_260595134347_rgbf000074-resize_0-target.png,125,1.996,3,2241,123,feet,jsons/VE125_randls_65.json,446066,997986,38,Woman
17,996244,DepthScenes,duration_manipulation_targetAtFixation,jsons/VE125_randls_65.json,http://54.235.29.9/FacialAge/BNav_EC2/DepthDuration/v2_depth_duration_MTurk/v2_DepthDuration_HTML.html#85,85,1536,864,1536,864,8-21-2022,9-41-26,18,depth_duration_stimuli/000506_2014-06-08_23-21-00_260595134347_rgbf000070-resize_7/000506_2014-06-08_23-21-00_260595134347_rgbf000070-resize_7-target.png,125,4.0585,11,5077,120,feet,jsons/VE125_randls_65.json,446066,997986,38,Woman
18,996244,DepthScenes,duration_manipulation_targetAtFixation,jsons/VE125_randls_65.json,http://54.235.29.9/FacialAge/BNav_EC2/DepthDuration/v2_depth_duration_MTurk/v2_DepthDuration_HTML.html#85,85,1536,864,1536,864,8-21-2022,9-41-26,19,depth_duration_stimuli/003079_2014-06-15_15-18-20_094959634447_rgbf000152-resize_8/003079_2014-06-15_15-18-20_094959634447_rgbf000152-resize_8-target.png,125,2.8775,10,3547,127,feet,jsons/VE125_randls_65.json,446066,997986,38,Woman
19,996244,DepthScenes,duration_manipulation_targetAtFixation,jsons/VE125_randls_65.json,http://54.235.29.9/FacialAge/BNav_EC2/DepthDuration/v2_depth_duration_MTurk/v2_DepthDuration_HTML.html#85,85,1536,864,1536,864,8-21-2022,9-41-26,20,depth_duration_stimuli/001417_2014-06-19_16-25-36_260595134347_rgbf000115-resize_5/001417_2014-06-19_16-25-36_260595134347_rgbf000115-resize_5-target.png,125,4.6255,10,2527,108,feet,jsons/VE125_randls_65.json,446066,997986,38,Woman
20,996244,DepthScenes,duration_manipulation_targetAtFixation,jsons/VE125_randls_65.json,http://54.235.29.9/FacialAge/BNav_EC2/DepthDuration/v2_depth_duration_MTurk/v2_DepthDuration_HTML.html#85,85,1536,864,1536,864,8-21-2022,9-41-26,21,depth_duration_stimuli/003081_2014-06-15_15-19-16_094959634447_rgbf000150-resize_1/003081_2014-06-15_15-19-16_094959634447_rgbf000150-resize_1-target.png,125,3.9125,9,2119,124,feet,jsons/VE125_randls_65.json,446066,997986,38,Woman
21,996244,DepthScenes,duration_manipulation_targetAtFixation,jsons/VE125_randls_65.json,http://54.235.29.9/FacialAge/BNav_EC2/DepthDuration/v2_depth_duration_MTurk/v2_DepthDuration_HTML.html#85,85,1536,864,1536,864,8-21-2022,9-41-26,22,depth_duration_stimuli/001199_2014-06-17_16-03-48_260595134347_rgbf000077-resize_0/001199_2014-06-17_16-03-48_260595134347_rgbf000077-resize_0-target.png,125,3.4375,10,1970,127,feet,jsons/VE125_randls_65.json,446066,997986,38,Woman
22,996244,DepthScenes,duration_manipulation_targetAtFixation,jsons/VE125_randls_65.json,http://54.235.29.9/FacialAge/BNav_EC2/DepthDuration/v2_depth_duration_MTurk/v2_DepthDuration_HTML.html#85,85,1536,864,1536,864,8-21-2022,9-41-26,23,depth_duration_stimuli/000502_2014-06-08_23-02-32_260595134347_rgbf000063-resize_4/000502_2014-06-08_23-02-32_260595134347_rgbf000063-resize_4-target.png,125,2.431,6,1957,126,feet,jsons/VE125_randls_65.json,446066,997986,38,Woman
23,996244,DepthScenes,duration_manipulation_targetAtFixation,jsons/VE125_randls_65.json,http://54.235.29.9/FacialAge/BNav_EC2/DepthDuration/v2_depth_duration_MTurk/v2_DepthDuration_HTML.html#85,85,1536,864,1536,864,8-21-2022,9-41-26,24,depth_duration_stimuli/001175_2014-06-17_15-45-55_260595134347_rgbf000129-resize_4/001175_2014-06-17_15-45-55_260595134347_rgbf000129-resize_4-target.png,125,4.255,9,4281,121,feet,jsons/VE125_randls_65.json,446066,997986,38,Woman
24,996244,DepthScenes,duration_manipulation_targetAtFixation,jsons/VE125_randls_65.json,http://54.235.29.9/FacialAge/BNav_EC2/DepthDuration/v2_depth_duration_MTurk/v2_DepthDuration_HTML.html#85,85,1536,864,1536,864,8-21-2022,9-41-26,25,depth_duration_stimuli/003490_2014-05-21_15-50-11_094959634447_rgbf000101-resize_3/003490_2014-05-21_15-50-11_094959634447_rgbf000101-resize_3-target.png,125,3.6445,8,3611,126,feet,jsons/VE125_randls_65.json,446066,997986,38,Woman
25,996244,DepthScenes,duration_manipulation_targetAtFixation,jsons/VE125_randls_65.json,http://54.235.29.9/FacialAge/BNav_EC2/DepthDuration/v2_depth_duration_MTurk/v2_DepthDuration_HTML.html#85,85,1536,864,1536,864,8-21-2022,9-41-26,26,depth_duration_stimuli/002663_2014-06-13_15-50-26_094959634447_rgbf000075-resize_1/002663_2014-06-13_15-50-26_094959634447_rgbf000075-resize_1-target.png,125,4.7495,12,2085,124,feet,jsons/VE125_randls_65.json,446066,997986,38,Woman
26,996244,DepthScenes,duration_manipulation_targetAtFixation,jsons/VE125_randls_65.json,http://54.235.29.9/FacialAge/BNav_EC2/DepthDuration/v2_depth_duration_MTurk/v2_DepthDuration_HTML.html#85,85,1536,864,1536,864,8-21-2022,9-41-26,27,depth_duration_stimuli/000409_2014-06-04_19-23-33_260595134347_rgbf000067-resize_0/000409_2014-06-04_19-23-33_260595134347_rgbf000067-resize_0-target.png,125,3.7335,7,2951,125,feet,jsons/VE125_randls_65.json,446066,997986,38,Woman
27,996244,DepthScenes,duration_manipulation_targetAtFixation,jsons/VE125_randls_65.json,http://54.235.29.9/FacialAge/BNav_EC2/DepthDuration/v2_depth_duration_MTurk/v2_DepthDuration_HTML.html#85,85,1536,864,1536,864,8-21-2022,9-41-26,28,depth_duration_stimuli/000642_2014-06-08_16-59-25_260595134347_rgbf000098-resize_2/000642_2014-06-08_16-59-25_260595134347_rgbf000098-resize_2-target.png,125,2.8815,3,1916,138,feet,jsons/VE125_randls_65.json,446066,997986,38,Woman
28,996244,DepthScenes,duration_manipulation_targetAtFixation,jsons/VE125_randls_65.json,http://54.235.29.9/FacialAge/BNav_EC2/DepthDuration/v2_depth_duration_MTurk/v2_DepthDuration_HTML.html#85,85,1536,864,1536,864,8-21-2022,9-41-26,29,depth_duration_stimuli/002425_2014-06-28_20-27-29_260595134347_rgbf000031-resize_8/002425_2014-06-28_20-27-29_260595134347_rgbf000031-resize_8-target.png,125,3.8960000000000004,9,2075,131,feet,jsons/VE125_randls_65.json,446066,997986,38,Woman
29,996244,DepthScenes,duration_manipulation_targetAtFixation,jsons/VE125_randls_65.json,http://54.235.29.9/FacialAge/BNav_EC2/DepthDuration/v2_depth_duration_MTurk/v2_DepthDuration_HTML.html#85,85,1536,864,1536,864,8-21-2022,9-41-26,30,depth_duration_stimuli/000375_2014-06-08_11-17-29_260595134347_rgbf000133-resize_2/000375_2014-06-08_11-17-29_260595134347_rgbf000133-resize-original.jpg,125,4.718,0,2845,133,feet,jsons/VE125_randls_65.json,446066,997986,38,Woman
30,996244,DepthScenes,duration_manipulation_targetAtFixation,jsons/VE125_randls_65.json,http://54.235.29.9/FacialAge/BNav_EC2/DepthDuration/v2_depth_duration_MTurk/v2_DepthDuration_HTML.html#85,85,1536,864,1536,864,8-21-2022,9-41-26,31,depth_duration_stimuli/001167_2014-06-17_15-38-07_260595134347_rgbf000108-resize_0/001167_2014-06-17_15-38-07_260595134347_rgbf000108-resize_0-target.png,125,1.8505,3,2151,128,feet,jsons/VE125_randls_65.json,446066,997986,38,Woman
31,996244,DepthScenes,duration_manipulation_targetAtFixation,jsons/VE125_randls_65.json,http://54.235.29.9/FacialAge/BNav_EC2/DepthDuration/v2_depth_duration_MTurk/v2_DepthDuration_HTML.html#85,85,1536,864,1536,864,8-21-2022,9-41-26,32,depth_duration_stimuli/003587_2014-05-23_16-48-02_094959634447_rgbf002384-resize_2/003587_2014-05-23_16-48-02_094959634447_rgbf002384-resize_2-target.png,125,1.357,1,2158,118,feet,jsons/VE125_randls_65.json,446066,997986,38,Woman
32,996244,DepthScenes,duration_manipulation_targetAtFixation,jsons/VE125_randls_65.json,http://54.235.29.9/FacialAge/BNav_EC2/DepthDuration/v2_depth_duration_MTurk/v2_DepthDuration_HTML.html#85,85,1536,864,1536,864,8-21-2022,9-41-26,33,depth_duration_stimuli/002279_2014-06-28_18-55-32_260595134347_rgbf000040-resize_5/002279_2014-06-28_18-55-32_260595134347_rgbf000040-resize_5-target.png,125,1.5043333333333,2,1905,127,feet,jsons/VE125_randls_65.json,446066,997986,38,Woman
33,996244,DepthScenes,duration_manipulation_targetAtFixation,jsons/VE125_randls_65.json,http://54.235.29.9/FacialAge/BNav_EC2/DepthDuration/v2_depth_duration_MTurk/v2_DepthDuration_HTML.html#85,85,1536,864,1536,864,8-21-2022,9-41-26,34,depth_duration_stimuli/000635_2014-06-08_16-38-42_260595134347_rgbf000106-resize_1/000635_2014-06-08_16-38-42_260595134347_rgbf000106-resize_1-target.png,125,2.074,5,2331,123,feet,jsons/VE125_randls_65.json,446066,997986,38,Woman
34,996244,DepthScenes,duration_manipulation_targetAtFixation,jsons/VE125_randls_65.json,http://54.235.29.9/FacialAge/BNav_EC2/DepthDuration/v2_depth_duration_MTurk/v2_DepthDuration_HTML.html#85,85,1536,864,1536,864,8-21-2022,9-41-26,35,depth_duration_stimuli/001164_2014-06-17_15-35-46_260595134347_rgbf000085-resize_3/001164_2014-06-17_15-35-46_260595134347_rgbf000085-resize_3-target.png,125,2.354,6,2218,121,feet,jsons/VE125_randls_65.json,446066,997986,38,Woman
35,996244,DepthScenes,duration_manipulation_targetAtFixation,jsons/VE125_randls_65.json,http://54.235.29.9/FacialAge/BNav_EC2/DepthDuration/v2_depth_duration_MTurk/v2_DepthDuration_HTML.html#85,85,1536,864,1536,864,8-21-2022,9-41-26,36,depth_duration_stimuli/001136_2014-06-17_15-19-41_260595134347_rgbf000076-resize_3/001136_2014-06-17_15-19-41_260595134347_rgbf000076-resize_3-target.png,125,1.8655,6,1780,119,feet,jsons/VE125_randls_65.json,446066,997986,38,Woman
36,996244,DepthScenes,duration_manipulation_targetAtFixation,jsons/VE125_randls_65.json,http://54.235.29.9/FacialAge/BNav_EC2/DepthDuration/v2_depth_duration_MTurk/v2_DepthDuration_HTML.html#85,85,1536,864,1536,864,8-21-2022,9-41-26,37,depth_duration_stimuli/002509_2014-06-24_13-19-22_094959634447_rgbf000077-resize_0/002509_2014-06-24_13-19-22_094959634447_rgbf000077-resize_0-target.png,125,1.3065,2,3771,120,feet,jsons/VE125_randls_65.json,446066,997986,38,Woman
37,996244,DepthScenes,duration_manipulation_targetAtFixation,jsons/VE125_randls_65.json,http://54.235.29.9/FacialAge/BNav_EC2/DepthDuration/v2_depth_duration_MTurk/v2_DepthDuration_HTML.html#85,85,1536,864,1536,864,8-21-2022,9-41-26,38,depth_duration_stimuli/003338_2014-05-20_11-01-23_094959634447_rgbf000051-resize_6/003338_2014-05-20_11-01-23_094959634447_rgbf000051-resize_6-target.png,125,1.693,2,2560,120,feet,jsons/VE125_randls_65.json,446066,997986,38,Woman
38,996244,DepthScenes,duration_manipulation_targetAtFixation,jsons/VE125_randls_65.json,http://54.235.29.9/FacialAge/BNav_EC2/DepthDuration/v2_depth_duration_MTurk/v2_DepthDuration_HTML.html#85,85,1536,864,1536,864,8-21-2022,9-41-26,39,depth_duration_stimuli/003070_2014-06-15_14-58-27_094959634447_rgbf000150-resize_3/003070_2014-06-15_14-58-27_094959634447_rgbf000150-resize_3-target.png,125,2.9415,6,2265,143,feet,jsons/VE125_randls_65.json,446066,997986,38,Woman
39,996244,DepthScenes,duration_manipulation_targetAtFixation,jsons/VE125_randls_65.json,http://54.235.29.9/FacialAge/BNav_EC2/DepthDuration/v2_depth_duration_MTurk/v2_DepthDuration_HTML.html#85,85,1536,864,1536,864,8-21-2022,9-41-26,40,depth_duration_stimuli/000943_2014-06-09_19-31-07_260595134347_rgbf000128-resize_1/000943_2014-06-09_19-31-07_260595134347_rgbf000128-resize_1-target.png,125,1.9765,3,1911,120,feet,jsons/VE125_randls_65.json,446066,997986,38,Woman
40,996244,DepthScenes,duration_manipulation_targetAtFixation,jsons/VE125_randls_65.json,http://54.235.29.9/FacialAge/BNav_EC2/DepthDuration/v2_depth_duration_MTurk/v2_DepthDuration_HTML.html#85,85,1536,864,1536,864,8-21-2022,9-41-26,41,depth_duration_stimuli/003292_2014-05-14_21-53-49_094959634447_rgbf000100-resize_2/003292_2014-05-14_21-53-49_094959634447_rgbf000100-resize_2-target.png,125,3.4815,5,2169,123,feet,jsons/VE125_randls_65.json,446066,997986,38,Woman
41,996244,DepthScenes,duration_manipulation_targetAtFixation,jsons/VE125_randls_65.json,http://54.235.29.9/FacialAge/BNav_EC2/DepthDuration/v2_depth_duration_MTurk/v2_DepthDuration_HTML.html#85,85,1536,864,1536,864,8-21-2022,9-41-26,42,depth_duration_stimuli/002639_2014-06-24_14-51-37_094959634447_rgbf000074-resize_4/002639_2014-06-24_14-51-37_094959634447_rgbf000074-resize_4-target.png,125,4.0375,7,1959,125,feet,jsons/VE125_randls_65.json,446066,997986,38,Woman
42,996244,DepthScenes,duration_manipulation_targetAtFixation,jsons/VE125_randls_65.json,http://54.235.29.9/FacialAge/BNav_EC2/DepthDuration/v2_depth_duration_MTurk/v2_DepthDuration_HTML.html#85,85,1536,864,1536,864,8-21-2022,9-41-26,43,depth_duration_stimuli/001449_2014-06-19_17-01-27_260595134347_rgbf000116-resize_2/001449_2014-06-19_17-01-27_260595134347_rgbf000116-resize_2-target.png,125,3.452,5,1786,123,feet,jsons/VE125_randls_65.json,446066,997986,38,Woman
43,996244,DepthScenes,duration_manipulation_targetAtFixation,jsons/VE125_randls_65.json,http://54.235.29.9/FacialAge/BNav_EC2/DepthDuration/v2_depth_duration_MTurk/v2_DepthDuration_HTML.html#85,85,1536,864,1536,864,8-21-2022,9-41-26,44,depth_duration_stimuli/001450_2014-06-19_17-02-03_260595134347_rgbf000203-resize_4/001450_2014-06-19_17-02-03_260595134347_rgbf000203-resize_4-target.png,125,4.0106666666667,7,1954,123,feet,jsons/VE125_randls_65.json,446066,997986,38,Woman
44,996244,DepthScenes,duration_manipulation_targetAtFixation,jsons/VE125_randls_65.json,http://54.235.29.9/FacialAge/BNav_EC2/DepthDuration/v2_depth_duration_MTurk/v2_DepthDuration_HTML.html#85,85,1536,864,1536,864,8-21-2022,9-41-26,45,depth_duration_stimuli/000787_2014-06-08_22-33-53_260595134347_rgbf000175-resize_1/000787_2014-06-08_22-33-53_260595134347_rgbf000175-resize-original.jpg,125,4.784,0,2249,126,feet,jsons/VE125_randls_65.json,446066,997986,38,Woman
45,996244,DepthScenes,duration_manipulation_targetAtFixation,jsons/VE125_randls_65.json,http://54.235.29.9/FacialAge/BNav_EC2/DepthDuration/v2_depth_duration_MTurk/v2_DepthDuration_HTML.html#85,85,1536,864,1536,864,8-21-2022,9-41-26,46,depth_duration_stimuli/000368_2014-06-09_15-53-01_260595134347_rgbf000155-resize_2/000368_2014-06-09_15-53-01_260595134347_rgbf000155-resize_2-target.png,125,2.4859999999999998,3,1706,122,feet,jsons/VE125_randls_65.json,446066,997986,38,Woman
46,996244,DepthScenes,duration_manipulation_targetAtFixation,jsons/VE125_randls_65.json,http://54.235.29.9/FacialAge/BNav_EC2/DepthDuration/v2_depth_duration_MTurk/v2_DepthDuration_HTML.html#85,85,1536,864,1536,864,8-21-2022,9-41-26,47,depth_duration_stimuli/002678_2014-06-13_16-15-32_094959634447_rgbf000151-resize_6/002678_2014-06-13_16-15-32_094959634447_rgbf000151-resize_6-target.png,125,2.1830000000000003,8,1879,123,feet,jsons/VE125_randls_65.json,446066,997986,38,Woman
47,996244,DepthScenes,duration_manipulation_targetAtFixation,jsons/VE125_randls_65.json,http://54.235.29.9/FacialAge/BNav_EC2/DepthDuration/v2_depth_duration_MTurk/v2_DepthDuration_HTML.html#85,85,1536,864,1536,864,8-21-2022,9-41-26,48,depth_duration_stimuli/002213_2014-06-28_18-37-58_260595134347_rgbf000055-resize_1/002213_2014-06-28_18-37-58_260595134347_rgbf000055-resize_1-target.png,125,3.62,11,2245,122,feet,jsons/VE125_randls_65.json,446066,997986,38,Woman
48,996244,DepthScenes,duration_manipulation_targetAtFixation,jsons/VE125_randls_65.json,http://54.235.29.9/FacialAge/BNav_EC2/DepthDuration/v2_depth_duration_MTurk/v2_DepthDuration_HTML.html#85,85,1536,864,1536,864,8-21-2022,9-41-26,49,depth_duration_stimuli/000691_2014-06-08_13-08-50_260595134347_rgbf000132-resize_3/000691_2014-06-08_13-08-50_260595134347_rgbf000132-resize_3-target.png,125,4.1530000000000005,8,1819,127,feet,jsons/VE125_randls_65.json,446066,997986,38,Woman
49,996244,DepthScenes,duration_manipulation_targetAtFixation,jsons/VE125_randls_65.json,http://54.235.29.9/FacialAge/BNav_EC2/DepthDuration/v2_depth_duration_MTurk/v2_DepthDuration_HTML.html#85,85,1536,864,1536,864,8-21-2022,9-41-26,50,depth_duration_stimuli/002043_2014-06-24_20-29-38_260595134347_rgbf000039-resize_4/002043_2014-06-24_20-29-38_260595134347_rgbf000039-resize_4-target.png,125,2.8435,7,2049,122,feet,jsons/VE125_randls_65.json,446066,997986,38,Woman
50,996244,DepthScenes,duration_manipulation_targetAtFixation,jsons/VE125_randls_65.json,http://54.235.29.9/FacialAge/BNav_EC2/DepthDuration/v2_depth_duration_MTurk/v2_DepthDuration_HTML.html#85,85,1536,864,1536,864,8-21-2022,9-41-26,51,depth_duration_stimuli/003048_2014-06-15_13-49-43_094959634447_rgbf000150-resize_1/003048_2014-06-15_13-49-43_094959634447_rgbf000150-resize_1-target.png,125,4.0035,8,1574,124,feet,jsons/VE125_randls_65.json,446066,997986,38,Woman
51,996244,DepthScenes,duration_manipulation_targetAtFixation,jsons/VE125_randls_65.json,http://54.235.29.9/FacialAge/BNav_EC2/DepthDuration/v2_depth_duration_MTurk/v2_DepthDuration_HTML.html#85,85,1536,864,1536,864,8-21-2022,9-41-26,52,depth_duration_stimuli/001092_2014-06-15_17-34-58_260595134347_rgbf000171-resize_3/001092_2014-06-15_17-34-58_260595134347_rgbf000171-resize_3-target.png,125,2.6935,4,1990,126,feet,jsons/VE125_randls_65.json,446066,997986,38,Woman
52,996244,DepthScenes,duration_manipulation_targetAtFixation,jsons/VE125_randls_65.json,http://54.235.29.9/FacialAge/BNav_EC2/DepthDuration/v2_depth_duration_MTurk/v2_DepthDuration_HTML.html#85,85,1536,864,1536,864,8-21-2022,9-41-26,53,depth_duration_stimuli/002545_2014-06-24_13-38-53_094959634447_rgbf000080-resize_4/002545_2014-06-24_13-38-53_094959634447_rgbf000080-resize_4-target.png,125,1.9205,2,1877,123,feet,jsons/VE125_randls_65.json,446066,997986,38,Woman
53,996244,DepthScenes,duration_manipulation_targetAtFixation,jsons/VE125_randls_65.json,http://54.235.29.9/FacialAge/BNav_EC2/DepthDuration/v2_depth_duration_MTurk/v2_DepthDuration_HTML.html#85,85,1536,864,1536,864,8-21-2022,9-41-26,54,depth_duration_stimuli/002784_2014-06-22_19-26-30_094959634447_rgbf000083-resize_3/002784_2014-06-22_19-26-30_094959634447_rgbf000083-resize_3-target.png,125,1.8046666666667,2,1838,133,feet,jsons/VE125_randls_65.json,446066,997986,38,Woman
54,996244,DepthScenes,duration_manipulation_targetAtFixation,jsons/VE125_randls_65.json,http://54.235.29.9/FacialAge/BNav_EC2/DepthDuration/v2_depth_duration_MTurk/v2_DepthDuration_HTML.html#85,85,1536,864,1536,864,8-21-2022,9-41-26,55,depth_duration_stimuli/001100_2014-06-15_17-46-26_260595134347_rgbf000225-resize_2/001100_2014-06-15_17-46-26_260595134347_rgbf000225-resize_2-target.png,125,2.24,2,1680,122,feet,jsons/VE125_randls_65.json,446066,997986,38,Woman
55,996244,DepthScenes,duration_manipulation_targetAtFixation,jsons/VE125_randls_65.json,http://54.235.29.9/FacialAge/BNav_EC2/DepthDuration/v2_depth_duration_MTurk/v2_DepthDuration_HTML.html#85,85,1536,864,1536,864,8-21-2022,9-41-26,56,depth_duration_stimuli/000493_2014-06-09_21-01-18_260595134347_rgbf000196-resize_3/000493_2014-06-09_21-01-18_260595134347_rgbf000196-resize_3-target.png,125,3.44,5,1810,127,feet,jsons/VE125_randls_65.json,446066,997986,38,Woman
56,996244,DepthScenes,duration_manipulation_targetAtFixation,jsons/VE125_randls_65.json,http://54.235.29.9/FacialAge/BNav_EC2/DepthDuration/v2_depth_duration_MTurk/v2_DepthDuration_HTML.html#85,85,1536,864,1536,864,8-21-2022,9-41-26,57,depth_duration_stimuli/000191_2014-05-12_17-07-38_260595134347_rgbf000199-resize_0/000191_2014-05-12_17-07-38_260595134347_rgbf000199-resize_0-target.png,125,3.7995,9,2662,133,feet,jsons/VE125_randls_65.json,446066,997986,38,Woman
57,996244,DepthScenes,duration_manipulation_targetAtFixation,jsons/VE125_randls_65.json,http://54.235.29.9/FacialAge/BNav_EC2/DepthDuration/v2_depth_duration_MTurk/v2_DepthDuration_HTML.html#85,85,1536,864,1536,864,8-21-2022,9-41-26,58,depth_duration_stimuli/002964_2014-06-08_17-46-11_094959634447_rgbf000091-resize_4/002964_2014-06-08_17-46-11_094959634447_rgbf000091-resize_4-target.png,125,1.6909999999999998,2,2278,124,feet,jsons/VE125_randls_65.json,446066,997986,38,Woman
58,996244,DepthScenes,duration_manipulation_targetAtFixation,jsons/VE125_randls_65.json,http://54.235.29.9/FacialAge/BNav_EC2/DepthDuration/v2_depth_duration_MTurk/v2_DepthDuration_HTML.html#85,85,1536,864,1536,864,8-21-2022,9-41-26,59,depth_duration_stimuli/002136_2014-06-25_21-18-03_260595134347_rgbf000109-resize_3/002136_2014-06-25_21-18-03_260595134347_rgbf000109-resize_3-target.png,125,1.9569999999999999,3,1665,120,feet,jsons/VE125_randls_65.json,446066,997986,38,Woman
59,996244,DepthScenes,duration_manipulation_targetAtFixation,jsons/VE125_randls_65.json,http://54.235.29.9/FacialAge/BNav_EC2/DepthDuration/v2_depth_duration_MTurk/v2_DepthDuration_HTML.html#85,85,1536,864,1536,864,8-21-2022,9-41-26,60,depth_duration_stimuli/000009_2014-05-26_14-32-05_260595134347_rgbf000034-resize_3/000009_2014-05-26_14-32-05_260595134347_rgbf000034-resize_3-target.png,125,3.8715,5,1930,132,feet,jsons/VE125_randls_65.json,446066,997986,38,Woman
60,996244,DepthScenes,duration_manipulation_targetAtFixation,jsons/VE125_randls_65.json,http://54.235.29.9/FacialAge/BNav_EC2/DepthDuration/v2_depth_duration_MTurk/v2_DepthDuration_HTML.html#85,85,1536,864,1536,864,8-21-2022,9-41-26,61,depth_duration_stimuli/001828_2014-06-26_21-40-03_260595134347_rgbf000024-resize_0/001828_2014-06-26_21-40-03_260595134347_rgbf000024-resize_0-target.png,125,4.8260000000000005,6,1821,126,feet,jsons/VE125_randls_65.json,446066,997986,38,Woman
61,996244,DepthScenes,duration_manipulation_targetAtFixation,jsons/VE125_randls_65.json,http://54.235.29.9/FacialAge/BNav_EC2/DepthDuration/v2_depth_duration_MTurk/v2_DepthDuration_HTML.html#85,85,1536,864,1536,864,8-21-2022,9-41-26,62,depth_duration_stimuli/000736_2014-06-08_18-24-15_260595134347_rgbf000206-resize_3/000736_2014-06-08_18-24-15_260595134347_rgbf000206-resize_3-target.png,125,3.515,3,1568,125,feet,jsons/VE125_randls_65.json,446066,997986,38,Woman
62,996244,DepthScenes,duration_manipulation_targetAtFixation,jsons/VE125_randls_65.json,http://54.235.29.9/FacialAge/BNav_EC2/DepthDuration/v2_depth_duration_MTurk/v2_DepthDuration_HTML.html#85,85,1536,864,1536,864,8-21-2022,9-41-26,63,depth_duration_stimuli/000137_2014-05-20_17-04-49_260595134347_rgbf000120-resize_1/000137_2014-05-20_17-04-49_260595134347_rgbf000120-resize_1-target.png,125,3.786,5,1709,124,feet,jsons/VE125_randls_65.json,446066,997986,38,Woman
63,996244,DepthScenes,duration_manipulation_targetAtFixation,jsons/VE125_randls_65.json,http://54.235.29.9/FacialAge/BNav_EC2/DepthDuration/v2_depth_duration_MTurk/v2_DepthDuration_HTML.html#85,85,1536,864,1536,864,8-21-2022,9-41-26,64,depth_duration_stimuli/001244_2014-06-17_16-47-45_260595134347_rgbf000030-resize_4/001244_2014-06-17_16-47-45_260595134347_rgbf000030-resize_4-target.png,125,2.0425,3,3579,127,feet,jsons/VE125_randls_65.json,446066,997986,38,Woman
64,996244,DepthScenes,duration_manipulation_targetAtFixation,jsons/VE125_randls_65.json,http://54.235.29.9/FacialAge/BNav_EC2/DepthDuration/v2_depth_duration_MTurk/v2_DepthDuration_HTML.html#85,85,1536,864,1536,864,8-21-2022,9-41-26,65,depth_duration_stimuli/003495_2014-05-21_16-01-51_094959634447_rgbf000100-resize_3/003495_2014-05-21_16-01-51_094959634447_rgbf000100-resize_3-target.png,125,1.6255,1,1732,117,feet,jsons/VE125_randls_65.json,446066,997986,38,Woman
65,996244,DepthScenes,duration_manipulation_targetAtFixation,jsons/VE125_randls_65.json,http://54.235.29.9/FacialAge/BNav_EC2/DepthDuration/v2_depth_duration_MTurk/v2_DepthDuration_HTML.html#85,85,1536,864,1536,864,8-21-2022,9-41-26,66,depth_duration_stimuli/001222_2014-06-17_16-24-06_260595134347_rgbf000073-resize_0/001222_2014-06-17_16-24-06_260595134347_rgbf000073-resize-original.jpg,125,1.4385,0,2164,117,feet,jsons/VE125_randls_65.json,446066,997986,38,Woman
66,996244,DepthScenes,duration_manipulation_targetAtFixation,jsons/VE125_randls_65.json,http://54.235.29.9/FacialAge/BNav_EC2/DepthDuration/v2_depth_duration_MTurk/v2_DepthDuration_HTML.html#85,85,1536,864,1536,864,8-21-2022,9-41-26,67,depth_duration_stimuli/002570_2014-06-24_13-59-54_094959634447_rgbf000059-resize_0/002570_2014-06-24_13-59-54_094959634447_rgbf000059-resize_0-target.png,125,4.037,2,1868,126,feet,jsons/VE125_randls_65.json,446066,997986,38,Woman
67,996244,DepthScenes,duration_manipulation_targetAtFixation,jsons/VE125_randls_65.json,http://54.235.29.9/FacialAge/BNav_EC2/DepthDuration/v2_depth_duration_MTurk/v2_DepthDuration_HTML.html#85,85,1536,864,1536,864,8-21-2022,9-41-26,68,depth_duration_stimuli/002467_2014-06-28_20-38-07_260595134347_rgbf000026-resize_2/002467_2014-06-28_20-38-07_260595134347_rgbf000026-resize_2-target.png,125,4.742,8,2353,133,feet,jsons/VE125_randls_65.json,446066,997986,38,Woman
68,996244,DepthScenes,duration_manipulation_targetAtFixation,jsons/VE125_randls_65.json,http://54.235.29.9/FacialAge/BNav_EC2/DepthDuration/v2_depth_duration_MTurk/v2_DepthDuration_HTML.html#85,85,1536,864,1536,864,8-21-2022,9-41-26,69,depth_duration_stimuli/002748_2014-06-22_19-07-22_094959634447_rgbf000078-resize_1/002748_2014-06-22_19-07-22_094959634447_rgbf000078-resize_1-target.png,125,4.6705,12,1942,122,feet,jsons/VE125_randls_65.json,446066,997986,38,Woman
69,996244,DepthScenes,duration_manipulation_targetAtFixation,jsons/VE125_randls_65.json,http://54.235.29.9/FacialAge/BNav_EC2/DepthDuration/v2_depth_duration_MTurk/v2_DepthDuration_HTML.html#85,85,1536,864,1536,864,8-21-2022,9-41-26,70,depth_duration_stimuli/002995_2014-06-15_12-31-26_094959634447_rgbf000150-resize_1/002995_2014-06-15_12-31-26_094959634447_rgbf000150-resize_1-target.png,125,3.8360000000000003,8,1719,135,feet,jsons/VE125_randls_65.json,446066,997986,38,Woman
70,996244,DepthScenes,duration_manipulation_targetAtFixation,jsons/VE125_randls_65.json,http://54.235.29.9/FacialAge/BNav_EC2/DepthDuration/v2_depth_duration_MTurk/v2_DepthDuration_HTML.html#85,85,1536,864,1536,864,8-21-2022,9-41-26,71,depth_duration_stimuli/001810_2014-06-26_20-51-35_260595134347_rgbf000040-resize_3/001810_2014-06-26_20-51-35_260595134347_rgbf000040-resize_3-target.png,125,2.2525,3,1603,125,feet,jsons/VE125_randls_65.json,446066,997986,38,Woman
71,996244,DepthScenes,duration_manipulation_targetAtFixation,jsons/VE125_randls_65.json,http://54.235.29.9/FacialAge/BNav_EC2/DepthDuration/v2_depth_duration_MTurk/v2_DepthDuration_HTML.html#85,85,1536,864,1536,864,8-21-2022,9-41-26,72,depth_duration_stimuli/003010_2014-06-15_12-54-35_094959634447_rgbf000112-resize_0/003010_2014-06-15_12-54-35_094959634447_rgbf000112-resize_0-target.png,125,3.1185,8,1752,125,feet,jsons/VE125_randls_65.json,446066,997986,38,Woman
72,996244,DepthScenes,duration_manipulation_targetAtFixation,jsons/VE125_randls_65.json,http://54.235.29.9/FacialAge/BNav_EC2/DepthDuration/v2_depth_duration_MTurk/v2_DepthDuration_HTML.html#85,85,1536,864,1536,864,8-21-2022,9-41-26,73,depth_duration_stimuli/002600_2014-06-24_14-27-04_094959634447_rgbf000074-resize_2/002600_2014-06-24_14-27-04_094959634447_rgbf000074-resize_2-target.png,125,2.7575,3,1480,108,feet,jsons/VE125_randls_65.json,446066,997986,38,Woman
73,996244,DepthScenes,duration_manipulation_targetAtFixation,jsons/VE125_randls_65.json,http://54.235.29.9/FacialAge/BNav_EC2/DepthDuration/v2_depth_duration_MTurk/v2_DepthDuration_HTML.html#85,85,1536,864,1536,864,8-21-2022,9-41-26,74,depth_duration_stimuli/003228_2014-05-14_13-42-35_094959634447_rgbf000101-resize_1/003228_2014-05-14_13-42-35_094959634447_rgbf000101-resize_1-target.png,125,1.9680000000000002,3,1603,121,feet,jsons/VE125_randls_65.json,446066,997986,38,Woman
74,996244,DepthScenes,duration_manipulation_targetAtFixation,jsons/VE125_randls_65.json,http://54.235.29.9/FacialAge/BNav_EC2/DepthDuration/v2_depth_duration_MTurk/v2_DepthDuration_HTML.html#85,85,1536,864,1536,864,8-21-2022,9-41-26,75,depth_duration_stimuli/001011_2014-06-08_23-18-54_260595134347_rgbf000044-resize_4/001011_2014-06-08_23-18-54_260595134347_rgbf000044-resize_4-target.png,125,2.4730000000000003,4,2309,122,feet,jsons/VE125_randls_65.json,446066,997986,38,Woman
75,996244,DepthScenes,duration_manipulation_targetAtFixation,jsons/VE125_randls_65.json,http://54.235.29.9/FacialAge/BNav_EC2/DepthDuration/v2_depth_duration_MTurk/v2_DepthDuration_HTML.html#85,85,1536,864,1536,864,8-21-2022,9-41-26,76,depth_duration_stimuli/002875_2014-06-01_15-19-00_094959634447_rgbf000151-resize_1/002875_2014-06-01_15-19-00_094959634447_rgbf000151-resize_1-target.png,125,1.9675,2,1725,128,feet,jsons/VE125_randls_65.json,446066,997986,38,Woman
76,996244,DepthScenes,duration_manipulation_targetAtFixation,jsons/VE125_randls_65.json,http://54.235.29.9/FacialAge/BNav_EC2/DepthDuration/v2_depth_duration_MTurk/v2_DepthDuration_HTML.html#85,85,1536,864,1536,864,8-21-2022,9-41-26,77,depth_duration_stimuli/000917_2014-06-09_22-45-29_260595134347_rgbf000149-resize_3/000917_2014-06-09_22-45-29_260595134347_rgbf000149-resize_3-target.png,125,4.1865,3,2787,116,feet,jsons/VE125_randls_65.json,446066,997986,38,Woman
77,996244,DepthScenes,duration_manipulation_targetAtFixation,jsons/VE125_randls_65.json,http://54.235.29.9/FacialAge/BNav_EC2/DepthDuration/v2_depth_duration_MTurk/v2_DepthDuration_HTML.html#85,85,1536,864,1536,864,8-21-2022,9-41-26,78,depth_duration_stimuli/002323_2014-06-28_20-01-54_260595134347_rgbf000051-resize_4/002323_2014-06-28_20-01-54_260595134347_rgbf000051-resize_4-target.png,125,3.7310000000000003,6,1845,109,feet,jsons/VE125_randls_65.json,446066,997986,38,Woman
78,996244,DepthScenes,duration_manipulation_targetAtFixation,jsons/VE125_randls_65.json,http://54.235.29.9/FacialAge/BNav_EC2/DepthDuration/v2_depth_duration_MTurk/v2_DepthDuration_HTML.html#85,85,1536,864,1536,864,8-21-2022,9-41-26,79,depth_duration_stimuli/001016_2014-06-09_16-16-10_260595134347_rgbf000112-resize_5/001016_2014-06-09_16-16-10_260595134347_rgbf000112-resize_5-target.png,125,1.6565,3,1600,126,feet,jsons/VE125_randls_65.json,446066,997986,38,Woman
79,996244,DepthScenes,duration_manipulation_targetAtFixation,jsons/VE125_randls_65.json,http://54.235.29.9/FacialAge/BNav_EC2/DepthDuration/v2_depth_duration_MTurk/v2_DepthDuration_HTML.html#85,85,1536,864,1536,864,8-21-2022,9-41-26,80,depth_duration_stimuli/002340_2014-06-28_20-05-46_260595134347_rgbf000113-resize_0/002340_2014-06-28_20-05-46_260595134347_rgbf000113-resize_0-target.png,125,2.4735,6,1746,98,feet,jsons/VE125_randls_65.json,446066,997986,38,Woman
80,996244,DepthScenes,duration_manipulation_targetAtFixation,jsons/VE125_randls_65.json,http://54.235.29.9/FacialAge/BNav_EC2/DepthDuration/v2_depth_duration_MTurk/v2_DepthDuration_HTML.html#85,85,1536,864,1536,864,8-21-2022,9-41-26,81,depth_duration_stimuli/000929_2014-06-09_16-33-19_260595134347_rgbf000139-resize_0/000929_2014-06-09_16-33-19_260595134347_rgbf000139-resize_0-target.png,125,2.8680000000000003,4,1806,124,feet,jsons/VE125_randls_65.json,446066,997986,38,Woman
81,996244,DepthScenes,duration_manipulation_targetAtFixation,jsons/VE125_randls_65.json,http://54.235.29.9/FacialAge/BNav_EC2/DepthDuration/v2_depth_duration_MTurk/v2_DepthDuration_HTML.html#85,85,1536,864,1536,864,8-21-2022,9-41-26,82,depth_duration_stimuli/000457_2014-06-08_16-52-43_260595134347_rgbf000199-resize_1/000457_2014-06-08_16-52-43_260595134347_rgbf000199-resize_1-target.png,125,3.6489999999999996,5,1609,112,feet,jsons/VE125_randls_65.json,446066,997986,38,Woman
82,996244,DepthScenes,duration_manipulation_targetAtFixation,jsons/VE125_randls_65.json,http://54.235.29.9/FacialAge/BNav_EC2/DepthDuration/v2_depth_duration_MTurk/v2_DepthDuration_HTML.html#85,85,1536,864,1536,864,8-21-2022,9-41-26,83,depth_duration_stimuli/001066_2014-06-08_22-03-20_260595134347_rgbf000066-resize_4/001066_2014-06-08_22-03-20_260595134347_rgbf000066-resize_4-target.png,125,4.2330000000000005,6,1455,118,feet,jsons/VE125_randls_65.json,446066,997986,38,Woman
83,996244,DepthScenes,duration_manipulation_targetAtFixation,jsons/VE125_randls_65.json,http://54.235.29.9/FacialAge/BNav_EC2/DepthDuration/v2_depth_duration_MTurk/v2_DepthDuration_HTML.html#85,85,1536,864,1536,864,8-21-2022,9-41-26,84,depth_duration_stimuli/000742_2014-06-08_18-48-09_260595134347_rgbf000164-resize_4/000742_2014-06-08_18-48-09_260595134347_rgbf000164-resize_4-target.png,125,4.632,6,1362,123,feet,jsons/VE125_randls_65.json,446066,997986,38,Woman
84,996244,DepthScenes,duration_manipulation_targetAtFixation,jsons/VE125_randls_65.json,http://54.235.29.9/FacialAge/BNav_EC2/DepthDuration/v2_depth_duration_MTurk/v2_DepthDuration_HTML.html#85,85,1536,864,1536,864,8-21-2022,9-41-26,85,depth_duration_stimuli/001555_2014-06-20_17-12-10_260595134347_rgbf000065-resize_4/001555_2014-06-20_17-12-10_260595134347_rgbf000065-resize_4-target.png,125,1.633,3,1132,88,feet,jsons/VE125_randls_65.json,446066,997986,38,Woman
85,996244,DepthScenes,duration_manipulation_targetAtFixation,jsons/VE125_randls_65.json,http://54.235.29.9/FacialAge/BNav_EC2/DepthDuration/v2_depth_duration_MTurk/v2_DepthDuration_HTML.html#85,85,1536,864,1536,864,8-21-2022,9-41-26,86,depth_duration_stimuli/000103_2014-05-14_22-01-17_260595134347_rgbf000152-resize_5/000103_2014-05-14_22-01-17_260595134347_rgbf000152-resize_5-target.png,125,1.993,5,1336,124,feet,jsons/VE125_randls_65.json,446066,997986,38,Woman
86,996244,DepthScenes,duration_manipulation_targetAtFixation,jsons/VE125_randls_65.json,http://54.235.29.9/FacialAge/BNav_EC2/DepthDuration/v2_depth_duration_MTurk/v2_DepthDuration_HTML.html#85,85,1536,864,1536,864,8-21-2022,9-41-26,87,depth_duration_stimuli/002788_2014-06-22_19-36-03_094959634447_rgbf000088-resize_2/002788_2014-06-22_19-36-03_094959634447_rgbf000088-resize_2-target.png,125,1.6465,6,1315,130,feet,jsons/VE125_randls_65.json,446066,997986,38,Woman
87,996244,DepthScenes,duration_manipulation_targetAtFixation,jsons/VE125_randls_65.json,http://54.235.29.9/FacialAge/BNav_EC2/DepthDuration/v2_depth_duration_MTurk/v2_DepthDuration_HTML.html#85,85,1536,864,1536,864,8-21-2022,9-41-26,88,depth_duration_stimuli/000749_2014-06-08_21-55-06_260595134347_rgbf000070-resize_2/000749_2014-06-08_21-55-06_260595134347_rgbf000070-resize_2-target.png,125,2.331,2,1506,124,feet,jsons/VE125_randls_65.json,446066,997986,38,Woman
88,996244,DepthScenes,duration_manipulation_targetAtFixation,jsons/VE125_randls_65.json,http://54.235.29.9/FacialAge/BNav_EC2/DepthDuration/v2_depth_duration_MTurk/v2_DepthDuration_HTML.html#85,85,1536,864,1536,864,8-21-2022,9-41-26,89,depth_duration_stimuli/001029_2014-06-08_13-17-57_260595134347_rgbf000065-resize_1/001029_2014-06-08_13-17-57_260595134347_rgbf000065-resize_1-target.png,125,3.0835,3,1244,124,feet,jsons/VE125_randls_65.json,446066,997986,38,Woman
89,996244,DepthScenes,duration_manipulation_targetAtFixation,jsons/VE125_randls_65.json,http://54.235.29.9/FacialAge/BNav_EC2/DepthDuration/v2_depth_duration_MTurk/v2_DepthDuration_HTML.html#85,85,1536,864,1536,864,8-21-2022,9-41-26,90,depth_duration_stimuli/000677_2014-06-08_23-10-32_260595134347_rgbf000158-resize_6/000677_2014-06-08_23-10-32_260595134347_rgbf000158-resize_6-target.png,125,3.556,4,1418,125,feet,jsons/VE125_randls_65.json,446066,997986,38,Woman
90,996244,DepthScenes,duration_manipulation_targetAtFixation,jsons/VE125_randls_65.json,http://54.235.29.9/FacialAge/BNav_EC2/DepthDuration/v2_depth_duration_MTurk/v2_DepthDuration_HTML.html#85,85,1536,864,1536,864,8-21-2022,9-41-26,91,depth_duration_stimuli/001150_2014-06-17_15-27-34_260595134347_rgbf000108-resize_2/001150_2014-06-17_15-27-34_260595134347_rgbf000108-resize_2-target.png,125,4.0325,6,1328,127,feet,jsons/VE125_randls_65.json,446066,997986,38,Woman
91,996244,DepthScenes,duration_manipulation_targetAtFixation,jsons/VE125_randls_65.json,http://54.235.29.9/FacialAge/BNav_EC2/DepthDuration/v2_depth_duration_MTurk/v2_DepthDuration_HTML.html#85,85,1536,864,1536,864,8-21-2022,9-41-26,92,depth_duration_stimuli/000665_2014-06-09_20-42-35_260595134347_rgbf000110-resize_1/000665_2014-06-09_20-42-35_260595134347_rgbf000110-resize_1-target.png,125,3.057,5,1246,118,feet,jsons/VE125_randls_65.json,446066,997986,38,Woman
92,996244,DepthScenes,duration_manipulation_targetAtFixation,jsons/VE125_randls_65.json,http://54.235.29.9/FacialAge/BNav_EC2/DepthDuration/v2_depth_duration_MTurk/v2_DepthDuration_HTML.html#85,85,1536,864,1536,864,8-21-2022,9-41-26,93,depth_duration_stimuli/000758_2014-06-08_22-05-08_260595134347_rgbf000085-resize_0/000758_2014-06-08_22-05-08_260595134347_rgbf000085-resize_0-target.png,125,3.3810000000000002,6,1283,123,feet,jsons/VE125_randls_65.json,446066,997986,38,Woman
93,996244,DepthScenes,duration_manipulation_targetAtFixation,jsons/VE125_randls_65.json,http://54.235.29.9/FacialAge/BNav_EC2/DepthDuration/v2_depth_duration_MTurk/v2_DepthDuration_HTML.html#85,85,1536,864,1536,864,8-21-2022,9-41-26,94,depth_duration_stimuli/000854_2014-06-09_19-43-13_260595134347_rgbf000066-resize_0/000854_2014-06-09_19-43-13_260595134347_rgbf000066-resize_0-target.png,125,3.068,3,1175,124,feet,jsons/VE125_randls_65.json,446066,997986,38,Woman
94,996244,DepthScenes,duration_manipulation_targetAtFixation,jsons/VE125_randls_65.json,http://54.235.29.9/FacialAge/BNav_EC2/DepthDuration/v2_depth_duration_MTurk/v2_DepthDuration_HTML.html#85,85,1536,864,1536,864,8-21-2022,9-41-26,95,depth_duration_stimuli/001133_2014-06-17_14-49-16_260595134347_rgbf000100-resize_0/001133_2014-06-17_14-49-16_260595134347_rgbf000100-resize_0-target.png,125,4.2115,6,2801,123,feet,jsons/VE125_randls_65.json,446066,997986,38,Woman
95,996244,DepthScenes,duration_manipulation_targetAtFixation,jsons/VE125_randls_65.json,http://54.235.29.9/FacialAge/BNav_EC2/DepthDuration/v2_depth_duration_MTurk/v2_DepthDuration_HTML.html#85,85,1536,864,1536,864,8-21-2022,9-41-26,96,depth_duration_stimuli/001132_2014-06-17_14-48-54_260595134347_rgbf000100-resize_2/001132_2014-06-17_14-48-54_260595134347_rgbf000100-resize_2-target.png,125,3.753,7,1601,136,feet,jsons/VE125_randls_65.json,446066,997986,38,Woman
96,996244,DepthScenes,duration_manipulation_targetAtFixation,jsons/VE125_randls_65.json,http://54.235.29.9/FacialAge/BNav_EC2/DepthDuration/v2_depth_duration_MTurk/v2_DepthDuration_HTML.html#85,85,1536,864,1536,864,8-21-2022,9-41-26,97,depth_duration_stimuli/000878_2014-06-08_22-52-45_260595134347_rgbf000045-resize_2/000878_2014-06-08_22-52-45_260595134347_rgbf000045-resize_2-target.png,125,2.092,8,1399,132,feet,jsons/VE125_randls_65.json,446066,997986,38,Woman
97,996244,DepthScenes,duration_manipulation_targetAtFixation,jsons/VE125_randls_65.json,http://54.235.29.9/FacialAge/BNav_EC2/DepthDuration/v2_depth_duration_MTurk/v2_DepthDuration_HTML.html#85,85,1536,864,1536,864,8-21-2022,9-41-26,98,depth_duration_stimuli/002953_2014-06-08_17-32-18_094959634447_rgbf000059-resize_5/002953_2014-06-08_17-32-18_094959634447_rgbf000059-resize_5-target.png,125,1.551,2,1356,127,feet,jsons/VE125_randls_65.json,446066,997986,38,Woman
98,996244,DepthScenes,duration_manipulation_targetAtFixation,jsons/VE125_randls_65.json,http://54.235.29.9/FacialAge/BNav_EC2/DepthDuration/v2_depth_duration_MTurk/v2_DepthDuration_HTML.html#85,85,1536,864,1536,864,8-21-2022,9-41-26,99,depth_duration_stimuli/001540_2014-06-20_17-01-05_260595134347_rgbf000086-resize_2/001540_2014-06-20_17-01-05_260595134347_rgbf000086-resize-original.jpg,125,1.459,0,2016,126,feet,jsons/VE125_randls_65.json,446066,997986,38,Woman
99,996244,DepthScenes,duration_manipulation_targetAtFixation,jsons/VE125_randls_65.json,http://54.235.29.9/FacialAge/BNav_EC2/DepthDuration/v2_depth_duration_MTurk/v2_DepthDuration_HTML.html#85,85,1536,864,1536,864,8-21-2022,9-41-26,100,depth_duration_stimuli/000810_2014-06-08_17-20-01_260595134347_rgbf000105-resize_0/000810_2014-06-08_17-20-01_260595134347_rgbf000105-resize_0-target.png,125,1.4865,3,1360,120,feet,jsons/VE125_randls_65.json,446066,997986,38,Woman
100,996244,DepthScenes,duration_manipulation_targetAtFixation,jsons/VE125_randls_65.json,http://54.235.29.9/FacialAge/BNav_EC2/DepthDuration/v2_depth_duration_MTurk/v2_DepthDuration_HTML.html#85,85,1536,864,1536,864,8-21-2022,9-41-26,101,depth_duration_stimuli/001214_2014-06-17_16-13-55_260595134347_rgbf000111-resize_0/001214_2014-06-17_16-13-55_260595134347_rgbf000111-resize_0-target.png,125,2.6505,3,1584,109,feet,jsons/VE125_randls_65.json,446066,997986,38,Woman
101,996244,DepthScenes,duration_manipulation_targetAtFixation,jsons/VE125_randls_65.json,http://54.235.29.9/FacialAge/BNav_EC2/DepthDuration/v2_depth_duration_MTurk/v2_DepthDuration_HTML.html#85,85,1536,864,1536,864,8-21-2022,9-41-26,102,depth_duration_stimuli/001059_2014-06-08_21-53-27_260595134347_rgbf000061-resize_4/001059_2014-06-08_21-53-27_260595134347_rgbf000061-resize_4-target.png,125,2.4185,4,1491,116,feet,jsons/VE125_randls_65.json,446066,997986,38,Woman
102,996244,DepthScenes,duration_manipulation_targetAtFixation,jsons/VE125_randls_65.json,http://54.235.29.9/FacialAge/BNav_EC2/DepthDuration/v2_depth_duration_MTurk/v2_DepthDuration_HTML.html#85,85,1536,864,1536,864,8-21-2022,9-41-26,103,depth_duration_stimuli/001032_2014-06-08_13-23-17_260595134347_rgbf000021-resize_3/001032_2014-06-08_13-23-17_260595134347_rgbf000021-resize_3-target.png,125,3.2725,4,1496,118,feet,jsons/VE125_randls_65.json,446066,997986,38,Woman
103,996244,DepthScenes,duration_manipulation_targetAtFixation,jsons/VE125_randls_65.json,http://54.235.29.9/FacialAge/BNav_EC2/DepthDuration/v2_depth_duration_MTurk/v2_DepthDuration_HTML.html#85,85,1536,864,1536,864,8-21-2022,9-41-26,104,depth_duration_stimuli/000906_2014-06-08_13-35-43_260595134347_rgbf000155-resize_1/000906_2014-06-08_13-35-43_260595134347_rgbf000155-resize_1-target.png,125,2.8489999999999998,5,1432,137,feet,jsons/VE125_randls_65.json,446066,997986,38,Woman
104,996244,DepthScenes,duration_manipulation_targetAtFixation,jsons/VE125_randls_65.json,http://54.235.29.9/FacialAge/BNav_EC2/DepthDuration/v2_depth_duration_MTurk/v2_DepthDuration_HTML.html#85,85,1536,864,1536,864,8-21-2022,9-41-26,105,depth_duration_stimuli/002805_2014-06-22_19-54-03_094959634447_rgbf000079-resize_1/002805_2014-06-22_19-54-03_094959634447_rgbf000079-resize_1-target.png,125,3.1439999999999997,6,1396,127,feet,jsons/VE125_randls_65.json,446066,997986,38,Woman
105,996244,DepthScenes,duration_manipulation_targetAtFixation,jsons/VE125_randls_65.json,http://54.235.29.9/FacialAge/BNav_EC2/DepthDuration/v2_depth_duration_MTurk/v2_DepthDuration_HTML.html#85,85,1536,864,1536,864,8-21-2022,9-41-26,106,depth_duration_stimuli/001806_2014-06-26_20-50-20_260595134347_rgbf000091-resize_1/001806_2014-06-26_20-50-20_260595134347_rgbf000091-resize_1-target.png,125,2.7305,2,1502,122,feet,jsons/VE125_randls_65.json,446066,997986,38,Woman
106,996244,DepthScenes,duration_manipulation_targetAtFixation,jsons/VE125_randls_65.json,http://54.235.29.9/FacialAge/BNav_EC2/DepthDuration/v2_depth_duration_MTurk/v2_DepthDuration_HTML.html#85,85,1536,864,1536,864,8-21-2022,9-41-26,107,depth_duration_stimuli/001617_2014-06-20_11-35-32_260595134347_rgbf000066-resize_1/001617_2014-06-20_11-35-32_260595134347_rgbf000066-resize_1-target.png,125,3.7910000000000004,5,1381,126,feet,jsons/VE125_randls_65.json,446066,997986,38,Woman
107,996244,DepthScenes,duration_manipulation_targetAtFixation,jsons/VE125_randls_65.json,http://54.235.29.9/FacialAge/BNav_EC2/DepthDuration/v2_depth_duration_MTurk/v2_DepthDuration_HTML.html#85,85,1536,864,1536,864,8-21-2022,9-41-26,108,depth_duration_stimuli/003621_2014-05-23_18-06-08_094959634447_rgbf000101-resize_1/003621_2014-05-23_18-06-08_094959634447_rgbf000101-resize_1-target.png,125,3.9835,7,1569,116,feet,jsons/VE125_randls_65.json,446066,997986,38,Woman
108,996244,DepthScenes,duration_manipulation_targetAtFixation,jsons/VE125_randls_65.json,http://54.235.29.9/FacialAge/BNav_EC2/DepthDuration/v2_depth_duration_MTurk/v2_DepthDuration_HTML.html#85,85,1536,864,1536,864,8-21-2022,9-41-26,109,depth_duration_stimuli/001584_2014-06-20_11-07-43_260595134347_rgbf000002-resize_1/001584_2014-06-20_11-07-43_260595134347_rgbf000002-resize_1-target.png,125,3.53,5,1477,122,feet,jsons/VE125_randls_65.json,446066,997986,38,Woman
109,996244,DepthScenes,duration_manipulation_targetAtFixation,jsons/VE125_randls_65.json,http://54.235.29.9/FacialAge/BNav_EC2/DepthDuration/v2_depth_duration_MTurk/v2_DepthDuration_HTML.html#85,85,1536,864,1536,864,8-21-2022,9-41-26,110,depth_duration_stimuli/000447_2014-06-08_16-15-46_260595134347_rgbf000130-resize_1/000447_2014-06-08_16-15-46_260595134347_rgbf000130-resize_1-target.png,125,4.479,9,1541,122,feet,jsons/VE125_randls_65.json,446066,997986,38,Woman
110,996244,DepthScenes,duration_manipulation_targetAtFixation,jsons/VE125_randls_65.json,http://54.235.29.9/FacialAge/BNav_EC2/DepthDuration/v2_depth_duration_MTurk/v2_DepthDuration_HTML.html#85,85,1536,864,1536,864,8-21-2022,9-41-26,111,depth_duration_stimuli/001447_2014-06-19_17-00-32_260595134347_rgbf000082-resize_5/001447_2014-06-19_17-00-32_260595134347_rgbf000082-resize_5-target.png,125,4.13775,5,1593,125,feet,jsons/VE125_randls_65.json,446066,997986,38,Woman
111,996244,DepthScenes,duration_manipulation_targetAtFixation,jsons/VE125_randls_65.json,http://54.235.29.9/FacialAge/BNav_EC2/DepthDuration/v2_depth_duration_MTurk/v2_DepthDuration_HTML.html#85,85,1536,864,1536,864,8-21-2022,9-41-26,112,depth_duration_stimuli/002988_2014-06-15_12-24-20_094959634447_rgbf000150-resize_1/002988_2014-06-15_12-24-20_094959634447_rgbf000150-resize_1-target.png,125,4.7669999999999995,5,1755,116,feet,jsons/VE125_randls_65.json,446066,997986,38,Woman
112,996244,DepthScenes,duration_manipulation_targetAtFixation,jsons/VE125_randls_65.json,http://54.235.29.9/FacialAge/BNav_EC2/DepthDuration/v2_depth_duration_MTurk/v2_DepthDuration_HTML.html#85,85,1536,864,1536,864,8-21-2022,9-41-26,113,depth_duration_stimuli/001052_2014-06-08_18-24-54_260595134347_rgbf000130-resize_1/001052_2014-06-08_18-24-54_260595134347_rgbf000130-resize_1-target.png,125,4.1045,9,1765,118,feet,jsons/VE125_randls_65.json,446066,997986,38,Woman
113,996244,DepthScenes,duration_manipulation_targetAtFixation,jsons/VE125_randls_65.json,http://54.235.29.9/FacialAge/BNav_EC2/DepthDuration/v2_depth_duration_MTurk/v2_DepthDuration_HTML.html#85,85,1536,864,1536,864,8-21-2022,9-41-26,114,depth_duration_stimuli/001158_2014-06-17_15-32-16_260595134347_rgbf000138-resize_2/001158_2014-06-17_15-32-16_260595134347_rgbf000138-resize_2-target.png,125,4.5315,6,1365,124,feet,jsons/VE125_randls_65.json,446066,997986,38,Woman
114,996244,DepthScenes,duration_manipulation_targetAtFixation,jsons/VE125_randls_65.json,http://54.235.29.9/FacialAge/BNav_EC2/DepthDuration/v2_depth_duration_MTurk/v2_DepthDuration_HTML.html#85,85,1536,864,1536,864,8-21-2022,9-41-26,115,depth_duration_stimuli/000556_2014-06-09_22-42-56_260595134347_rgbf000214-resize_1/000556_2014-06-09_22-42-56_260595134347_rgbf000214-resize_1-target.png,125,4.8415,6,1491,119,feet,jsons/VE125_randls_65.json,446066,997986,38,Woman
115,996244,DepthScenes,duration_manipulation_targetAtFixation,jsons/VE125_randls_65.json,http://54.235.29.9/FacialAge/BNav_EC2/DepthDuration/v2_depth_duration_MTurk/v2_DepthDuration_HTML.html#85,85,1536,864,1536,864,8-21-2022,9-41-26,116,depth_duration_stimuli/001170_2014-06-17_15-43-44_260595134347_rgbf000096-resize_6/001170_2014-06-17_15-43-44_260595134347_rgbf000096-resize-original.jpg,125,1.1909999999999998,0,2160,123,feet,jsons/VE125_randls_65.json,446066,997986,38,Woman
116,996244,DepthScenes,duration_manipulation_targetAtFixation,jsons/VE125_randls_65.json,http://54.235.29.9/FacialAge/BNav_EC2/DepthDuration/v2_depth_duration_MTurk/v2_DepthDuration_HTML.html#85,85,1536,864,1536,864,8-21-2022,9-41-26,117,depth_duration_stimuli/000773_2014-06-08_22-24-54_260595134347_rgbf000093-resize_1/000773_2014-06-08_22-24-54_260595134347_rgbf000093-resize_1-target.png,125,4.973,4,5731,124,feet,jsons/VE125_randls_65.json,446066,997986,38,Woman
117,996244,DepthScenes,duration_manipulation_targetAtFixation,jsons/VE125_randls_65.json,http://54.235.29.9/FacialAge/BNav_EC2/DepthDuration/v2_depth_duration_MTurk/v2_DepthDuration_HTML.html#85,85,1536,864,1536,864,8-21-2022,9-41-26,118,depth_duration_stimuli/002414_2014-06-28_20-24-58_260595134347_rgbf000067-resize_4/002414_2014-06-28_20-24-58_260595134347_rgbf000067-resize_4-target.png,125,4.363,5,1903,123,feet,jsons/VE125_randls_65.json,446066,997986,38,Woman
118,996244,DepthScenes,duration_manipulation_targetAtFixation,jsons/VE125_randls_65.json,http://54.235.29.9/FacialAge/BNav_EC2/DepthDuration/v2_depth_duration_MTurk/v2_DepthDuration_HTML.html#85,85,1536,864,1536,864,8-21-2022,9-41-26,119,depth_duration_stimuli/003534_2014-05-22_15-06-10_094959634447_rgbf000102-resize_4/003534_2014-05-22_15-06-10_094959634447_rgbf000102-resize_4-target.png,125,1.426,1,3384,127,feet,jsons/VE125_randls_65.json,446066,997986,38,Woman
119,996244,DepthScenes,duration_manipulation_targetAtFixation,jsons/VE125_randls_65.json,http://54.235.29.9/FacialAge/BNav_EC2/DepthDuration/v2_depth_duration_MTurk/v2_DepthDuration_HTML.html#85,85,1536,864,1536,864,8-21-2022,9-41-26,120,depth_duration_stimuli/002637_2014-06-24_14-51-13_094959634447_rgbf000066-resize_4/002637_2014-06-24_14-51-13_094959634447_rgbf000066-resize_4-target.png,125,1.9955,2,1514,128,feet,jsons/VE125_randls_65.json,446066,997986,38,Woman
120,996244,DepthScenes,duration_manipulation_targetAtFixation,jsons/VE125_randls_65.json,http://54.235.29.9/FacialAge/BNav_EC2/DepthDuration/v2_depth_duration_MTurk/v2_DepthDuration_HTML.html#85,85,1536,864,1536,864,8-21-2022,9-41-26,121,depth_duration_stimuli/002630_2014-06-24_14-47-50_094959634447_rgbf000055-resize_1/002630_2014-06-24_14-47-50_094959634447_rgbf000055-resize_1-target.png,125,3.0095,6,1639,128,feet,jsons/VE125_randls_65.json,446066,997986,38,Woman
121,996244,DepthScenes,duration_manipulation_targetAtFixation,jsons/VE125_randls_65.json,http://54.235.29.9/FacialAge/BNav_EC2/DepthDuration/v2_depth_duration_MTurk/v2_DepthDuration_HTML.html#85,85,1536,864,1536,864,8-21-2022,9-41-26,122,depth_duration_stimuli/002758_2014-06-22_19-11-20_094959634447_rgbf000128-resize_1/002758_2014-06-22_19-11-20_094959634447_rgbf000128-resize_1-target.png,125,2.555,3,3576,131,feet,jsons/VE125_randls_65.json,446066,997986,38,Woman
122,996244,DepthScenes,duration_manipulation_targetAtFixation,jsons/VE125_randls_65.json,http://54.235.29.9/FacialAge/BNav_EC2/DepthDuration/v2_depth_duration_MTurk/v2_DepthDuration_HTML.html#85,85,1536,864,1536,864,8-21-2022,9-41-26,123,depth_duration_stimuli/002118_2014-06-25_20-32-08_260595134347_rgbf000078-resize_1/002118_2014-06-25_20-32-08_260595134347_rgbf000078-resize_1-target.png,125,2.6460000000000004,3,1603,122,feet,jsons/VE125_randls_65.json,446066,997986,38,Woman
123,996244,DepthScenes,duration_manipulation_targetAtFixation,jsons/VE125_randls_65.json,http://54.235.29.9/FacialAge/BNav_EC2/DepthDuration/v2_depth_duration_MTurk/v2_DepthDuration_HTML.html#85,85,1536,864,1536,864,8-21-2022,9-41-26,124,depth_duration_stimuli/001516_2014-06-20_16-25-09_260595134347_rgbf000076-resize_2/001516_2014-06-20_16-25-09_260595134347_rgbf000076-resize_2-target.png,125,1.7445,3,1421,126,feet,jsons/VE125_randls_65.json,446066,997986,38,Woman
124,996244,DepthScenes,duration_manipulation_targetAtFixation,jsons/VE125_randls_65.json,http://54.235.29.9/FacialAge/BNav_EC2/DepthDuration/v2_depth_duration_MTurk/v2_DepthDuration_HTML.html#85,85,1536,864,1536,864,8-21-2022,9-41-26,125,depth_duration_stimuli/000739_2014-06-08_18-45-58_260595134347_rgbf000068-resize_1/000739_2014-06-08_18-45-58_260595134347_rgbf000068-resize_1-target.png,125,3.534,6,1419,136,feet,jsons/VE125_randls_65.json,446066,997986,38,Woman
125,996244,DepthScenes,duration_manipulation_targetAtFixation,jsons/VE125_randls_65.json,http://54.235.29.9/FacialAge/BNav_EC2/DepthDuration/v2_depth_duration_MTurk/v2_DepthDuration_HTML.html#85,85,1536,864,1536,864,8-21-2022,9-41-26,126,depth_duration_stimuli/000734_2014-06-08_17-39-11_260595134347_rgbf000128-resize_2/000734_2014-06-08_17-39-11_260595134347_rgbf000128-resize_2-target.png,125,4.098,3,1337,134,feet,jsons/VE125_randls_65.json,446066,997986,38,Woman
126,996244,DepthScenes,duration_manipulation_targetAtFixation,jsons/VE125_randls_65.json,http://54.235.29.9/FacialAge/BNav_EC2/DepthDuration/v2_depth_duration_MTurk/v2_DepthDuration_HTML.html#85,85,1536,864,1536,864,8-21-2022,9-41-26,127,depth_duration_stimuli/000692_2014-06-08_13-09-42_260595134347_rgbf000199-resize_2/000692_2014-06-08_13-09-42_260595134347_rgbf000199-resize_2-target.png,125,3.661,5,1485,126,feet,jsons/VE125_randls_65.json,446066,997986,38,Woman
127,996244,DepthScenes,duration_manipulation_targetAtFixation,jsons/VE125_randls_65.json,http://54.235.29.9/FacialAge/BNav_EC2/DepthDuration/v2_depth_duration_MTurk/v2_DepthDuration_HTML.html#85,85,1536,864,1536,864,8-21-2022,9-41-26,128,depth_duration_stimuli/001094_2014-06-15_17-36-00_260595134347_rgbf000205-resize_0/001094_2014-06-15_17-36-00_260595134347_rgbf000205-resize_0-target.png,125,4.2175,7,1392,125,feet,jsons/VE125_randls_65.json,446066,997986,38,Woman
128,996244,DepthScenes,duration_manipulation_targetAtFixation,jsons/VE125_randls_65.json,http://54.235.29.9/FacialAge/BNav_EC2/DepthDuration/v2_depth_duration_MTurk/v2_DepthDuration_HTML.html#85,85,1536,864,1536,864,8-21-2022,9-41-26,129,depth_duration_stimuli/000436_2014-06-09_22-25-11_260595134347_rgbf000137-resize_1/000436_2014-06-09_22-25-11_260595134347_rgbf000137-resize_1-target.png,125,4.0705,7,1382,124,feet,jsons/VE125_randls_65.json,446066,997986,38,Woman
129,996244,DepthScenes,duration_manipulation_targetAtFixation,jsons/VE125_randls_65.json,http://54.235.29.9/FacialAge/BNav_EC2/DepthDuration/v2_depth_duration_MTurk/v2_DepthDuration_HTML.html#85,85,1536,864,1536,864,8-21-2022,9-41-26,130,depth_duration_stimuli/002444_2014-06-28_20-32-08_260595134347_rgbf000027-resize_0/002444_2014-06-28_20-32-08_260595134347_rgbf000027-resize_0-target.png,125,4.388999999999999,8,3906,123,feet,jsons/VE125_randls_65.json,446066,997986,38,Woman
130,996244,DepthScenes,duration_manipulation_targetAtFixation,jsons/VE125_randls_65.json,http://54.235.29.9/FacialAge/BNav_EC2/DepthDuration/v2_depth_duration_MTurk/v2_DepthDuration_HTML.html#85,85,1536,864,1536,864,8-21-2022,9-41-26,131,depth_duration_stimuli/000486_2014-06-09_20-47-20_260595134347_rgbf000143-resize_2/000486_2014-06-09_20-47-20_260595134347_rgbf000143-resize_2-target.png,125,4.8325,6,2195,122,feet,jsons/VE125_randls_65.json,446066,997986,38,Woman
131,996244,DepthScenes,duration_manipulation_targetAtFixation,jsons/VE125_randls_65.json,http://54.235.29.9/FacialAge/BNav_EC2/DepthDuration/v2_depth_duration_MTurk/v2_DepthDuration_HTML.html#85,85,1536,864,1536,864,8-21-2022,9-41-26,132,depth_duration_stimuli/003083_2014-06-15_15-21-03_094959634447_rgbf000063-resize_1/003083_2014-06-15_15-21-03_094959634447_rgbf000063-resize_1-target.png,125,4.1405,8,2159,124,feet,jsons/VE125_randls_65.json,446066,997986,38,Woman
132,996244,DepthScenes,duration_manipulation_targetAtFixation,jsons/VE125_randls_65.json,http://54.235.29.9/FacialAge/BNav_EC2/DepthDuration/v2_depth_duration_MTurk/v2_DepthDuration_HTML.html#85,85,1536,864,1536,864,8-21-2022,9-41-26,133,depth_duration_stimuli/002549_2014-06-24_13-41-39_094959634447_rgbf000022-resize_3/002549_2014-06-24_13-41-39_094959634447_rgbf000022-resize_3-target.png,125,1.476,2,2859,125,feet,jsons/VE125_randls_65.json,446066,997986,38,Woman
133,996244,DepthScenes,duration_manipulation_targetAtFixation,jsons/VE125_randls_65.json,http://54.235.29.9/FacialAge/BNav_EC2/DepthDuration/v2_depth_duration_MTurk/v2_DepthDuration_HTML.html#85,85,1536,864,1536,864,8-21-2022,9-41-26,134,depth_duration_stimuli/002750_2014-06-22_19-08-03_094959634447_rgbf000094-resize_4/002750_2014-06-22_19-08-03_094959634447_rgbf000094-resize_4-target.png,125,2.354,4,3950,118,feet,jsons/VE125_randls_65.json,446066,997986,38,Woman
134,996244,DepthScenes,duration_manipulation_targetAtFixation,jsons/VE125_randls_65.json,http://54.235.29.9/FacialAge/BNav_EC2/DepthDuration/v2_depth_duration_MTurk/v2_DepthDuration_HTML.html#85,85,1536,864,1536,864,8-21-2022,9-41-26,135,depth_duration_stimuli/002072_2014-06-24_21-48-06_260595134347_rgbf000115-resize_0/002072_2014-06-24_21-48-06_260595134347_rgbf000115-resize-original.jpg,125,4.702,0,3211,126,feet,jsons/VE125_randls_65.json,446066,997986,38,Woman
135,996244,DepthScenes,duration_manipulation_targetAtFixation,jsons/VE125_randls_65.json,http://54.235.29.9/FacialAge/BNav_EC2/DepthDuration/v2_depth_duration_MTurk/v2_DepthDuration_HTML.html#85,85,1536,864,1536,864,8-21-2022,9-41-26,136,depth_duration_stimuli/002989_2014-06-15_12-25-03_094959634447_rgbf000150-resize_3/002989_2014-06-15_12-25-03_094959634447_rgbf000150-resize_3-target.png,125,4.1975,7,3982,125,feet,jsons/VE125_randls_65.json,446066,997986,38,Woman
136,996244,DepthScenes,duration_manipulation_targetAtFixation,jsons/VE125_randls_65.json,http://54.235.29.9/FacialAge/BNav_EC2/DepthDuration/v2_depth_duration_MTurk/v2_DepthDuration_HTML.html#85,85,1536,864,1536,864,8-21-2022,9-41-26,137,depth_duration_stimuli/000866_2014-06-09_20-45-42_260595134347_rgbf000139-resize_1/000866_2014-06-09_20-45-42_260595134347_rgbf000139-resize_1-target.png,125,3.2155,3,5969,99,feet,jsons/VE125_randls_65.json,446066,997986,38,Woman
137,996244,DepthScenes,duration_manipulation_targetAtFixation,jsons/VE125_randls_65.json,http://54.235.29.9/FacialAge/BNav_EC2/DepthDuration/v2_depth_duration_MTurk/v2_DepthDuration_HTML.html#85,85,1536,864,1536,864,8-21-2022,9-41-26,138,depth_duration_stimuli/000788_2014-06-08_22-34-36_260595134347_rgbf000131-resize_1/000788_2014-06-08_22-34-36_260595134347_rgbf000131-resize_1-target.png,125,3.359,4,2043,116,feet,jsons/VE125_randls_65.json,446066,997986,38,Woman
138,996244,DepthScenes,duration_manipulation_targetAtFixation,jsons/VE125_randls_65.json,http://54.235.29.9/FacialAge/BNav_EC2/DepthDuration/v2_depth_duration_MTurk/v2_DepthDuration_HTML.html#85,85,1536,864,1536,864,8-21-2022,9-41-26,139,depth_duration_stimuli/001235_2014-06-17_16-37-36_260595134347_rgbf000084-resize_4/001235_2014-06-17_16-37-36_260595134347_rgbf000084-resize_4-target.png,125,3.6605,3,3095,122,feet,jsons/VE125_randls_65.json,446066,997986,38,Woman
139,996244,DepthScenes,duration_manipulation_targetAtFixation,jsons/VE125_randls_65.json,http://54.235.29.9/FacialAge/BNav_EC2/DepthDuration/v2_depth_duration_MTurk/v2_DepthDuration_HTML.html#85,85,1536,864,1536,864,8-21-2022,9-41-26,140,depth_duration_stimuli/002445_2014-06-28_20-32-16_260595134347_rgbf000029-resize_4/002445_2014-06-28_20-32-16_260595134347_rgbf000029-resize_4-target.png,125,2.5315,3,1638,125,feet,jsons/VE125_randls_65.json,446066,997986,38,Woman
140,996244,DepthScenes,duration_manipulation_targetAtFixation,jsons/VE125_randls_65.json,http://54.235.29.9/FacialAge/BNav_EC2/DepthDuration/v2_depth_duration_MTurk/v2_DepthDuration_HTML.html#85,85,1536,864,1536,864,8-21-2022,9-41-26,141,depth_duration_stimuli/000780_2014-06-08_22-28-29_260595134347_rgbf000126-resize_1/000780_2014-06-08_22-28-29_260595134347_rgbf000126-resize_1-target.png,125,3.3825,5,1554,134,feet,jsons/VE125_randls_65.json,446066,997986,38,Woman
141,996244,DepthScenes,duration_manipulation_targetAtFixation,jsons/VE125_randls_65.json,http://54.235.29.9/FacialAge/BNav_EC2/DepthDuration/v2_depth_duration_MTurk/v2_DepthDuration_HTML.html#85,85,1536,864,1536,864,8-21-2022,9-41-26,142,depth_duration_stimuli/002905_2014-06-03_18-04-43_094959634447_rgbf000151-resize_2/002905_2014-06-03_18-04-43_094959634447_rgbf000151-resize_2-target.png,125,2.0295,5,3195,121,feet,jsons/VE125_randls_65.json,446066,997986,38,Woman
142,996244,DepthScenes,duration_manipulation_targetAtFixation,jsons/VE125_randls_65.json,http://54.235.29.9/FacialAge/BNav_EC2/DepthDuration/v2_depth_duration_MTurk/v2_DepthDuration_HTML.html#85,85,1536,864,1536,864,8-21-2022,9-41-26,143,depth_duration_stimuli/003423_2014-05-21_10-23-26_094959634447_rgbf002665-resize_2/003423_2014-05-21_10-23-26_094959634447_rgbf002665-resize_2-target.png,125,3.2575,9,3209,118,feet,jsons/VE125_randls_65.json,446066,997986,38,Woman
143,996244,DepthScenes,duration_manipulation_targetAtFixation,jsons/VE125_randls_65.json,http://54.235.29.9/FacialAge/BNav_EC2/DepthDuration/v2_depth_duration_MTurk/v2_DepthDuration_HTML.html#85,85,1536,864,1536,864,8-21-2022,9-41-26,144,depth_duration_stimuli/000469_2014-06-09_19-42-10_260595134347_rgbf000081-resize_1/000469_2014-06-09_19-42-10_260595134347_rgbf000081-resize_1-target.png,125,1.652,3,1780,122,feet,jsons/VE125_randls_65.json,446066,997986,38,Woman
144,996244,DepthScenes,duration_manipulation_targetAtFixation,jsons/VE125_randls_65.json,http://54.235.29.9/FacialAge/BNav_EC2/DepthDuration/v2_depth_duration_MTurk/v2_DepthDuration_HTML.html#85,85,1536,864,1536,864,8-21-2022,9-41-26,145,depth_duration_stimuli/000483_2014-06-09_20-41-45_260595134347_rgbf000116-resize_4/000483_2014-06-09_20-41-45_260595134347_rgbf000116-resize_4-target.png,125,1.337,3,3708,135,feet,jsons/VE125_randls_65.json,446066,997986,38,Woman
145,996244,DepthScenes,duration_manipulation_targetAtFixation,jsons/VE125_randls_65.json,http://54.235.29.9/FacialAge/BNav_EC2/DepthDuration/v2_depth_duration_MTurk/v2_DepthDuration_HTML.html#85,85,1536,864,1536,864,8-21-2022,9-41-26,146,depth_duration_stimuli/001498_2014-06-19_17-45-14_260595134347_rgbf000129-resize_4/001498_2014-06-19_17-45-14_260595134347_rgbf000129-resize-original.jpg,125,1.4075,0,2108,117,feet,jsons/VE125_randls_65.json,446066,997986,38,Woman
146,996244,DepthScenes,duration_manipulation_targetAtFixation,jsons/VE125_randls_65.json,http://54.235.29.9/FacialAge/BNav_EC2/DepthDuration/v2_depth_duration_MTurk/v2_DepthDuration_HTML.html#85,85,1536,864,1536,864,8-21-2022,9-41-26,147,depth_duration_stimuli/001110_2014-06-15_17-25-28_260595134347_rgbf000150-resize_1/001110_2014-06-15_17-25-28_260595134347_rgbf000150-resize_1-target.png,125,1.7115,2,1689,137,feet,jsons/VE125_randls_65.json,446066,997986,38,Woman
147,996244,DepthScenes,duration_manipulation_targetAtFixation,jsons/VE125_randls_65.json,http://54.235.29.9/FacialAge/BNav_EC2/DepthDuration/v2_depth_duration_MTurk/v2_DepthDuration_HTML.html#85,85,1536,864,1536,864,8-21-2022,9-41-26,148,depth_duration_stimuli/000927_2014-06-09_16-32-30_260595134347_rgbf000123-resize_3/000927_2014-06-09_16-32-30_260595134347_rgbf000123-resize_3-target.png,125,2.6785,5,1678,122,feet,jsons/VE125_randls_65.json,446066,997986,38,Woman
148,996244,DepthScenes,duration_manipulation_targetAtFixation,jsons/VE125_randls_65.json,http://54.235.29.9/FacialAge/BNav_EC2/DepthDuration/v2_depth_duration_MTurk/v2_DepthDuration_HTML.html#85,85,1536,864,1536,864,8-21-2022,9-41-26,149,depth_duration_stimuli/000470_2014-06-09_19-42-40_260595134347_rgbf000094-resize_1/000470_2014-06-09_19-42-40_260595134347_rgbf000094-resize_1-target.png,125,1.831,3,2668,123,feet,jsons/VE125_randls_65.json,446066,997986,38,Woman
149,996244,DepthScenes,duration_manipulation_targetAtFixation,jsons/VE125_randls_65.json,http://54.235.29.9/FacialAge/BNav_EC2/DepthDuration/v2_depth_duration_MTurk/v2_DepthDuration_HTML.html#85,85,1536,864,1536,864,8-21-2022,9-41-26,150,depth_duration_stimuli/000109_2014-05-14_23-41-52_260595134347_rgbf000035-resize_9/000109_2014-05-14_23-41-52_260595134347_rgbf000035-resize_9-target.png,125,1.3545,3,2544,164,feet,jsons/VE125_randls_65.json,446066,997986,38,Woman
150,996244,DepthScenes,duration_manipulation_targetAtFixation,jsons/VE125_randls_65.json,http://54.235.29.9/FacialAge/BNav_EC2/DepthDuration/v2_depth_duration_MTurk/v2_DepthDuration_HTML.html#85,85,1536,864,1536,864,8-21-2022,9-41-26,151,depth_duration_stimuli/001808_2014-06-26_20-50-58_260595134347_rgbf000029-resize_1/001808_2014-06-26_20-50-58_260595134347_rgbf000029-resize_1-target.png,125,4.249,9,1592,155,feet,jsons/VE125_randls_65.json,446066,997986,38,Woman
151,996244,DepthScenes,duration_manipulation_targetAtFixation,jsons/VE125_randls_65.json,http://54.235.29.9/FacialAge/BNav_EC2/DepthDuration/v2_depth_duration_MTurk/v2_DepthDuration_HTML.html#85,85,1536,864,1536,864,8-21-2022,9-41-26,152,depth_duration_stimuli/001815_2014-06-26_20-52-55_260595134347_rgbf000020-resize_0/001815_2014-06-26_20-52-55_260595134347_rgbf000020-resize_0-target.png,125,3.3865,10,1721,121,feet,jsons/VE125_randls_65.json,446066,997986,38,Woman
152,996244,DepthScenes,duration_manipulation_targetAtFixation,jsons/VE125_randls_65.json,http://54.235.29.9/FacialAge/BNav_EC2/DepthDuration/v2_depth_duration_MTurk/v2_DepthDuration_HTML.html#85,85,1536,864,1536,864,8-21-2022,9-41-26,153,depth_duration_stimuli/002763_2014-06-22_19-13-10_094959634447_rgbf000075-resize_4/002763_2014-06-22_19-13-10_094959634447_rgbf000075-resize_4-target.png,125,1.68375,5,1758,130,feet,jsons/VE125_randls_65.json,446066,997986,38,Woman
153,996244,DepthScenes,duration_manipulation_targetAtFixation,jsons/VE125_randls_65.json,http://54.235.29.9/FacialAge/BNav_EC2/DepthDuration/v2_depth_duration_MTurk/v2_DepthDuration_HTML.html#85,85,1536,864,1536,864,8-21-2022,9-41-26,154,depth_duration_stimuli/002209_2014-06-28_18-36-10_260595134347_rgbf000051-resize_1/002209_2014-06-28_18-36-10_260595134347_rgbf000051-resize_1-target.png,125,2.057,5,1909,111,feet,jsons/VE125_randls_65.json,446066,997986,38,Woman
154,996244,DepthScenes,duration_manipulation_targetAtFixation,jsons/VE125_randls_65.json,http://54.235.29.9/FacialAge/BNav_EC2/DepthDuration/v2_depth_duration_MTurk/v2_DepthDuration_HTML.html#85,85,1536,864,1536,864,8-21-2022,9-41-26,155,depth_duration_stimuli/002725_2014-06-22_11-47-51_094959634447_rgbf000070-resize_1/002725_2014-06-22_11-47-51_094959634447_rgbf000070-resize_1-target.png,125,2.195,8,1678,126,feet,jsons/VE125_randls_65.json,446066,997986,38,Woman
155,996244,DepthScenes,duration_manipulation_targetAtFixation,jsons/VE125_randls_65.json,http://54.235.29.9/FacialAge/BNav_EC2/DepthDuration/v2_depth_duration_MTurk/v2_DepthDuration_HTML.html#85,85,1536,864,1536,864,8-21-2022,9-41-26,156,depth_duration_stimuli/002344_2014-06-28_20-06-29_260595134347_rgbf000030-resize_1/002344_2014-06-28_20-06-29_260595134347_rgbf000030-resize_1-target.png,125,1.5795,3,1335,118,feet,jsons/VE125_randls_65.json,446066,997986,38,Woman
156,996244,DepthScenes,duration_manipulation_targetAtFixation,jsons/VE125_randls_65.json,http://54.235.29.9/FacialAge/BNav_EC2/DepthDuration/v2_depth_duration_MTurk/v2_DepthDuration_HTML.html#85,85,1536,864,1536,864,8-21-2022,9-41-26,157,depth_duration_stimuli/000682_2014-06-08_23-14-58_260595134347_rgbf000041-resize_5/000682_2014-06-08_23-14-58_260595134347_rgbf000041-resize_5-target.png,125,2.7239999999999998,5,1597,130,feet,jsons/VE125_randls_65.json,446066,997986,38,Woman
157,996244,DepthScenes,duration_manipulation_targetAtFixation,jsons/VE125_randls_65.json,http://54.235.29.9/FacialAge/BNav_EC2/DepthDuration/v2_depth_duration_MTurk/v2_DepthDuration_HTML.html#85,85,1536,864,1536,864,8-21-2022,9-41-26,158,depth_duration_stimuli/001650_2014-06-20_12-09-00_260595134347_rgbf000087-resize_3/001650_2014-06-20_12-09-00_260595134347_rgbf000087-resize_3-target.png,125,1.9505,6,1762,118,feet,jsons/VE125_randls_65.json,446066,997986,38,Woman
158,996244,DepthScenes,duration_manipulation_targetAtFixation,jsons/VE125_randls_65.json,http://54.235.29.9/FacialAge/BNav_EC2/DepthDuration/v2_depth_duration_MTurk/v2_DepthDuration_HTML.html#85,85,1536,864,1536,864,8-21-2022,9-41-26,159,depth_duration_stimuli/000522_2014-06-08_13-35-06_260595134347_rgbf000244-resize_1/000522_2014-06-08_13-35-06_260595134347_rgbf000244-resize_1-target.png,125,2.3715,1,1463,121,feet,jsons/VE125_randls_65.json,446066,997986,38,Woman
159,996244,DepthScenes,duration_manipulation_targetAtFixation,jsons/VE125_randls_65.json,http://54.235.29.9/FacialAge/BNav_EC2/DepthDuration/v2_depth_duration_MTurk/v2_DepthDuration_HTML.html#85,85,1536,864,1536,864,8-21-2022,9-41-26,160,depth_duration_stimuli/002949_2014-06-26_15-57-42_094959634447_rgbf000079-resize_1/002949_2014-06-26_15-57-42_094959634447_rgbf000079-resize_1-target.png,125,1.8915,2,1354,123,feet,jsons/VE125_randls_65.json,446066,997986,38,Woman
160,996244,DepthScenes,duration_manipulation_targetAtFixation,jsons/VE125_randls_65.json,http://54.235.29.9/FacialAge/BNav_EC2/DepthDuration/v2_depth_duration_MTurk/v2_DepthDuration_HTML.html#85,85,1536,864,1536,864,8-21-2022,9-41-26,161,depth_duration_stimuli/002375_2014-06-28_20-13-44_260595134347_rgbf000032-resize_1/002375_2014-06-28_20-13-44_260595134347_rgbf000032-resize_1-target.png,125,4.0175,6,1415,122,feet,jsons/VE125_randls_65.json,446066,997986,38,Woman
161,996244,DepthScenes,duration_manipulation_targetAtFixation,jsons/VE125_randls_65.json,http://54.235.29.9/FacialAge/BNav_EC2/DepthDuration/v2_depth_duration_MTurk/v2_DepthDuration_HTML.html#85,85,1536,864,1536,864,8-21-2022,9-41-26,162,depth_duration_stimuli/002657_2014-06-13_15-29-54_094959634447_rgbf000150-resize_1/002657_2014-06-13_15-29-54_094959634447_rgbf000150-resize_1-target.png,125,4.919,6,1202,119,feet,jsons/VE125_randls_65.json,446066,997986,38,Woman
162,996244,DepthScenes,duration_manipulation_targetAtFixation,jsons/VE125_randls_65.json,http://54.235.29.9/FacialAge/BNav_EC2/DepthDuration/v2_depth_duration_MTurk/v2_DepthDuration_HTML.html#85,85,1536,864,1536,864,8-21-2022,9-41-26,163,depth_duration_stimuli/003492_2014-05-21_15-50-55_094959634447_rgbf000828-resize_1/003492_2014-05-21_15-50-55_094959634447_rgbf000828-resize_1-target.png,125,4.06875,9,1378,125,feet,jsons/VE125_randls_65.json,446066,997986,38,Woman
163,996244,DepthScenes,duration_manipulation_targetAtFixation,jsons/VE125_randls_65.json,http://54.235.29.9/FacialAge/BNav_EC2/DepthDuration/v2_depth_duration_MTurk/v2_DepthDuration_HTML.html#85,85,1536,864,1536,864,8-21-2022,9-41-26,164,depth_duration_stimuli/002568_2014-06-24_13-59-21_094959634447_rgbf000062-resize_4/002568_2014-06-24_13-59-21_094959634447_rgbf000062-resize_4-target.png,125,3.015,9,1293,115,feet,jsons/VE125_randls_65.json,446066,997986,38,Woman
