,subjID,experimentName,versionName,sequenceName,url,selected_row,windowWidth,windowHeight,screenWidth,screenHeight,startDate,startTime,trial,stimulus,duration,actual_depth,depth_estimate,trial_RT,log_sceneDuration,unitSelection,seq_filepath,experimentTime,totalTime,age,gender
0,997583,DepthScenes,duration_manipulation_targetAtFixation,jsons/v1_VE1000_randls_9.json,http://54.235.29.9/FacialAge/BNav_EC2/DepthDuration/v2_depth_duration_MTurk/v2_DepthDuration_HTML.html#357,357,1366,768,1366,768,9-3-2022,10-14-4,1,depth_duration_stimuli/000470_2014-06-09_19-42-40_260595134347_rgbf000094-resize_1/000470_2014-06-09_19-42-40_260595134347_rgbf000094-resize_1-target.png,1000,1.831,3,16159,1000,meters,jsons/v1_VE1000_randls_9.json,1180832,1324576,31,Woman
1,997583,DepthScenes,duration_manipulation_targetAtFixation,jsons/v1_VE1000_randls_9.json,http://54.235.29.9/FacialAge/BNav_EC2/DepthDuration/v2_depth_duration_MTurk/v2_DepthDuration_HTML.html#357,357,1366,768,1366,768,9-3-2022,10-14-4,2,depth_duration_stimuli/000109_2014-05-14_23-41-52_260595134347_rgbf000035-resize_9/000109_2014-05-14_23-41-52_260595134347_rgbf000035-resize_9-target.png,1000,1.3545,2,5468,1002,meters,jsons/v1_VE1000_randls_9.json,1180832,1324576,31,Woman
2,997583,DepthScenes,duration_manipulation_targetAtFixation,jsons/v1_VE1000_randls_9.json,http://54.235.29.9/FacialAge/BNav_EC2/DepthDuration/v2_depth_duration_MTurk/v2_DepthDuration_HTML.html#357,357,1366,768,1366,768,9-3-2022,10-14-4,3,depth_duration_stimuli/000758_2014-06-08_22-05-08_260595134347_rgbf000085-resize_0/000758_2014-06-08_22-05-08_260595134347_rgbf000085-resize_0-target.png,1000,3.3810000000000002,3,11024,1001,meters,jsons/v1_VE1000_randls_9.json,1180832,1324576,31,Woman
3,997583,DepthScenes,duration_manipulation_targetAtFixation,jsons/v1_VE1000_randls_9.json,http://54.235.29.9/FacialAge/BNav_EC2/DepthDuration/v2_depth_duration_MTurk/v2_DepthDuration_HTML.html#357,357,1366,768,1366,768,9-3-2022,10-14-4,4,depth_duration_stimuli/000854_2014-06-09_19-43-13_260595134347_rgbf000066-resize_0/000854_2014-06-09_19-43-13_260595134347_rgbf000066-resize_0-target.png,1000,3.068,4,4805,1000,meters,jsons/v1_VE1000_randls_9.json,1180832,1324576,31,Woman
4,997583,DepthScenes,duration_manipulation_targetAtFixation,jsons/v1_VE1000_randls_9.json,http://54.235.29.9/FacialAge/BNav_EC2/DepthDuration/v2_depth_duration_MTurk/v2_DepthDuration_HTML.html#357,357,1366,768,1366,768,9-3-2022,10-14-4,5,depth_duration_stimuli/002905_2014-06-03_18-04-43_094959634447_rgbf000151-resize_2/002905_2014-06-03_18-04-43_094959634447_rgbf000151-resize_2-target.png,1000,2.0295,3,10794,1000,meters,jsons/v1_VE1000_randls_9.json,1180832,1324576,31,Woman
5,997583,DepthScenes,duration_manipulation_targetAtFixation,jsons/v1_VE1000_randls_9.json,http://54.235.29.9/FacialAge/BNav_EC2/DepthDuration/v2_depth_duration_MTurk/v2_DepthDuration_HTML.html#357,357,1366,768,1366,768,9-3-2022,10-14-4,6,depth_duration_stimuli/003423_2014-05-21_10-23-26_094959634447_rgbf002665-resize_2/003423_2014-05-21_10-23-26_094959634447_rgbf002665-resize_2-target.png,1000,3.2575,2,4186,1001,meters,jsons/v1_VE1000_randls_9.json,1180832,1324576,31,Woman
6,997583,DepthScenes,duration_manipulation_targetAtFixation,jsons/v1_VE1000_randls_9.json,http://54.235.29.9/FacialAge/BNav_EC2/DepthDuration/v2_depth_duration_MTurk/v2_DepthDuration_HTML.html#357,357,1366,768,1366,768,9-3-2022,10-14-4,7,depth_duration_stimuli/002118_2014-06-25_20-32-08_260595134347_rgbf000078-resize_1/002118_2014-06-25_20-32-08_260595134347_rgbf000078-resize_1-target.png,1000,2.6460000000000004,2,10119,1000,meters,jsons/v1_VE1000_randls_9.json,1180832,1324576,31,Woman
7,997583,DepthScenes,duration_manipulation_targetAtFixation,jsons/v1_VE1000_randls_9.json,http://54.235.29.9/FacialAge/BNav_EC2/DepthDuration/v2_depth_duration_MTurk/v2_DepthDuration_HTML.html#357,357,1366,768,1366,768,9-3-2022,10-14-4,8,depth_duration_stimuli/001516_2014-06-20_16-25-09_260595134347_rgbf000076-resize_2/001516_2014-06-20_16-25-09_260595134347_rgbf000076-resize_2-target.png,1000,1.7445,2,3398,1000,meters,jsons/v1_VE1000_randls_9.json,1180832,1324576,31,Woman
8,997583,DepthScenes,duration_manipulation_targetAtFixation,jsons/v1_VE1000_randls_9.json,http://54.235.29.9/FacialAge/BNav_EC2/DepthDuration/v2_depth_duration_MTurk/v2_DepthDuration_HTML.html#357,357,1366,768,1366,768,9-3-2022,10-14-4,9,depth_duration_stimuli/002549_2014-06-24_13-41-39_094959634447_rgbf000022-resize_3/002549_2014-06-24_13-41-39_094959634447_rgbf000022-resize_3-target.png,1000,1.476,3,9248,999,meters,jsons/v1_VE1000_randls_9.json,1180832,1324576,31,Woman
9,997583,DepthScenes,duration_manipulation_targetAtFixation,jsons/v1_VE1000_randls_9.json,http://54.235.29.9/FacialAge/BNav_EC2/DepthDuration/v2_depth_duration_MTurk/v2_DepthDuration_HTML.html#357,357,1366,768,1366,768,9-3-2022,10-14-4,10,depth_duration_stimuli/002750_2014-06-22_19-08-03_094959634447_rgbf000094-resize_4/002750_2014-06-22_19-08-03_094959634447_rgbf000094-resize_4-target.png,1000,2.354,0,4829,999,meters,jsons/v1_VE1000_randls_9.json,1180832,1324576,31,Woman
10,997583,DepthScenes,duration_manipulation_targetAtFixation,jsons/v1_VE1000_randls_9.json,http://54.235.29.9/FacialAge/BNav_EC2/DepthDuration/v2_depth_duration_MTurk/v2_DepthDuration_HTML.html#357,357,1366,768,1366,768,9-3-2022,10-14-4,11,depth_duration_stimuli/000469_2014-06-09_19-42-10_260595134347_rgbf000081-resize_1/000469_2014-06-09_19-42-10_260595134347_rgbf000081-resize_1-target.png,1000,1.652,3,7880,998,meters,jsons/v1_VE1000_randls_9.json,1180832,1324576,31,Woman
11,997583,DepthScenes,duration_manipulation_targetAtFixation,jsons/v1_VE1000_randls_9.json,http://54.235.29.9/FacialAge/BNav_EC2/DepthDuration/v2_depth_duration_MTurk/v2_DepthDuration_HTML.html#357,357,1366,768,1366,768,9-3-2022,10-14-4,12,depth_duration_stimuli/000483_2014-06-09_20-41-45_260595134347_rgbf000116-resize_4/000483_2014-06-09_20-41-45_260595134347_rgbf000116-resize_4-target.png,1000,1.337,3,3793,999,meters,jsons/v1_VE1000_randls_9.json,1180832,1324576,31,Woman
12,997583,DepthScenes,duration_manipulation_targetAtFixation,jsons/v1_VE1000_randls_9.json,http://54.235.29.9/FacialAge/BNav_EC2/DepthDuration/v2_depth_duration_MTurk/v2_DepthDuration_HTML.html#357,357,1366,768,1366,768,9-3-2022,10-14-4,13,depth_duration_stimuli/000569_2014-06-09_22-51-47_260595134347_rgbf000141-resize_3/000569_2014-06-09_22-51-47_260595134347_rgbf000141-resize-original.jpg,1000,4.512,0,10114,1000,meters,jsons/v1_VE1000_randls_9.json,1180832,1324576,31,Woman
13,997583,DepthScenes,duration_manipulation_targetAtFixation,jsons/v1_VE1000_randls_9.json,http://54.235.29.9/FacialAge/BNav_EC2/DepthDuration/v2_depth_duration_MTurk/v2_DepthDuration_HTML.html#357,357,1366,768,1366,768,9-3-2022,10-14-4,14,depth_duration_stimuli/002663_2014-06-13_15-50-26_094959634447_rgbf000075-resize_1/002663_2014-06-13_15-50-26_094959634447_rgbf000075-resize_1-target.png,1000,4.7495,4,8874,1000,meters,jsons/v1_VE1000_randls_9.json,1180832,1324576,31,Woman
14,997583,DepthScenes,duration_manipulation_targetAtFixation,jsons/v1_VE1000_randls_9.json,http://54.235.29.9/FacialAge/BNav_EC2/DepthDuration/v2_depth_duration_MTurk/v2_DepthDuration_HTML.html#357,357,1366,768,1366,768,9-3-2022,10-14-4,15,depth_duration_stimuli/000409_2014-06-04_19-23-33_260595134347_rgbf000067-resize_0/000409_2014-06-04_19-23-33_260595134347_rgbf000067-resize_0-target.png,1000,3.7335,3,4153,999,meters,jsons/v1_VE1000_randls_9.json,1180832,1324576,31,Woman
15,997583,DepthScenes,duration_manipulation_targetAtFixation,jsons/v1_VE1000_randls_9.json,http://54.235.29.9/FacialAge/BNav_EC2/DepthDuration/v2_depth_duration_MTurk/v2_DepthDuration_HTML.html#357,357,1366,768,1366,768,9-3-2022,10-14-4,16,depth_duration_stimuli/002964_2014-06-08_17-46-11_094959634447_rgbf000091-resize_4/002964_2014-06-08_17-46-11_094959634447_rgbf000091-resize_4-target.png,1000,1.6909999999999998,3,8331,1001,meters,jsons/v1_VE1000_randls_9.json,1180832,1324576,31,Woman
16,997583,DepthScenes,duration_manipulation_targetAtFixation,jsons/v1_VE1000_randls_9.json,http://54.235.29.9/FacialAge/BNav_EC2/DepthDuration/v2_depth_duration_MTurk/v2_DepthDuration_HTML.html#357,357,1366,768,1366,768,9-3-2022,10-14-4,17,depth_duration_stimuli/002136_2014-06-25_21-18-03_260595134347_rgbf000109-resize_3/002136_2014-06-25_21-18-03_260595134347_rgbf000109-resize_3-target.png,1000,1.9569999999999999,4,4847,1000,meters,jsons/v1_VE1000_randls_9.json,1180832,1324576,31,Woman
17,997583,DepthScenes,duration_manipulation_targetAtFixation,jsons/v1_VE1000_randls_9.json,http://54.235.29.9/FacialAge/BNav_EC2/DepthDuration/v2_depth_duration_MTurk/v2_DepthDuration_HTML.html#357,357,1366,768,1366,768,9-3-2022,10-14-4,18,depth_duration_stimuli/002763_2014-06-22_19-13-10_094959634447_rgbf000075-resize_4/002763_2014-06-22_19-13-10_094959634447_rgbf000075-resize_4-target.png,1000,1.68375,3,8629,998,meters,jsons/v1_VE1000_randls_9.json,1180832,1324576,31,Woman
18,997583,DepthScenes,duration_manipulation_targetAtFixation,jsons/v1_VE1000_randls_9.json,http://54.235.29.9/FacialAge/BNav_EC2/DepthDuration/v2_depth_duration_MTurk/v2_DepthDuration_HTML.html#357,357,1366,768,1366,768,9-3-2022,10-14-4,19,depth_duration_stimuli/002209_2014-06-28_18-36-10_260595134347_rgbf000051-resize_1/002209_2014-06-28_18-36-10_260595134347_rgbf000051-resize_1-target.png,1000,2.057,2,4349,995,meters,jsons/v1_VE1000_randls_9.json,1180832,1324576,31,Woman
19,997583,DepthScenes,duration_manipulation_targetAtFixation,jsons/v1_VE1000_randls_9.json,http://54.235.29.9/FacialAge/BNav_EC2/DepthDuration/v2_depth_duration_MTurk/v2_DepthDuration_HTML.html#357,357,1366,768,1366,768,9-3-2022,10-14-4,20,depth_duration_stimuli/003534_2014-05-22_15-06-10_094959634447_rgbf000102-resize_4/003534_2014-05-22_15-06-10_094959634447_rgbf000102-resize_4-target.png,1000,1.426,3,7630,1000,meters,jsons/v1_VE1000_randls_9.json,1180832,1324576,31,Woman
20,997583,DepthScenes,duration_manipulation_targetAtFixation,jsons/v1_VE1000_randls_9.json,http://54.235.29.9/FacialAge/BNav_EC2/DepthDuration/v2_depth_duration_MTurk/v2_DepthDuration_HTML.html#357,357,1366,768,1366,768,9-3-2022,10-14-4,21,depth_duration_stimuli/002637_2014-06-24_14-51-13_094959634447_rgbf000066-resize_4/002637_2014-06-24_14-51-13_094959634447_rgbf000066-resize_4-target.png,1000,1.9955,4,3966,1000,meters,jsons/v1_VE1000_randls_9.json,1180832,1324576,31,Woman
21,997583,DepthScenes,duration_manipulation_targetAtFixation,jsons/v1_VE1000_randls_9.json,http://54.235.29.9/FacialAge/BNav_EC2/DepthDuration/v2_depth_duration_MTurk/v2_DepthDuration_HTML.html#357,357,1366,768,1366,768,9-3-2022,10-14-4,22,depth_duration_stimuli/001167_2014-06-17_15-38-07_260595134347_rgbf000108-resize_0/001167_2014-06-17_15-38-07_260595134347_rgbf000108-resize_0-target.png,1000,1.8505,3,8891,1000,meters,jsons/v1_VE1000_randls_9.json,1180832,1324576,31,Woman
22,997583,DepthScenes,duration_manipulation_targetAtFixation,jsons/v1_VE1000_randls_9.json,http://54.235.29.9/FacialAge/BNav_EC2/DepthDuration/v2_depth_duration_MTurk/v2_DepthDuration_HTML.html#357,357,1366,768,1366,768,9-3-2022,10-14-4,23,depth_duration_stimuli/003587_2014-05-23_16-48-02_094959634447_rgbf002384-resize_2/003587_2014-05-23_16-48-02_094959634447_rgbf002384-resize_2-target.png,1000,1.357,5,5140,1000,meters,jsons/v1_VE1000_randls_9.json,1180832,1324576,31,Woman
23,997583,DepthScenes,duration_manipulation_targetAtFixation,jsons/v1_VE1000_randls_9.json,http://54.235.29.9/FacialAge/BNav_EC2/DepthDuration/v2_depth_duration_MTurk/v2_DepthDuration_HTML.html#357,357,1366,768,1366,768,9-3-2022,10-14-4,24,depth_duration_stimuli/000878_2014-06-08_22-52-45_260595134347_rgbf000045-resize_2/000878_2014-06-08_22-52-45_260595134347_rgbf000045-resize_2-target.png,1000,2.092,2,7418,1001,meters,jsons/v1_VE1000_randls_9.json,1180832,1324576,31,Woman
24,997583,DepthScenes,duration_manipulation_targetAtFixation,jsons/v1_VE1000_randls_9.json,http://54.235.29.9/FacialAge/BNav_EC2/DepthDuration/v2_depth_duration_MTurk/v2_DepthDuration_HTML.html#357,357,1366,768,1366,768,9-3-2022,10-14-4,25,depth_duration_stimuli/002953_2014-06-08_17-32-18_094959634447_rgbf000059-resize_5/002953_2014-06-08_17-32-18_094959634447_rgbf000059-resize_5-target.png,1000,1.551,0,5100,1001,meters,jsons/v1_VE1000_randls_9.json,1180832,1324576,31,Woman
25,997583,DepthScenes,duration_manipulation_targetAtFixation,jsons/v1_VE1000_randls_9.json,http://54.235.29.9/FacialAge/BNav_EC2/DepthDuration/v2_depth_duration_MTurk/v2_DepthDuration_HTML.html#357,357,1366,768,1366,768,9-3-2022,10-14-4,26,depth_duration_stimuli/001417_2014-06-19_16-25-36_260595134347_rgbf000115-resize_5/001417_2014-06-19_16-25-36_260595134347_rgbf000115-resize_5-target.png,1000,4.6255,4,7530,1001,meters,jsons/v1_VE1000_randls_9.json,1180832,1324576,31,Woman
26,997583,DepthScenes,duration_manipulation_targetAtFixation,jsons/v1_VE1000_randls_9.json,http://54.235.29.9/FacialAge/BNav_EC2/DepthDuration/v2_depth_duration_MTurk/v2_DepthDuration_HTML.html#357,357,1366,768,1366,768,9-3-2022,10-14-4,27,depth_duration_stimuli/003081_2014-06-15_15-19-16_094959634447_rgbf000150-resize_1/003081_2014-06-15_15-19-16_094959634447_rgbf000150-resize_1-target.png,1000,3.9125,3,3729,1000,meters,jsons/v1_VE1000_randls_9.json,1180832,1324576,31,Woman
27,997583,DepthScenes,duration_manipulation_targetAtFixation,jsons/v1_VE1000_randls_9.json,http://54.235.29.9/FacialAge/BNav_EC2/DepthDuration/v2_depth_duration_MTurk/v2_DepthDuration_HTML.html#357,357,1366,768,1366,768,9-3-2022,10-14-4,28,depth_duration_stimuli/001092_2014-06-15_17-34-58_260595134347_rgbf000171-resize_3/001092_2014-06-15_17-34-58_260595134347_rgbf000171-resize_3-target.png,1000,2.6935,3,8086,999,meters,jsons/v1_VE1000_randls_9.json,1180832,1324576,31,Woman
28,997583,DepthScenes,duration_manipulation_targetAtFixation,jsons/v1_VE1000_randls_9.json,http://54.235.29.9/FacialAge/BNav_EC2/DepthDuration/v2_depth_duration_MTurk/v2_DepthDuration_HTML.html#357,357,1366,768,1366,768,9-3-2022,10-14-4,29,depth_duration_stimuli/002545_2014-06-24_13-38-53_094959634447_rgbf000080-resize_4/002545_2014-06-24_13-38-53_094959634447_rgbf000080-resize_4-target.png,1000,1.9205,3,4030,1000,meters,jsons/v1_VE1000_randls_9.json,1180832,1324576,31,Woman
29,997583,DepthScenes,duration_manipulation_targetAtFixation,jsons/v1_VE1000_randls_9.json,http://54.235.29.9/FacialAge/BNav_EC2/DepthDuration/v2_depth_duration_MTurk/v2_DepthDuration_HTML.html#357,357,1366,768,1366,768,9-3-2022,10-14-4,30,depth_duration_stimuli/000375_2014-06-08_11-17-29_260595134347_rgbf000133-resize_2/000375_2014-06-08_11-17-29_260595134347_rgbf000133-resize-original.jpg,1000,4.718,0,4539,1000,meters,jsons/v1_VE1000_randls_9.json,1180832,1324576,31,Woman
30,997583,DepthScenes,duration_manipulation_targetAtFixation,jsons/v1_VE1000_randls_9.json,http://54.235.29.9/FacialAge/BNav_EC2/DepthDuration/v2_depth_duration_MTurk/v2_DepthDuration_HTML.html#357,357,1366,768,1366,768,9-3-2022,10-14-4,31,depth_duration_stimuli/003070_2014-06-15_14-58-27_094959634447_rgbf000150-resize_3/003070_2014-06-15_14-58-27_094959634447_rgbf000150-resize_3-target.png,1000,2.9415,3,7989,1001,meters,jsons/v1_VE1000_randls_9.json,1180832,1324576,31,Woman
31,997583,DepthScenes,duration_manipulation_targetAtFixation,jsons/v1_VE1000_randls_9.json,http://54.235.29.9/FacialAge/BNav_EC2/DepthDuration/v2_depth_duration_MTurk/v2_DepthDuration_HTML.html#357,357,1366,768,1366,768,9-3-2022,10-14-4,32,depth_duration_stimuli/000943_2014-06-09_19-31-07_260595134347_rgbf000128-resize_1/000943_2014-06-09_19-31-07_260595134347_rgbf000128-resize_1-target.png,1000,1.9765,3,4640,1000,meters,jsons/v1_VE1000_randls_9.json,1180832,1324576,31,Woman
32,997583,DepthScenes,duration_manipulation_targetAtFixation,jsons/v1_VE1000_randls_9.json,http://54.235.29.9/FacialAge/BNav_EC2/DepthDuration/v2_depth_duration_MTurk/v2_DepthDuration_HTML.html#357,357,1366,768,1366,768,9-3-2022,10-14-4,33,depth_duration_stimuli/001110_2014-06-15_17-25-28_260595134347_rgbf000150-resize_1/001110_2014-06-15_17-25-28_260595134347_rgbf000150-resize_1-target.png,1000,1.7115,2,3589,1000,meters,jsons/v1_VE1000_randls_9.json,1180832,1324576,31,Woman
33,997583,DepthScenes,duration_manipulation_targetAtFixation,jsons/v1_VE1000_randls_9.json,http://54.235.29.9/FacialAge/BNav_EC2/DepthDuration/v2_depth_duration_MTurk/v2_DepthDuration_HTML.html#357,357,1366,768,1366,768,9-3-2022,10-14-4,34,depth_duration_stimuli/000927_2014-06-09_16-32-30_260595134347_rgbf000123-resize_3/000927_2014-06-09_16-32-30_260595134347_rgbf000123-resize_3-target.png,1000,2.6785,2,3769,1001,meters,jsons/v1_VE1000_randls_9.json,1180832,1324576,31,Woman
34,997583,DepthScenes,duration_manipulation_targetAtFixation,jsons/v1_VE1000_randls_9.json,http://54.235.29.9/FacialAge/BNav_EC2/DepthDuration/v2_depth_duration_MTurk/v2_DepthDuration_HTML.html#357,357,1366,768,1366,768,9-3-2022,10-14-4,35,depth_duration_stimuli/001244_2014-06-17_16-47-45_260595134347_rgbf000030-resize_4/001244_2014-06-17_16-47-45_260595134347_rgbf000030-resize_4-target.png,1000,2.0425,2,8230,1000,meters,jsons/v1_VE1000_randls_9.json,1180832,1324576,31,Woman
35,997583,DepthScenes,duration_manipulation_targetAtFixation,jsons/v1_VE1000_randls_9.json,http://54.235.29.9/FacialAge/BNav_EC2/DepthDuration/v2_depth_duration_MTurk/v2_DepthDuration_HTML.html#357,357,1366,768,1366,768,9-3-2022,10-14-4,36,depth_duration_stimuli/003495_2014-05-21_16-01-51_094959634447_rgbf000100-resize_3/003495_2014-05-21_16-01-51_094959634447_rgbf000100-resize_3-target.png,1000,1.6255,3,6509,1001,meters,jsons/v1_VE1000_randls_9.json,1180832,1324576,31,Woman
36,997583,DepthScenes,duration_manipulation_targetAtFixation,jsons/v1_VE1000_randls_9.json,http://54.235.29.9/FacialAge/BNav_EC2/DepthDuration/v2_depth_duration_MTurk/v2_DepthDuration_HTML.html#357,357,1366,768,1366,768,9-3-2022,10-14-4,37,depth_duration_stimuli/002039_2014-06-24_20-22-38_260595134347_rgbf000084-resize_1/002039_2014-06-24_20-22-38_260595134347_rgbf000084-resize_1-target.png,1000,4.408,3,9439,1000,meters,jsons/v1_VE1000_randls_9.json,1180832,1324576,31,Woman
37,997583,DepthScenes,duration_manipulation_targetAtFixation,jsons/v1_VE1000_randls_9.json,http://54.235.29.9/FacialAge/BNav_EC2/DepthDuration/v2_depth_duration_MTurk/v2_DepthDuration_HTML.html#357,357,1366,768,1366,768,9-3-2022,10-14-4,38,depth_duration_stimuli/002103_2014-06-25_20-00-40_260595134347_rgbf000049-resize_0/002103_2014-06-25_20-00-40_260595134347_rgbf000049-resize_0-target.png,1000,4.105,2,5199,999,meters,jsons/v1_VE1000_randls_9.json,1180832,1324576,31,Woman
38,997583,DepthScenes,duration_manipulation_targetAtFixation,jsons/v1_VE1000_randls_9.json,http://54.235.29.9/FacialAge/BNav_EC2/DepthDuration/v2_depth_duration_MTurk/v2_DepthDuration_HTML.html#357,357,1366,768,1366,768,9-3-2022,10-14-4,39,depth_duration_stimuli/001133_2014-06-17_14-49-16_260595134347_rgbf000100-resize_0/001133_2014-06-17_14-49-16_260595134347_rgbf000100-resize_0-target.png,1000,4.2115,2,7870,999,meters,jsons/v1_VE1000_randls_9.json,1180832,1324576,31,Woman
39,997583,DepthScenes,duration_manipulation_targetAtFixation,jsons/v1_VE1000_randls_9.json,http://54.235.29.9/FacialAge/BNav_EC2/DepthDuration/v2_depth_duration_MTurk/v2_DepthDuration_HTML.html#357,357,1366,768,1366,768,9-3-2022,10-14-4,40,depth_duration_stimuli/001132_2014-06-17_14-48-54_260595134347_rgbf000100-resize_2/001132_2014-06-17_14-48-54_260595134347_rgbf000100-resize_2-target.png,1000,3.753,2,4926,999,meters,jsons/v1_VE1000_randls_9.json,1180832,1324576,31,Woman
40,997583,DepthScenes,duration_manipulation_targetAtFixation,jsons/v1_VE1000_randls_9.json,http://54.235.29.9/FacialAge/BNav_EC2/DepthDuration/v2_depth_duration_MTurk/v2_DepthDuration_HTML.html#357,357,1366,768,1366,768,9-3-2022,10-14-4,41,depth_duration_stimuli/003621_2014-05-23_18-06-08_094959634447_rgbf000101-resize_1/003621_2014-05-23_18-06-08_094959634447_rgbf000101-resize_1-target.png,1000,3.9835,3,7438,999,meters,jsons/v1_VE1000_randls_9.json,1180832,1324576,31,Woman
41,997583,DepthScenes,duration_manipulation_targetAtFixation,jsons/v1_VE1000_randls_9.json,http://54.235.29.9/FacialAge/BNav_EC2/DepthDuration/v2_depth_duration_MTurk/v2_DepthDuration_HTML.html#357,357,1366,768,1366,768,9-3-2022,10-14-4,42,depth_duration_stimuli/001584_2014-06-20_11-07-43_260595134347_rgbf000002-resize_1/001584_2014-06-20_11-07-43_260595134347_rgbf000002-resize_1-target.png,1000,3.53,2,4191,999,meters,jsons/v1_VE1000_randls_9.json,1180832,1324576,31,Woman
42,997583,DepthScenes,duration_manipulation_targetAtFixation,jsons/v1_VE1000_randls_9.json,http://54.235.29.9/FacialAge/BNav_EC2/DepthDuration/v2_depth_duration_MTurk/v2_DepthDuration_HTML.html#357,357,1366,768,1366,768,9-3-2022,10-14-4,43,depth_duration_stimuli/001808_2014-06-26_20-50-58_260595134347_rgbf000029-resize_1/001808_2014-06-26_20-50-58_260595134347_rgbf000029-resize_1-target.png,1000,4.249,2,6540,1000,meters,jsons/v1_VE1000_randls_9.json,1180832,1324576,31,Woman
43,997583,DepthScenes,duration_manipulation_targetAtFixation,jsons/v1_VE1000_randls_9.json,http://54.235.29.9/FacialAge/BNav_EC2/DepthDuration/v2_depth_duration_MTurk/v2_DepthDuration_HTML.html#357,357,1366,768,1366,768,9-3-2022,10-14-4,44,depth_duration_stimuli/001815_2014-06-26_20-52-55_260595134347_rgbf000020-resize_0/001815_2014-06-26_20-52-55_260595134347_rgbf000020-resize_0-target.png,1000,3.3865,4,4527,999,meters,jsons/v1_VE1000_randls_9.json,1180832,1324576,31,Woman
44,997583,DepthScenes,duration_manipulation_targetAtFixation,jsons/v1_VE1000_randls_9.json,http://54.235.29.9/FacialAge/BNav_EC2/DepthDuration/v2_depth_duration_MTurk/v2_DepthDuration_HTML.html#357,357,1366,768,1366,768,9-3-2022,10-14-4,45,depth_duration_stimuli/000787_2014-06-08_22-33-53_260595134347_rgbf000175-resize_1/000787_2014-06-08_22-33-53_260595134347_rgbf000175-resize-original.jpg,1000,4.784,0,7494,1000,meters,jsons/v1_VE1000_randls_9.json,1180832,1324576,31,Woman
45,997583,DepthScenes,duration_manipulation_targetAtFixation,jsons/v1_VE1000_randls_9.json,http://54.235.29.9/FacialAge/BNav_EC2/DepthDuration/v2_depth_duration_MTurk/v2_DepthDuration_HTML.html#357,357,1366,768,1366,768,9-3-2022,10-14-4,46,depth_duration_stimuli/001199_2014-06-17_16-03-48_260595134347_rgbf000077-resize_0/001199_2014-06-17_16-03-48_260595134347_rgbf000077-resize_0-target.png,1000,3.4375,4,8633,998,meters,jsons/v1_VE1000_randls_9.json,1180832,1324576,31,Woman
46,997583,DepthScenes,duration_manipulation_targetAtFixation,jsons/v1_VE1000_randls_9.json,http://54.235.29.9/FacialAge/BNav_EC2/DepthDuration/v2_depth_duration_MTurk/v2_DepthDuration_HTML.html#357,357,1366,768,1366,768,9-3-2022,10-14-4,47,depth_duration_stimuli/000502_2014-06-08_23-02-32_260595134347_rgbf000063-resize_4/000502_2014-06-08_23-02-32_260595134347_rgbf000063-resize_4-target.png,1000,2.431,3,3900,1000,meters,jsons/v1_VE1000_randls_9.json,1180832,1324576,31,Woman
47,997583,DepthScenes,duration_manipulation_targetAtFixation,jsons/v1_VE1000_randls_9.json,http://54.235.29.9/FacialAge/BNav_EC2/DepthDuration/v2_depth_duration_MTurk/v2_DepthDuration_HTML.html#357,357,1366,768,1366,768,9-3-2022,10-14-4,48,depth_duration_stimuli/000788_2014-06-08_22-34-36_260595134347_rgbf000131-resize_1/000788_2014-06-08_22-34-36_260595134347_rgbf000131-resize_1-target.png,1000,3.359,3,9728,1001,meters,jsons/v1_VE1000_randls_9.json,1180832,1324576,31,Woman
48,997583,DepthScenes,duration_manipulation_targetAtFixation,jsons/v1_VE1000_randls_9.json,http://54.235.29.9/FacialAge/BNav_EC2/DepthDuration/v2_depth_duration_MTurk/v2_DepthDuration_HTML.html#357,357,1366,768,1366,768,9-3-2022,10-14-4,49,depth_duration_stimuli/001235_2014-06-17_16-37-36_260595134347_rgbf000084-resize_4/001235_2014-06-17_16-37-36_260595134347_rgbf000084-resize_4-target.png,1000,3.6605,3,4539,1000,meters,jsons/v1_VE1000_randls_9.json,1180832,1324576,31,Woman
49,997583,DepthScenes,duration_manipulation_targetAtFixation,jsons/v1_VE1000_randls_9.json,http://54.235.29.9/FacialAge/BNav_EC2/DepthDuration/v2_depth_duration_MTurk/v2_DepthDuration_HTML.html#357,357,1366,768,1366,768,9-3-2022,10-14-4,50,depth_duration_stimuli/000493_2014-06-09_21-01-18_260595134347_rgbf000196-resize_3/000493_2014-06-09_21-01-18_260595134347_rgbf000196-resize_3-target.png,1000,3.44,3,7569,999,meters,jsons/v1_VE1000_randls_9.json,1180832,1324576,31,Woman
50,997583,DepthScenes,duration_manipulation_targetAtFixation,jsons/v1_VE1000_randls_9.json,http://54.235.29.9/FacialAge/BNav_EC2/DepthDuration/v2_depth_duration_MTurk/v2_DepthDuration_HTML.html#357,357,1366,768,1366,768,9-3-2022,10-14-4,51,depth_duration_stimuli/000191_2014-05-12_17-07-38_260595134347_rgbf000199-resize_0/000191_2014-05-12_17-07-38_260595134347_rgbf000199-resize_0-target.png,1000,3.7995,3,3908,1001,meters,jsons/v1_VE1000_randls_9.json,1180832,1324576,31,Woman
51,997583,DepthScenes,duration_manipulation_targetAtFixation,jsons/v1_VE1000_randls_9.json,http://54.235.29.9/FacialAge/BNav_EC2/DepthDuration/v2_depth_duration_MTurk/v2_DepthDuration_HTML.html#357,357,1366,768,1366,768,9-3-2022,10-14-4,52,depth_duration_stimuli/002748_2014-06-22_19-07-22_094959634447_rgbf000078-resize_1/002748_2014-06-22_19-07-22_094959634447_rgbf000078-resize_1-target.png,1000,4.6705,2,7975,1001,meters,jsons/v1_VE1000_randls_9.json,1180832,1324576,31,Woman
52,997583,DepthScenes,duration_manipulation_targetAtFixation,jsons/v1_VE1000_randls_9.json,http://54.235.29.9/FacialAge/BNav_EC2/DepthDuration/v2_depth_duration_MTurk/v2_DepthDuration_HTML.html#357,357,1366,768,1366,768,9-3-2022,10-14-4,53,depth_duration_stimuli/002995_2014-06-15_12-31-26_094959634447_rgbf000150-resize_1/002995_2014-06-15_12-31-26_094959634447_rgbf000150-resize_1-target.png,1000,3.8360000000000003,2,4145,999,meters,jsons/v1_VE1000_randls_9.json,1180832,1324576,31,Woman
53,997583,DepthScenes,duration_manipulation_targetAtFixation,jsons/v1_VE1000_randls_9.json,http://54.235.29.9/FacialAge/BNav_EC2/DepthDuration/v2_depth_duration_MTurk/v2_DepthDuration_HTML.html#357,357,1366,768,1366,768,9-3-2022,10-14-4,54,depth_duration_stimuli/001059_2014-06-08_21-53-27_260595134347_rgbf000061-resize_4/001059_2014-06-08_21-53-27_260595134347_rgbf000061-resize_4-target.png,1000,2.4185,3,8396,1000,meters,jsons/v1_VE1000_randls_9.json,1180832,1324576,31,Woman
54,997583,DepthScenes,duration_manipulation_targetAtFixation,jsons/v1_VE1000_randls_9.json,http://54.235.29.9/FacialAge/BNav_EC2/DepthDuration/v2_depth_duration_MTurk/v2_DepthDuration_HTML.html#357,357,1366,768,1366,768,9-3-2022,10-14-4,55,depth_duration_stimuli/001032_2014-06-08_13-23-17_260595134347_rgbf000021-resize_3/001032_2014-06-08_13-23-17_260595134347_rgbf000021-resize_3-target.png,1000,3.2725,3,5079,1000,meters,jsons/v1_VE1000_randls_9.json,1180832,1324576,31,Woman
55,997583,DepthScenes,duration_manipulation_targetAtFixation,jsons/v1_VE1000_randls_9.json,http://54.235.29.9/FacialAge/BNav_EC2/DepthDuration/v2_depth_duration_MTurk/v2_DepthDuration_HTML.html#357,357,1366,768,1366,768,9-3-2022,10-14-4,56,depth_duration_stimuli/002600_2014-06-24_14-27-04_094959634447_rgbf000074-resize_2/002600_2014-06-24_14-27-04_094959634447_rgbf000074-resize_2-target.png,1000,2.7575,4,8378,999,meters,jsons/v1_VE1000_randls_9.json,1180832,1324576,31,Woman
56,997583,DepthScenes,duration_manipulation_targetAtFixation,jsons/v1_VE1000_randls_9.json,http://54.235.29.9/FacialAge/BNav_EC2/DepthDuration/v2_depth_duration_MTurk/v2_DepthDuration_HTML.html#357,357,1366,768,1366,768,9-3-2022,10-14-4,57,depth_duration_stimuli/003228_2014-05-14_13-42-35_094959634447_rgbf000101-resize_1/003228_2014-05-14_13-42-35_094959634447_rgbf000101-resize_1-target.png,1000,1.9680000000000002,3,4443,999,meters,jsons/v1_VE1000_randls_9.json,1180832,1324576,31,Woman
57,997583,DepthScenes,duration_manipulation_targetAtFixation,jsons/v1_VE1000_randls_9.json,http://54.235.29.9/FacialAge/BNav_EC2/DepthDuration/v2_depth_duration_MTurk/v2_DepthDuration_HTML.html#357,357,1366,768,1366,768,9-3-2022,10-14-4,58,depth_duration_stimuli/001150_2014-06-17_15-27-34_260595134347_rgbf000108-resize_2/001150_2014-06-17_15-27-34_260595134347_rgbf000108-resize_2-target.png,1000,4.0325,3,7633,999,meters,jsons/v1_VE1000_randls_9.json,1180832,1324576,31,Woman
58,997583,DepthScenes,duration_manipulation_targetAtFixation,jsons/v1_VE1000_randls_9.json,http://54.235.29.9/FacialAge/BNav_EC2/DepthDuration/v2_depth_duration_MTurk/v2_DepthDuration_HTML.html#357,357,1366,768,1366,768,9-3-2022,10-14-4,59,depth_duration_stimuli/000665_2014-06-09_20-42-35_260595134347_rgbf000110-resize_1/000665_2014-06-09_20-42-35_260595134347_rgbf000110-resize_1-target.png,1000,3.057,5,4321,1001,meters,jsons/v1_VE1000_randls_9.json,1180832,1324576,31,Woman
59,997583,DepthScenes,duration_manipulation_targetAtFixation,jsons/v1_VE1000_randls_9.json,http://54.235.29.9/FacialAge/BNav_EC2/DepthDuration/v2_depth_duration_MTurk/v2_DepthDuration_HTML.html#357,357,1366,768,1366,768,9-3-2022,10-14-4,60,depth_duration_stimuli/002445_2014-06-28_20-32-16_260595134347_rgbf000029-resize_4/002445_2014-06-28_20-32-16_260595134347_rgbf000029-resize_4-target.png,1000,2.5315,2,7338,1001,meters,jsons/v1_VE1000_randls_9.json,1180832,1324576,31,Woman
60,997583,DepthScenes,duration_manipulation_targetAtFixation,jsons/v1_VE1000_randls_9.json,http://54.235.29.9/FacialAge/BNav_EC2/DepthDuration/v2_depth_duration_MTurk/v2_DepthDuration_HTML.html#357,357,1366,768,1366,768,9-3-2022,10-14-4,61,depth_duration_stimuli/000780_2014-06-08_22-28-29_260595134347_rgbf000126-resize_1/000780_2014-06-08_22-28-29_260595134347_rgbf000126-resize_1-target.png,1000,3.3825,3,4520,1000,meters,jsons/v1_VE1000_randls_9.json,1180832,1324576,31,Woman
61,997583,DepthScenes,duration_manipulation_targetAtFixation,jsons/v1_VE1000_randls_9.json,http://54.235.29.9/FacialAge/BNav_EC2/DepthDuration/v2_depth_duration_MTurk/v2_DepthDuration_HTML.html#357,357,1366,768,1366,768,9-3-2022,10-14-4,62,depth_duration_stimuli/001164_2014-06-17_15-35-46_260595134347_rgbf000085-resize_3/001164_2014-06-17_15-35-46_260595134347_rgbf000085-resize_3-target.png,1000,2.354,2,7979,1001,meters,jsons/v1_VE1000_randls_9.json,1180832,1324576,31,Woman
62,997583,DepthScenes,duration_manipulation_targetAtFixation,jsons/v1_VE1000_randls_9.json,http://54.235.29.9/FacialAge/BNav_EC2/DepthDuration/v2_depth_duration_MTurk/v2_DepthDuration_HTML.html#357,357,1366,768,1366,768,9-3-2022,10-14-4,63,depth_duration_stimuli/001136_2014-06-17_15-19-41_260595134347_rgbf000076-resize_3/001136_2014-06-17_15-19-41_260595134347_rgbf000076-resize_3-target.png,1000,1.8655,3,3664,1000,meters,jsons/v1_VE1000_randls_9.json,1180832,1324576,31,Woman
63,997583,DepthScenes,duration_manipulation_targetAtFixation,jsons/v1_VE1000_randls_9.json,http://54.235.29.9/FacialAge/BNav_EC2/DepthDuration/v2_depth_duration_MTurk/v2_DepthDuration_HTML.html#357,357,1366,768,1366,768,9-3-2022,10-14-4,64,depth_duration_stimuli/002375_2014-06-28_20-13-44_260595134347_rgbf000032-resize_1/002375_2014-06-28_20-13-44_260595134347_rgbf000032-resize_1-target.png,1000,4.0175,4,6373,999,meters,jsons/v1_VE1000_randls_9.json,1180832,1324576,31,Woman
64,997583,DepthScenes,duration_manipulation_targetAtFixation,jsons/v1_VE1000_randls_9.json,http://54.235.29.9/FacialAge/BNav_EC2/DepthDuration/v2_depth_duration_MTurk/v2_DepthDuration_HTML.html#357,357,1366,768,1366,768,9-3-2022,10-14-4,65,depth_duration_stimuli/002657_2014-06-13_15-29-54_094959634447_rgbf000150-resize_1/002657_2014-06-13_15-29-54_094959634447_rgbf000150-resize_1-target.png,1000,4.919,3,4380,1000,meters,jsons/v1_VE1000_randls_9.json,1180832,1324576,31,Woman
65,997583,DepthScenes,duration_manipulation_targetAtFixation,jsons/v1_VE1000_randls_9.json,http://54.235.29.9/FacialAge/BNav_EC2/DepthDuration/v2_depth_duration_MTurk/v2_DepthDuration_HTML.html#357,357,1366,768,1366,768,9-3-2022,10-14-4,66,depth_duration_stimuli/001222_2014-06-17_16-24-06_260595134347_rgbf000073-resize_0/001222_2014-06-17_16-24-06_260595134347_rgbf000073-resize-original.jpg,1000,1.4385,0,8021,999,meters,jsons/v1_VE1000_randls_9.json,1180832,1324576,31,Woman
66,997583,DepthScenes,duration_manipulation_targetAtFixation,jsons/v1_VE1000_randls_9.json,http://54.235.29.9/FacialAge/BNav_EC2/DepthDuration/v2_depth_duration_MTurk/v2_DepthDuration_HTML.html#357,357,1366,768,1366,768,9-3-2022,10-14-4,67,depth_duration_stimuli/000692_2014-06-08_13-09-42_260595134347_rgbf000199-resize_2/000692_2014-06-08_13-09-42_260595134347_rgbf000199-resize_2-target.png,1000,3.661,3,10281,998,meters,jsons/v1_VE1000_randls_9.json,1180832,1324576,31,Woman
67,997583,DepthScenes,duration_manipulation_targetAtFixation,jsons/v1_VE1000_randls_9.json,http://54.235.29.9/FacialAge/BNav_EC2/DepthDuration/v2_depth_duration_MTurk/v2_DepthDuration_HTML.html#357,357,1366,768,1366,768,9-3-2022,10-14-4,68,depth_duration_stimuli/001094_2014-06-15_17-36-00_260595134347_rgbf000205-resize_0/001094_2014-06-15_17-36-00_260595134347_rgbf000205-resize_0-target.png,1000,4.2175,3,4445,999,meters,jsons/v1_VE1000_randls_9.json,1180832,1324576,31,Woman
68,997583,DepthScenes,duration_manipulation_targetAtFixation,jsons/v1_VE1000_randls_9.json,http://54.235.29.9/FacialAge/BNav_EC2/DepthDuration/v2_depth_duration_MTurk/v2_DepthDuration_HTML.html#357,357,1366,768,1366,768,9-3-2022,10-14-4,69,depth_duration_stimuli/000486_2014-06-09_20-47-20_260595134347_rgbf000143-resize_2/000486_2014-06-09_20-47-20_260595134347_rgbf000143-resize_2-target.png,1000,4.8325,3,8468,1000,meters,jsons/v1_VE1000_randls_9.json,1180832,1324576,31,Woman
69,997583,DepthScenes,duration_manipulation_targetAtFixation,jsons/v1_VE1000_randls_9.json,http://54.235.29.9/FacialAge/BNav_EC2/DepthDuration/v2_depth_duration_MTurk/v2_DepthDuration_HTML.html#357,357,1366,768,1366,768,9-3-2022,10-14-4,70,depth_duration_stimuli/003083_2014-06-15_15-21-03_094959634447_rgbf000063-resize_1/003083_2014-06-15_15-21-03_094959634447_rgbf000063-resize_1-target.png,1000,4.1405,3,3421,1000,meters,jsons/v1_VE1000_randls_9.json,1180832,1324576,31,Woman
70,997583,DepthScenes,duration_manipulation_targetAtFixation,jsons/v1_VE1000_randls_9.json,http://54.235.29.9/FacialAge/BNav_EC2/DepthDuration/v2_depth_duration_MTurk/v2_DepthDuration_HTML.html#357,357,1366,768,1366,768,9-3-2022,10-14-4,71,depth_duration_stimuli/000522_2014-06-08_13-35-06_260595134347_rgbf000244-resize_1/000522_2014-06-08_13-35-06_260595134347_rgbf000244-resize_1-target.png,1000,2.3715,2,7997,1001,meters,jsons/v1_VE1000_randls_9.json,1180832,1324576,31,Woman
71,997583,DepthScenes,duration_manipulation_targetAtFixation,jsons/v1_VE1000_randls_9.json,http://54.235.29.9/FacialAge/BNav_EC2/DepthDuration/v2_depth_duration_MTurk/v2_DepthDuration_HTML.html#357,357,1366,768,1366,768,9-3-2022,10-14-4,72,depth_duration_stimuli/002949_2014-06-26_15-57-42_094959634447_rgbf000079-resize_1/002949_2014-06-26_15-57-42_094959634447_rgbf000079-resize_1-target.png,1000,1.8915,2,3161,1001,meters,jsons/v1_VE1000_randls_9.json,1180832,1324576,31,Woman
72,997583,DepthScenes,duration_manipulation_targetAtFixation,jsons/v1_VE1000_randls_9.json,http://54.235.29.9/FacialAge/BNav_EC2/DepthDuration/v2_depth_duration_MTurk/v2_DepthDuration_HTML.html#357,357,1366,768,1366,768,9-3-2022,10-14-4,73,depth_duration_stimuli/003492_2014-05-21_15-50-55_094959634447_rgbf000828-resize_1/003492_2014-05-21_15-50-55_094959634447_rgbf000828-resize_1-target.png,1000,4.06875,4,7499,1000,meters,jsons/v1_VE1000_randls_9.json,1180832,1324576,31,Woman
73,997583,DepthScenes,duration_manipulation_targetAtFixation,jsons/v1_VE1000_randls_9.json,http://54.235.29.9/FacialAge/BNav_EC2/DepthDuration/v2_depth_duration_MTurk/v2_DepthDuration_HTML.html#357,357,1366,768,1366,768,9-3-2022,10-14-4,74,depth_duration_stimuli/002568_2014-06-24_13-59-21_094959634447_rgbf000062-resize_4/002568_2014-06-24_13-59-21_094959634447_rgbf000062-resize_4-target.png,1000,3.015,4,3940,999,meters,jsons/v1_VE1000_randls_9.json,1180832,1324576,31,Woman
74,997583,DepthScenes,duration_manipulation_targetAtFixation,jsons/v1_VE1000_randls_9.json,http://54.235.29.9/FacialAge/BNav_EC2/DepthDuration/v2_depth_duration_MTurk/v2_DepthDuration_HTML.html#357,357,1366,768,1366,768,9-3-2022,10-14-4,75,depth_duration_stimuli/001029_2014-06-08_13-17-57_260595134347_rgbf000065-resize_1/001029_2014-06-08_13-17-57_260595134347_rgbf000065-resize_1-target.png,1000,3.0835,2,6399,1000,meters,jsons/v1_VE1000_randls_9.json,1180832,1324576,31,Woman
75,997583,DepthScenes,duration_manipulation_targetAtFixation,jsons/v1_VE1000_randls_9.json,http://54.235.29.9/FacialAge/BNav_EC2/DepthDuration/v2_depth_duration_MTurk/v2_DepthDuration_HTML.html#357,357,1366,768,1366,768,9-3-2022,10-14-4,76,depth_duration_stimuli/000677_2014-06-08_23-10-32_260595134347_rgbf000158-resize_6/000677_2014-06-08_23-10-32_260595134347_rgbf000158-resize_6-target.png,1000,3.556,3,3842,1002,meters,jsons/v1_VE1000_randls_9.json,1180832,1324576,31,Woman
76,997583,DepthScenes,duration_manipulation_targetAtFixation,jsons/v1_VE1000_randls_9.json,http://54.235.29.9/FacialAge/BNav_EC2/DepthDuration/v2_depth_duration_MTurk/v2_DepthDuration_HTML.html#357,357,1366,768,1366,768,9-3-2022,10-14-4,77,depth_duration_stimuli/002788_2014-06-22_19-36-03_094959634447_rgbf000088-resize_2/002788_2014-06-22_19-36-03_094959634447_rgbf000088-resize_2-target.png,1000,1.6465,3,6611,1000,meters,jsons/v1_VE1000_randls_9.json,1180832,1324576,31,Woman
77,997583,DepthScenes,duration_manipulation_targetAtFixation,jsons/v1_VE1000_randls_9.json,http://54.235.29.9/FacialAge/BNav_EC2/DepthDuration/v2_depth_duration_MTurk/v2_DepthDuration_HTML.html#357,357,1366,768,1366,768,9-3-2022,10-14-4,78,depth_duration_stimuli/000749_2014-06-08_21-55-06_260595134347_rgbf000070-resize_2/000749_2014-06-08_21-55-06_260595134347_rgbf000070-resize_2-target.png,1000,2.331,3,5209,1000,meters,jsons/v1_VE1000_randls_9.json,1180832,1324576,31,Woman
78,997583,DepthScenes,duration_manipulation_targetAtFixation,jsons/v1_VE1000_randls_9.json,http://54.235.29.9/FacialAge/BNav_EC2/DepthDuration/v2_depth_duration_MTurk/v2_DepthDuration_HTML.html#357,357,1366,768,1366,768,9-3-2022,10-14-4,79,depth_duration_stimuli/002272_2014-06-28_18-53-56_260595134347_rgbf000067-resize_2/002272_2014-06-28_18-53-56_260595134347_rgbf000067-resize_2-target.png,1000,1.138,3,5789,990,meters,jsons/v1_VE1000_randls_9.json,1180832,1324576,31,Woman
79,997583,DepthScenes,duration_manipulation_targetAtFixation,jsons/v1_VE1000_randls_9.json,http://54.235.29.9/FacialAge/BNav_EC2/DepthDuration/v2_depth_duration_MTurk/v2_DepthDuration_HTML.html#357,357,1366,768,1366,768,9-3-2022,10-14-4,80,depth_duration_stimuli/001571_2014-06-20_17-21-32_260595134347_rgbf000089-resize_1/001571_2014-06-20_17-21-32_260595134347_rgbf000089-resize_1-target.png,1000,1.86,3,3794,994,meters,jsons/v1_VE1000_randls_9.json,1180832,1324576,31,Woman
80,997583,DepthScenes,duration_manipulation_targetAtFixation,jsons/v1_VE1000_randls_9.json,http://54.235.29.9/FacialAge/BNav_EC2/DepthDuration/v2_depth_duration_MTurk/v2_DepthDuration_HTML.html#357,357,1366,768,1366,768,9-3-2022,10-14-4,81,depth_duration_stimuli/001055_2014-06-08_18-45-35_260595134347_rgbf000111-resize_4/001055_2014-06-08_18-45-35_260595134347_rgbf000111-resize_4-target.png,1000,2.4290000000000003,4,4713,999,meters,jsons/v1_VE1000_randls_9.json,1180832,1324576,31,Woman
81,997583,DepthScenes,duration_manipulation_targetAtFixation,jsons/v1_VE1000_randls_9.json,http://54.235.29.9/FacialAge/BNav_EC2/DepthDuration/v2_depth_duration_MTurk/v2_DepthDuration_HTML.html#357,357,1366,768,1366,768,9-3-2022,10-14-4,82,depth_duration_stimuli/000549_2014-06-08_22-10-24_260595134347_rgbf000247-resize_3/000549_2014-06-08_22-10-24_260595134347_rgbf000247-resize_3-target.png,1000,1.841,4,4403,1000,meters,jsons/v1_VE1000_randls_9.json,1180832,1324576,31,Woman
82,997583,DepthScenes,duration_manipulation_targetAtFixation,jsons/v1_VE1000_randls_9.json,http://54.235.29.9/FacialAge/BNav_EC2/DepthDuration/v2_depth_duration_MTurk/v2_DepthDuration_HTML.html#357,357,1366,768,1366,768,9-3-2022,10-14-4,83,depth_duration_stimuli/002784_2014-06-22_19-26-30_094959634447_rgbf000083-resize_3/002784_2014-06-22_19-26-30_094959634447_rgbf000083-resize_3-target.png,1000,1.8046666666667,2,7047,1000,meters,jsons/v1_VE1000_randls_9.json,1180832,1324576,31,Woman
83,997583,DepthScenes,duration_manipulation_targetAtFixation,jsons/v1_VE1000_randls_9.json,http://54.235.29.9/FacialAge/BNav_EC2/DepthDuration/v2_depth_duration_MTurk/v2_DepthDuration_HTML.html#357,357,1366,768,1366,768,9-3-2022,10-14-4,84,depth_duration_stimuli/001100_2014-06-15_17-46-26_260595134347_rgbf000225-resize_2/001100_2014-06-15_17-46-26_260595134347_rgbf000225-resize_2-target.png,1000,2.24,2,4359,1015,meters,jsons/v1_VE1000_randls_9.json,1180832,1324576,31,Woman
84,997583,DepthScenes,duration_manipulation_targetAtFixation,jsons/v1_VE1000_randls_9.json,http://54.235.29.9/FacialAge/BNav_EC2/DepthDuration/v2_depth_duration_MTurk/v2_DepthDuration_HTML.html#357,357,1366,768,1366,768,9-3-2022,10-14-4,85,depth_duration_stimuli/001016_2014-06-09_16-16-10_260595134347_rgbf000112-resize_5/001016_2014-06-09_16-16-10_260595134347_rgbf000112-resize_5-target.png,1000,1.6565,3,7406,999,meters,jsons/v1_VE1000_randls_9.json,1180832,1324576,31,Woman
85,997583,DepthScenes,duration_manipulation_targetAtFixation,jsons/v1_VE1000_randls_9.json,http://54.235.29.9/FacialAge/BNav_EC2/DepthDuration/v2_depth_duration_MTurk/v2_DepthDuration_HTML.html#357,357,1366,768,1366,768,9-3-2022,10-14-4,86,depth_duration_stimuli/002340_2014-06-28_20-05-46_260595134347_rgbf000113-resize_0/002340_2014-06-28_20-05-46_260595134347_rgbf000113-resize_0-target.png,1000,2.4735,3,4486,998,meters,jsons/v1_VE1000_randls_9.json,1180832,1324576,31,Woman
86,997583,DepthScenes,duration_manipulation_targetAtFixation,jsons/v1_VE1000_randls_9.json,http://54.235.29.9/FacialAge/BNav_EC2/DepthDuration/v2_depth_duration_MTurk/v2_DepthDuration_HTML.html#357,357,1366,768,1366,768,9-3-2022,10-14-4,87,depth_duration_stimuli/002043_2014-06-24_20-29-38_260595134347_rgbf000039-resize_4/002043_2014-06-24_20-29-38_260595134347_rgbf000039-resize_4-target.png,1000,2.8435,4,8576,999,meters,jsons/v1_VE1000_randls_9.json,1180832,1324576,31,Woman
87,997583,DepthScenes,duration_manipulation_targetAtFixation,jsons/v1_VE1000_randls_9.json,http://54.235.29.9/FacialAge/BNav_EC2/DepthDuration/v2_depth_duration_MTurk/v2_DepthDuration_HTML.html#357,357,1366,768,1366,768,9-3-2022,10-14-4,88,depth_duration_stimuli/003048_2014-06-15_13-49-43_094959634447_rgbf000150-resize_1/003048_2014-06-15_13-49-43_094959634447_rgbf000150-resize_1-target.png,1000,4.0035,3,3506,1000,meters,jsons/v1_VE1000_randls_9.json,1180832,1324576,31,Woman
88,997583,DepthScenes,duration_manipulation_targetAtFixation,jsons/v1_VE1000_randls_9.json,http://54.235.29.9/FacialAge/BNav_EC2/DepthDuration/v2_depth_duration_MTurk/v2_DepthDuration_HTML.html#357,357,1366,768,1366,768,9-3-2022,10-14-4,89,depth_duration_stimuli/002570_2014-06-24_13-59-54_094959634447_rgbf000059-resize_0/002570_2014-06-24_13-59-54_094959634447_rgbf000059-resize_0-target.png,1000,4.037,3,9899,990,meters,jsons/v1_VE1000_randls_9.json,1180832,1324576,31,Woman
89,997583,DepthScenes,duration_manipulation_targetAtFixation,jsons/v1_VE1000_randls_9.json,http://54.235.29.9/FacialAge/BNav_EC2/DepthDuration/v2_depth_duration_MTurk/v2_DepthDuration_HTML.html#357,357,1366,768,1366,768,9-3-2022,10-14-4,90,depth_duration_stimuli/002467_2014-06-28_20-38-07_260595134347_rgbf000026-resize_2/002467_2014-06-28_20-38-07_260595134347_rgbf000026-resize_2-target.png,1000,4.742,3,3822,1000,meters,jsons/v1_VE1000_randls_9.json,1180832,1324576,31,Woman
90,997583,DepthScenes,duration_manipulation_targetAtFixation,jsons/v1_VE1000_randls_9.json,http://54.235.29.9/FacialAge/BNav_EC2/DepthDuration/v2_depth_duration_MTurk/v2_DepthDuration_HTML.html#357,357,1366,768,1366,768,9-3-2022,10-14-4,91,depth_duration_stimuli/000736_2014-06-08_18-24-15_260595134347_rgbf000206-resize_3/000736_2014-06-08_18-24-15_260595134347_rgbf000206-resize_3-target.png,1000,3.515,3,9955,994,meters,jsons/v1_VE1000_randls_9.json,1180832,1324576,31,Woman
91,997583,DepthScenes,duration_manipulation_targetAtFixation,jsons/v1_VE1000_randls_9.json,http://54.235.29.9/FacialAge/BNav_EC2/DepthDuration/v2_depth_duration_MTurk/v2_DepthDuration_HTML.html#357,357,1366,768,1366,768,9-3-2022,10-14-4,92,depth_duration_stimuli/000137_2014-05-20_17-04-49_260595134347_rgbf000120-resize_1/000137_2014-05-20_17-04-49_260595134347_rgbf000120-resize_1-target.png,1000,3.786,3,4090,988,meters,jsons/v1_VE1000_randls_9.json,1180832,1324576,31,Woman
92,997583,DepthScenes,duration_manipulation_targetAtFixation,jsons/v1_VE1000_randls_9.json,http://54.235.29.9/FacialAge/BNav_EC2/DepthDuration/v2_depth_duration_MTurk/v2_DepthDuration_HTML.html#357,357,1366,768,1366,768,9-3-2022,10-14-4,93,depth_duration_stimuli/001806_2014-06-26_20-50-20_260595134347_rgbf000091-resize_1/001806_2014-06-26_20-50-20_260595134347_rgbf000091-resize_1-target.png,1000,2.7305,3,7873,996,meters,jsons/v1_VE1000_randls_9.json,1180832,1324576,31,Woman
93,997583,DepthScenes,duration_manipulation_targetAtFixation,jsons/v1_VE1000_randls_9.json,http://54.235.29.9/FacialAge/BNav_EC2/DepthDuration/v2_depth_duration_MTurk/v2_DepthDuration_HTML.html#357,357,1366,768,1366,768,9-3-2022,10-14-4,94,depth_duration_stimuli/001617_2014-06-20_11-35-32_260595134347_rgbf000066-resize_1/001617_2014-06-20_11-35-32_260595134347_rgbf000066-resize_1-target.png,1000,3.7910000000000004,3,4418,1001,meters,jsons/v1_VE1000_randls_9.json,1180832,1324576,31,Woman
94,997583,DepthScenes,duration_manipulation_targetAtFixation,jsons/v1_VE1000_randls_9.json,http://54.235.29.9/FacialAge/BNav_EC2/DepthDuration/v2_depth_duration_MTurk/v2_DepthDuration_HTML.html#357,357,1366,768,1366,768,9-3-2022,10-14-4,95,depth_duration_stimuli/001810_2014-06-26_20-51-35_260595134347_rgbf000040-resize_3/001810_2014-06-26_20-51-35_260595134347_rgbf000040-resize_3-target.png,1000,2.2525,3,8157,999,meters,jsons/v1_VE1000_randls_9.json,1180832,1324576,31,Woman
95,997583,DepthScenes,duration_manipulation_targetAtFixation,jsons/v1_VE1000_randls_9.json,http://54.235.29.9/FacialAge/BNav_EC2/DepthDuration/v2_depth_duration_MTurk/v2_DepthDuration_HTML.html#357,357,1366,768,1366,768,9-3-2022,10-14-4,96,depth_duration_stimuli/003010_2014-06-15_12-54-35_094959634447_rgbf000112-resize_0/003010_2014-06-15_12-54-35_094959634447_rgbf000112-resize_0-target.png,1000,3.1185,3,3739,1000,meters,jsons/v1_VE1000_randls_9.json,1180832,1324576,31,Woman
96,997583,DepthScenes,duration_manipulation_targetAtFixation,jsons/v1_VE1000_randls_9.json,http://54.235.29.9/FacialAge/BNav_EC2/DepthDuration/v2_depth_duration_MTurk/v2_DepthDuration_HTML.html#357,357,1366,768,1366,768,9-3-2022,10-14-4,97,depth_duration_stimuli/000009_2014-05-26_14-32-05_260595134347_rgbf000034-resize_3/000009_2014-05-26_14-32-05_260595134347_rgbf000034-resize_3-target.png,1000,3.8715,4,9381,1001,meters,jsons/v1_VE1000_randls_9.json,1180832,1324576,31,Woman
97,997583,DepthScenes,duration_manipulation_targetAtFixation,jsons/v1_VE1000_randls_9.json,http://54.235.29.9/FacialAge/BNav_EC2/DepthDuration/v2_depth_duration_MTurk/v2_DepthDuration_HTML.html#357,357,1366,768,1366,768,9-3-2022,10-14-4,98,depth_duration_stimuli/001828_2014-06-26_21-40-03_260595134347_rgbf000024-resize_0/001828_2014-06-26_21-40-03_260595134347_rgbf000024-resize_0-target.png,1000,4.8260000000000005,4,3679,1000,meters,jsons/v1_VE1000_randls_9.json,1180832,1324576,31,Woman
98,997583,DepthScenes,duration_manipulation_targetAtFixation,jsons/v1_VE1000_randls_9.json,http://54.235.29.9/FacialAge/BNav_EC2/DepthDuration/v2_depth_duration_MTurk/v2_DepthDuration_HTML.html#357,357,1366,768,1366,768,9-3-2022,10-14-4,99,depth_duration_stimuli/001540_2014-06-20_17-01-05_260595134347_rgbf000086-resize_2/001540_2014-06-20_17-01-05_260595134347_rgbf000086-resize-original.jpg,1000,1.459,0,12519,1001,meters,jsons/v1_VE1000_randls_9.json,1180832,1324576,31,Woman
99,997583,DepthScenes,duration_manipulation_targetAtFixation,jsons/v1_VE1000_randls_9.json,http://54.235.29.9/FacialAge/BNav_EC2/DepthDuration/v2_depth_duration_MTurk/v2_DepthDuration_HTML.html#357,357,1366,768,1366,768,9-3-2022,10-14-4,100,depth_duration_stimuli/000917_2014-06-09_22-45-29_260595134347_rgbf000149-resize_3/000917_2014-06-09_22-45-29_260595134347_rgbf000149-resize_3-target.png,1000,4.1865,0,10080,1000,meters,jsons/v1_VE1000_randls_9.json,1180832,1324576,31,Woman
100,997583,DepthScenes,duration_manipulation_targetAtFixation,jsons/v1_VE1000_randls_9.json,http://54.235.29.9/FacialAge/BNav_EC2/DepthDuration/v2_depth_duration_MTurk/v2_DepthDuration_HTML.html#357,357,1366,768,1366,768,9-3-2022,10-14-4,101,depth_duration_stimuli/002323_2014-06-28_20-01-54_260595134347_rgbf000051-resize_4/002323_2014-06-28_20-01-54_260595134347_rgbf000051-resize_4-target.png,1000,3.7310000000000003,4,13578,1000,meters,jsons/v1_VE1000_randls_9.json,1180832,1324576,31,Woman
101,997583,DepthScenes,duration_manipulation_targetAtFixation,jsons/v1_VE1000_randls_9.json,http://54.235.29.9/FacialAge/BNav_EC2/DepthDuration/v2_depth_duration_MTurk/v2_DepthDuration_HTML.html#357,357,1366,768,1366,768,9-3-2022,10-14-4,102,depth_duration_stimuli/002509_2014-06-24_13-19-22_094959634447_rgbf000077-resize_0/002509_2014-06-24_13-19-22_094959634447_rgbf000077-resize_0-target.png,1000,1.3065,4,10378,997,meters,jsons/v1_VE1000_randls_9.json,1180832,1324576,31,Woman
102,997583,DepthScenes,duration_manipulation_targetAtFixation,jsons/v1_VE1000_randls_9.json,http://54.235.29.9/FacialAge/BNav_EC2/DepthDuration/v2_depth_duration_MTurk/v2_DepthDuration_HTML.html#357,357,1366,768,1366,768,9-3-2022,10-14-4,103,depth_duration_stimuli/003338_2014-05-20_11-01-23_094959634447_rgbf000051-resize_6/003338_2014-05-20_11-01-23_094959634447_rgbf000051-resize_6-target.png,1000,1.693,2,28658,1000,meters,jsons/v1_VE1000_randls_9.json,1180832,1324576,31,Woman
103,997583,DepthScenes,duration_manipulation_targetAtFixation,jsons/v1_VE1000_randls_9.json,http://54.235.29.9/FacialAge/BNav_EC2/DepthDuration/v2_depth_duration_MTurk/v2_DepthDuration_HTML.html#357,357,1366,768,1366,768,9-3-2022,10-14-4,104,depth_duration_stimuli/002988_2014-06-15_12-24-20_094959634447_rgbf000150-resize_1/002988_2014-06-15_12-24-20_094959634447_rgbf000150-resize_1-target.png,1000,4.7669999999999995,3,3610,1000,meters,jsons/v1_VE1000_randls_9.json,1180832,1324576,31,Woman
104,997583,DepthScenes,duration_manipulation_targetAtFixation,jsons/v1_VE1000_randls_9.json,http://54.235.29.9/FacialAge/BNav_EC2/DepthDuration/v2_depth_duration_MTurk/v2_DepthDuration_HTML.html#357,357,1366,768,1366,768,9-3-2022,10-14-4,105,depth_duration_stimuli/001052_2014-06-08_18-24-54_260595134347_rgbf000130-resize_1/001052_2014-06-08_18-24-54_260595134347_rgbf000130-resize_1-target.png,1000,4.1045,3,10800,1000,meters,jsons/v1_VE1000_randls_9.json,1180832,1324576,31,Woman
105,997583,DepthScenes,duration_manipulation_targetAtFixation,jsons/v1_VE1000_randls_9.json,http://54.235.29.9/FacialAge/BNav_EC2/DepthDuration/v2_depth_duration_MTurk/v2_DepthDuration_HTML.html#357,357,1366,768,1366,768,9-3-2022,10-14-4,106,depth_duration_stimuli/001555_2014-06-20_17-12-10_260595134347_rgbf000065-resize_4/001555_2014-06-20_17-12-10_260595134347_rgbf000065-resize_4-target.png,1000,1.633,4,10512,1000,meters,jsons/v1_VE1000_randls_9.json,1180832,1324576,31,Woman
106,997583,DepthScenes,duration_manipulation_targetAtFixation,jsons/v1_VE1000_randls_9.json,http://54.235.29.9/FacialAge/BNav_EC2/DepthDuration/v2_depth_duration_MTurk/v2_DepthDuration_HTML.html#357,357,1366,768,1366,768,9-3-2022,10-14-4,107,depth_duration_stimuli/000103_2014-05-14_22-01-17_260595134347_rgbf000152-resize_5/000103_2014-05-14_22-01-17_260595134347_rgbf000152-resize_5-target.png,1000,1.993,4,3707,999,meters,jsons/v1_VE1000_randls_9.json,1180832,1324576,31,Woman
107,997583,DepthScenes,duration_manipulation_targetAtFixation,jsons/v1_VE1000_randls_9.json,http://54.235.29.9/FacialAge/BNav_EC2/DepthDuration/v2_depth_duration_MTurk/v2_DepthDuration_HTML.html#357,357,1366,768,1366,768,9-3-2022,10-14-4,108,depth_duration_stimuli/000929_2014-06-09_16-33-19_260595134347_rgbf000139-resize_0/000929_2014-06-09_16-33-19_260595134347_rgbf000139-resize_0-target.png,1000,2.8680000000000003,4,8857,1000,meters,jsons/v1_VE1000_randls_9.json,1180832,1324576,31,Woman
108,997583,DepthScenes,duration_manipulation_targetAtFixation,jsons/v1_VE1000_randls_9.json,http://54.235.29.9/FacialAge/BNav_EC2/DepthDuration/v2_depth_duration_MTurk/v2_DepthDuration_HTML.html#357,357,1366,768,1366,768,9-3-2022,10-14-4,109,depth_duration_stimuli/000457_2014-06-08_16-52-43_260595134347_rgbf000199-resize_1/000457_2014-06-08_16-52-43_260595134347_rgbf000199-resize_1-target.png,1000,3.6489999999999996,4,4167,999,meters,jsons/v1_VE1000_randls_9.json,1180832,1324576,31,Woman
109,997583,DepthScenes,duration_manipulation_targetAtFixation,jsons/v1_VE1000_randls_9.json,http://54.235.29.9/FacialAge/BNav_EC2/DepthDuration/v2_depth_duration_MTurk/v2_DepthDuration_HTML.html#357,357,1366,768,1366,768,9-3-2022,10-14-4,110,depth_duration_stimuli/002213_2014-06-28_18-37-58_260595134347_rgbf000055-resize_1/002213_2014-06-28_18-37-58_260595134347_rgbf000055-resize_1-target.png,1000,3.62,4,9280,1002,meters,jsons/v1_VE1000_randls_9.json,1180832,1324576,31,Woman
110,997583,DepthScenes,duration_manipulation_targetAtFixation,jsons/v1_VE1000_randls_9.json,http://54.235.29.9/FacialAge/BNav_EC2/DepthDuration/v2_depth_duration_MTurk/v2_DepthDuration_HTML.html#357,357,1366,768,1366,768,9-3-2022,10-14-4,111,depth_duration_stimuli/000691_2014-06-08_13-08-50_260595134347_rgbf000132-resize_3/000691_2014-06-08_13-08-50_260595134347_rgbf000132-resize_3-target.png,1000,4.1530000000000005,3,4111,1002,meters,jsons/v1_VE1000_randls_9.json,1180832,1324576,31,Woman
111,997583,DepthScenes,duration_manipulation_targetAtFixation,jsons/v1_VE1000_randls_9.json,http://54.235.29.9/FacialAge/BNav_EC2/DepthDuration/v2_depth_duration_MTurk/v2_DepthDuration_HTML.html#357,357,1366,768,1366,768,9-3-2022,10-14-4,112,depth_duration_stimuli/002153_2014-06-25_21-27-18_260595134347_rgbf000038-resize_5/002153_2014-06-25_21-27-18_260595134347_rgbf000038-resize_5-target.png,1000,2.505,2,8845,999,meters,jsons/v1_VE1000_randls_9.json,1180832,1324576,31,Woman
112,997583,DepthScenes,duration_manipulation_targetAtFixation,jsons/v1_VE1000_randls_9.json,http://54.235.29.9/FacialAge/BNav_EC2/DepthDuration/v2_depth_duration_MTurk/v2_DepthDuration_HTML.html#357,357,1366,768,1366,768,9-3-2022,10-14-4,113,depth_duration_stimuli/002660_2014-06-13_15-44-18_094959634447_rgbf001878-resize_2/002660_2014-06-13_15-44-18_094959634447_rgbf001878-resize_2-target.png,1000,3.576,3,4242,1001,meters,jsons/v1_VE1000_randls_9.json,1180832,1324576,31,Woman
113,997583,DepthScenes,duration_manipulation_targetAtFixation,jsons/v1_VE1000_randls_9.json,http://54.235.29.9/FacialAge/BNav_EC2/DepthDuration/v2_depth_duration_MTurk/v2_DepthDuration_HTML.html#357,357,1366,768,1366,768,9-3-2022,10-14-4,114,depth_duration_stimuli/000810_2014-06-08_17-20-01_260595134347_rgbf000105-resize_0/000810_2014-06-08_17-20-01_260595134347_rgbf000105-resize_0-target.png,1000,1.4865,3,8139,1001,meters,jsons/v1_VE1000_randls_9.json,1180832,1324576,31,Woman
114,997583,DepthScenes,duration_manipulation_targetAtFixation,jsons/v1_VE1000_randls_9.json,http://54.235.29.9/FacialAge/BNav_EC2/DepthDuration/v2_depth_duration_MTurk/v2_DepthDuration_HTML.html#357,357,1366,768,1366,768,9-3-2022,10-14-4,115,depth_duration_stimuli/001214_2014-06-17_16-13-55_260595134347_rgbf000111-resize_0/001214_2014-06-17_16-13-55_260595134347_rgbf000111-resize_0-target.png,1000,2.6505,3,4087,999,meters,jsons/v1_VE1000_randls_9.json,1180832,1324576,31,Woman
115,997583,DepthScenes,duration_manipulation_targetAtFixation,jsons/v1_VE1000_randls_9.json,http://54.235.29.9/FacialAge/BNav_EC2/DepthDuration/v2_depth_duration_MTurk/v2_DepthDuration_HTML.html#357,357,1366,768,1366,768,9-3-2022,10-14-4,116,depth_duration_stimuli/001170_2014-06-17_15-43-44_260595134347_rgbf000096-resize_6/001170_2014-06-17_15-43-44_260595134347_rgbf000096-resize-original.jpg,1000,1.1909999999999998,3,5450,1000,meters,jsons/v1_VE1000_randls_9.json,1180832,1324576,31,Woman
116,997583,DepthScenes,duration_manipulation_targetAtFixation,jsons/v1_VE1000_randls_9.json,http://54.235.29.9/FacialAge/BNav_EC2/DepthDuration/v2_depth_duration_MTurk/v2_DepthDuration_HTML.html#357,357,1366,768,1366,768,9-3-2022,10-14-4,117,depth_duration_stimuli/000642_2014-06-08_16-59-25_260595134347_rgbf000098-resize_2/000642_2014-06-08_16-59-25_260595134347_rgbf000098-resize_2-target.png,1000,2.8815,3,6719,1001,meters,jsons/v1_VE1000_randls_9.json,1180832,1324576,31,Woman
117,997583,DepthScenes,duration_manipulation_targetAtFixation,jsons/v1_VE1000_randls_9.json,http://54.235.29.9/FacialAge/BNav_EC2/DepthDuration/v2_depth_duration_MTurk/v2_DepthDuration_HTML.html#357,357,1366,768,1366,768,9-3-2022,10-14-4,118,depth_duration_stimuli/002425_2014-06-28_20-27-29_260595134347_rgbf000031-resize_8/002425_2014-06-28_20-27-29_260595134347_rgbf000031-resize_8-target.png,1000,3.8960000000000004,3,8240,1000,meters,jsons/v1_VE1000_randls_9.json,1180832,1324576,31,Woman
118,997583,DepthScenes,duration_manipulation_targetAtFixation,jsons/v1_VE1000_randls_9.json,http://54.235.29.9/FacialAge/BNav_EC2/DepthDuration/v2_depth_duration_MTurk/v2_DepthDuration_HTML.html#357,357,1366,768,1366,768,9-3-2022,10-14-4,119,depth_duration_stimuli/002057_2014-06-24_21-00-13_260595134347_rgbf000120-resize_1/002057_2014-06-24_21-00-13_260595134347_rgbf000120-resize_1-target.png,1000,2.967,3,9080,1001,meters,jsons/v1_VE1000_randls_9.json,1180832,1324576,31,Woman
119,997583,DepthScenes,duration_manipulation_targetAtFixation,jsons/v1_VE1000_randls_9.json,http://54.235.29.9/FacialAge/BNav_EC2/DepthDuration/v2_depth_duration_MTurk/v2_DepthDuration_HTML.html#357,357,1366,768,1366,768,9-3-2022,10-14-4,120,depth_duration_stimuli/000709_2014-06-08_13-51-55_260595134347_rgbf000068-resize_3/000709_2014-06-08_13-51-55_260595134347_rgbf000068-resize_3-target.png,1000,1.8030000000000002,2,3810,1000,meters,jsons/v1_VE1000_randls_9.json,1180832,1324576,31,Woman
120,997583,DepthScenes,duration_manipulation_targetAtFixation,jsons/v1_VE1000_randls_9.json,http://54.235.29.9/FacialAge/BNav_EC2/DepthDuration/v2_depth_duration_MTurk/v2_DepthDuration_HTML.html#357,357,1366,768,1366,768,9-3-2022,10-14-4,121,depth_duration_stimuli/001011_2014-06-08_23-18-54_260595134347_rgbf000044-resize_4/001011_2014-06-08_23-18-54_260595134347_rgbf000044-resize_4-target.png,1000,2.4730000000000003,2,9249,1001,meters,jsons/v1_VE1000_randls_9.json,1180832,1324576,31,Woman
121,997583,DepthScenes,duration_manipulation_targetAtFixation,jsons/v1_VE1000_randls_9.json,http://54.235.29.9/FacialAge/BNav_EC2/DepthDuration/v2_depth_duration_MTurk/v2_DepthDuration_HTML.html#357,357,1366,768,1366,768,9-3-2022,10-14-4,122,depth_duration_stimuli/002875_2014-06-01_15-19-00_094959634447_rgbf000151-resize_1/002875_2014-06-01_15-19-00_094959634447_rgbf000151-resize_1-target.png,1000,1.9675,3,4759,999,meters,jsons/v1_VE1000_randls_9.json,1180832,1324576,31,Woman
122,997583,DepthScenes,duration_manipulation_targetAtFixation,jsons/v1_VE1000_randls_9.json,http://54.235.29.9/FacialAge/BNav_EC2/DepthDuration/v2_depth_duration_MTurk/v2_DepthDuration_HTML.html#357,357,1366,768,1366,768,9-3-2022,10-14-4,123,depth_duration_stimuli/001056_2014-06-08_18-46-44_260595134347_rgbf000068-resize_0/001056_2014-06-08_18-46-44_260595134347_rgbf000068-resize_0-target.png,1000,2.6625,3,8699,999,meters,jsons/v1_VE1000_randls_9.json,1180832,1324576,31,Woman
123,997583,DepthScenes,duration_manipulation_targetAtFixation,jsons/v1_VE1000_randls_9.json,http://54.235.29.9/FacialAge/BNav_EC2/DepthDuration/v2_depth_duration_MTurk/v2_DepthDuration_HTML.html#357,357,1366,768,1366,768,9-3-2022,10-14-4,124,depth_duration_stimuli/002199_2014-06-28_18-33-56_260595134347_rgbf000074-resize_0/002199_2014-06-28_18-33-56_260595134347_rgbf000074-resize_0-target.png,1000,1.996,2,3599,1001,meters,jsons/v1_VE1000_randls_9.json,1180832,1324576,31,Woman
124,997583,DepthScenes,duration_manipulation_targetAtFixation,jsons/v1_VE1000_randls_9.json,http://54.235.29.9/FacialAge/BNav_EC2/DepthDuration/v2_depth_duration_MTurk/v2_DepthDuration_HTML.html#357,357,1366,768,1366,768,9-3-2022,10-14-4,125,depth_duration_stimuli/000436_2014-06-09_22-25-11_260595134347_rgbf000137-resize_1/000436_2014-06-09_22-25-11_260595134347_rgbf000137-resize_1-target.png,1000,4.0705,3,9380,1001,meters,jsons/v1_VE1000_randls_9.json,1180832,1324576,31,Woman
125,997583,DepthScenes,duration_manipulation_targetAtFixation,jsons/v1_VE1000_randls_9.json,http://54.235.29.9/FacialAge/BNav_EC2/DepthDuration/v2_depth_duration_MTurk/v2_DepthDuration_HTML.html#357,357,1366,768,1366,768,9-3-2022,10-14-4,126,depth_duration_stimuli/002444_2014-06-28_20-32-08_260595134347_rgbf000027-resize_0/002444_2014-06-28_20-32-08_260595134347_rgbf000027-resize_0-target.png,1000,4.388999999999999,2,4239,1002,meters,jsons/v1_VE1000_randls_9.json,1180832,1324576,31,Woman
126,997583,DepthScenes,duration_manipulation_targetAtFixation,jsons/v1_VE1000_randls_9.json,http://54.235.29.9/FacialAge/BNav_EC2/DepthDuration/v2_depth_duration_MTurk/v2_DepthDuration_HTML.html#357,357,1366,768,1366,768,9-3-2022,10-14-4,127,depth_duration_stimuli/000739_2014-06-08_18-45-58_260595134347_rgbf000068-resize_1/000739_2014-06-08_18-45-58_260595134347_rgbf000068-resize_1-target.png,1000,3.534,3,7957,1000,meters,jsons/v1_VE1000_randls_9.json,1180832,1324576,31,Woman
127,997583,DepthScenes,duration_manipulation_targetAtFixation,jsons/v1_VE1000_randls_9.json,http://54.235.29.9/FacialAge/BNav_EC2/DepthDuration/v2_depth_duration_MTurk/v2_DepthDuration_HTML.html#357,357,1366,768,1366,768,9-3-2022,10-14-4,128,depth_duration_stimuli/000734_2014-06-08_17-39-11_260595134347_rgbf000128-resize_2/000734_2014-06-08_17-39-11_260595134347_rgbf000128-resize_2-target.png,1000,4.098,2,3780,1000,meters,jsons/v1_VE1000_randls_9.json,1180832,1324576,31,Woman
128,997583,DepthScenes,duration_manipulation_targetAtFixation,jsons/v1_VE1000_randls_9.json,http://54.235.29.9/FacialAge/BNav_EC2/DepthDuration/v2_depth_duration_MTurk/v2_DepthDuration_HTML.html#357,357,1366,768,1366,768,9-3-2022,10-14-4,129,depth_duration_stimuli/001066_2014-06-08_22-03-20_260595134347_rgbf000066-resize_4/001066_2014-06-08_22-03-20_260595134347_rgbf000066-resize_4-target.png,1000,4.2330000000000005,2,7341,1001,meters,jsons/v1_VE1000_randls_9.json,1180832,1324576,31,Woman
129,997583,DepthScenes,duration_manipulation_targetAtFixation,jsons/v1_VE1000_randls_9.json,http://54.235.29.9/FacialAge/BNav_EC2/DepthDuration/v2_depth_duration_MTurk/v2_DepthDuration_HTML.html#357,357,1366,768,1366,768,9-3-2022,10-14-4,130,depth_duration_stimuli/000742_2014-06-08_18-48-09_260595134347_rgbf000164-resize_4/000742_2014-06-08_18-48-09_260595134347_rgbf000164-resize_4-target.png,1000,4.632,2,4429,1001,meters,jsons/v1_VE1000_randls_9.json,1180832,1324576,31,Woman
130,997583,DepthScenes,duration_manipulation_targetAtFixation,jsons/v1_VE1000_randls_9.json,http://54.235.29.9/FacialAge/BNav_EC2/DepthDuration/v2_depth_duration_MTurk/v2_DepthDuration_HTML.html#357,357,1366,768,1366,768,9-3-2022,10-14-4,131,depth_duration_stimuli/000368_2014-06-09_15-53-01_260595134347_rgbf000155-resize_2/000368_2014-06-09_15-53-01_260595134347_rgbf000155-resize_2-target.png,1000,2.4859999999999998,3,7149,999,meters,jsons/v1_VE1000_randls_9.json,1180832,1324576,31,Woman
131,997583,DepthScenes,duration_manipulation_targetAtFixation,jsons/v1_VE1000_randls_9.json,http://54.235.29.9/FacialAge/BNav_EC2/DepthDuration/v2_depth_duration_MTurk/v2_DepthDuration_HTML.html#357,357,1366,768,1366,768,9-3-2022,10-14-4,132,depth_duration_stimuli/002678_2014-06-13_16-15-32_094959634447_rgbf000151-resize_6/002678_2014-06-13_16-15-32_094959634447_rgbf000151-resize_6-target.png,1000,2.1830000000000003,4,4318,1000,meters,jsons/v1_VE1000_randls_9.json,1180832,1324576,31,Woman
132,997583,DepthScenes,duration_manipulation_targetAtFixation,jsons/v1_VE1000_randls_9.json,http://54.235.29.9/FacialAge/BNav_EC2/DepthDuration/v2_depth_duration_MTurk/v2_DepthDuration_HTML.html#357,357,1366,768,1366,768,9-3-2022,10-14-4,133,depth_duration_stimuli/000682_2014-06-08_23-14-58_260595134347_rgbf000041-resize_5/000682_2014-06-08_23-14-58_260595134347_rgbf000041-resize_5-target.png,1000,2.7239999999999998,3,5741,1001,meters,jsons/v1_VE1000_randls_9.json,1180832,1324576,31,Woman
133,997583,DepthScenes,duration_manipulation_targetAtFixation,jsons/v1_VE1000_randls_9.json,http://54.235.29.9/FacialAge/BNav_EC2/DepthDuration/v2_depth_duration_MTurk/v2_DepthDuration_HTML.html#357,357,1366,768,1366,768,9-3-2022,10-14-4,134,depth_duration_stimuli/001650_2014-06-20_12-09-00_260595134347_rgbf000087-resize_3/001650_2014-06-20_12-09-00_260595134347_rgbf000087-resize_3-target.png,1000,1.9505,3,4270,999,meters,jsons/v1_VE1000_randls_9.json,1180832,1324576,31,Woman
134,997583,DepthScenes,duration_manipulation_targetAtFixation,jsons/v1_VE1000_randls_9.json,http://54.235.29.9/FacialAge/BNav_EC2/DepthDuration/v2_depth_duration_MTurk/v2_DepthDuration_HTML.html#357,357,1366,768,1366,768,9-3-2022,10-14-4,135,depth_duration_stimuli/002072_2014-06-24_21-48-06_260595134347_rgbf000115-resize_0/002072_2014-06-24_21-48-06_260595134347_rgbf000115-resize-original.jpg,1000,4.702,0,7644,1001,meters,jsons/v1_VE1000_randls_9.json,1180832,1324576,31,Woman
135,997583,DepthScenes,duration_manipulation_targetAtFixation,jsons/v1_VE1000_randls_9.json,http://54.235.29.9/FacialAge/BNav_EC2/DepthDuration/v2_depth_duration_MTurk/v2_DepthDuration_HTML.html#357,357,1366,768,1366,768,9-3-2022,10-14-4,136,depth_duration_stimuli/001158_2014-06-17_15-32-16_260595134347_rgbf000138-resize_2/001158_2014-06-17_15-32-16_260595134347_rgbf000138-resize_2-target.png,1000,4.5315,3,6616,999,meters,jsons/v1_VE1000_randls_9.json,1180832,1324576,31,Woman
136,997583,DepthScenes,duration_manipulation_targetAtFixation,jsons/v1_VE1000_randls_9.json,http://54.235.29.9/FacialAge/BNav_EC2/DepthDuration/v2_depth_duration_MTurk/v2_DepthDuration_HTML.html#357,357,1366,768,1366,768,9-3-2022,10-14-4,137,depth_duration_stimuli/000556_2014-06-09_22-42-56_260595134347_rgbf000214-resize_1/000556_2014-06-09_22-42-56_260595134347_rgbf000214-resize_1-target.png,1000,4.8415,3,3424,1000,meters,jsons/v1_VE1000_randls_9.json,1180832,1324576,31,Woman
137,997583,DepthScenes,duration_manipulation_targetAtFixation,jsons/v1_VE1000_randls_9.json,http://54.235.29.9/FacialAge/BNav_EC2/DepthDuration/v2_depth_duration_MTurk/v2_DepthDuration_HTML.html#357,357,1366,768,1366,768,9-3-2022,10-14-4,138,depth_duration_stimuli/002279_2014-06-28_18-55-32_260595134347_rgbf000040-resize_5/002279_2014-06-28_18-55-32_260595134347_rgbf000040-resize_5-target.png,1000,1.5043333333333,2,6515,1000,meters,jsons/v1_VE1000_randls_9.json,1180832,1324576,31,Woman
138,997583,DepthScenes,duration_manipulation_targetAtFixation,jsons/v1_VE1000_randls_9.json,http://54.235.29.9/FacialAge/BNav_EC2/DepthDuration/v2_depth_duration_MTurk/v2_DepthDuration_HTML.html#357,357,1366,768,1366,768,9-3-2022,10-14-4,139,depth_duration_stimuli/000635_2014-06-08_16-38-42_260595134347_rgbf000106-resize_1/000635_2014-06-08_16-38-42_260595134347_rgbf000106-resize_1-target.png,1000,2.074,2,4607,1000,meters,jsons/v1_VE1000_randls_9.json,1180832,1324576,31,Woman
139,997583,DepthScenes,duration_manipulation_targetAtFixation,jsons/v1_VE1000_randls_9.json,http://54.235.29.9/FacialAge/BNav_EC2/DepthDuration/v2_depth_duration_MTurk/v2_DepthDuration_HTML.html#357,357,1366,768,1366,768,9-3-2022,10-14-4,140,depth_duration_stimuli/000906_2014-06-08_13-35-43_260595134347_rgbf000155-resize_1/000906_2014-06-08_13-35-43_260595134347_rgbf000155-resize_1-target.png,1000,2.8489999999999998,2,7670,999,meters,jsons/v1_VE1000_randls_9.json,1180832,1324576,31,Woman
140,997583,DepthScenes,duration_manipulation_targetAtFixation,jsons/v1_VE1000_randls_9.json,http://54.235.29.9/FacialAge/BNav_EC2/DepthDuration/v2_depth_duration_MTurk/v2_DepthDuration_HTML.html#357,357,1366,768,1366,768,9-3-2022,10-14-4,141,depth_duration_stimuli/002805_2014-06-22_19-54-03_094959634447_rgbf000079-resize_1/002805_2014-06-22_19-54-03_094959634447_rgbf000079-resize_1-target.png,1000,3.1439999999999997,3,3779,1000,meters,jsons/v1_VE1000_randls_9.json,1180832,1324576,31,Woman
141,997583,DepthScenes,duration_manipulation_targetAtFixation,jsons/v1_VE1000_randls_9.json,http://54.235.29.9/FacialAge/BNav_EC2/DepthDuration/v2_depth_duration_MTurk/v2_DepthDuration_HTML.html#357,357,1366,768,1366,768,9-3-2022,10-14-4,142,depth_duration_stimuli/003292_2014-05-14_21-53-49_094959634447_rgbf000100-resize_2/003292_2014-05-14_21-53-49_094959634447_rgbf000100-resize_2-target.png,1000,3.4815,2,9909,1000,meters,jsons/v1_VE1000_randls_9.json,1180832,1324576,31,Woman
142,997583,DepthScenes,duration_manipulation_targetAtFixation,jsons/v1_VE1000_randls_9.json,http://54.235.29.9/FacialAge/BNav_EC2/DepthDuration/v2_depth_duration_MTurk/v2_DepthDuration_HTML.html#357,357,1366,768,1366,768,9-3-2022,10-14-4,143,depth_duration_stimuli/002639_2014-06-24_14-51-37_094959634447_rgbf000074-resize_4/002639_2014-06-24_14-51-37_094959634447_rgbf000074-resize_4-target.png,1000,4.0375,2,3500,1001,meters,jsons/v1_VE1000_randls_9.json,1180832,1324576,31,Woman
143,997583,DepthScenes,duration_manipulation_targetAtFixation,jsons/v1_VE1000_randls_9.json,http://54.235.29.9/FacialAge/BNav_EC2/DepthDuration/v2_depth_duration_MTurk/v2_DepthDuration_HTML.html#357,357,1366,768,1366,768,9-3-2022,10-14-4,144,depth_duration_stimuli/001570_2014-06-20_17-21-09_260595134347_rgbf000135-resize_4/001570_2014-06-20_17-21-09_260595134347_rgbf000135-resize_4-target.png,1000,4.467,2,9144,1001,meters,jsons/v1_VE1000_randls_9.json,1180832,1324576,31,Woman
144,997583,DepthScenes,duration_manipulation_targetAtFixation,jsons/v1_VE1000_randls_9.json,http://54.235.29.9/FacialAge/BNav_EC2/DepthDuration/v2_depth_duration_MTurk/v2_DepthDuration_HTML.html#357,357,1366,768,1366,768,9-3-2022,10-14-4,145,depth_duration_stimuli/001392_2014-06-19_16-07-59_260595134347_rgbf000046-resize_1/001392_2014-06-19_16-07-59_260595134347_rgbf000046-resize_1-target.png,1000,4.135,2,4274,999,meters,jsons/v1_VE1000_randls_9.json,1180832,1324576,31,Woman
145,997583,DepthScenes,duration_manipulation_targetAtFixation,jsons/v1_VE1000_randls_9.json,http://54.235.29.9/FacialAge/BNav_EC2/DepthDuration/v2_depth_duration_MTurk/v2_DepthDuration_HTML.html#357,357,1366,768,1366,768,9-3-2022,10-14-4,146,depth_duration_stimuli/001498_2014-06-19_17-45-14_260595134347_rgbf000129-resize_4/001498_2014-06-19_17-45-14_260595134347_rgbf000129-resize-original.jpg,1000,1.4075,2,10413,1001,meters,jsons/v1_VE1000_randls_9.json,1180832,1324576,31,Woman
146,997583,DepthScenes,duration_manipulation_targetAtFixation,jsons/v1_VE1000_randls_9.json,http://54.235.29.9/FacialAge/BNav_EC2/DepthDuration/v2_depth_duration_MTurk/v2_DepthDuration_HTML.html#357,357,1366,768,1366,768,9-3-2022,10-14-4,147,depth_duration_stimuli/002989_2014-06-15_12-25-03_094959634447_rgbf000150-resize_3/002989_2014-06-15_12-25-03_094959634447_rgbf000150-resize_3-target.png,1000,4.1975,3,9865,1000,meters,jsons/v1_VE1000_randls_9.json,1180832,1324576,31,Woman
147,997583,DepthScenes,duration_manipulation_targetAtFixation,jsons/v1_VE1000_randls_9.json,http://54.235.29.9/FacialAge/BNav_EC2/DepthDuration/v2_depth_duration_MTurk/v2_DepthDuration_HTML.html#357,357,1366,768,1366,768,9-3-2022,10-14-4,148,depth_duration_stimuli/000866_2014-06-09_20-45-42_260595134347_rgbf000139-resize_1/000866_2014-06-09_20-45-42_260595134347_rgbf000139-resize_1-target.png,1000,3.2155,2,3778,1000,meters,jsons/v1_VE1000_randls_9.json,1180832,1324576,31,Woman
148,997583,DepthScenes,duration_manipulation_targetAtFixation,jsons/v1_VE1000_randls_9.json,http://54.235.29.9/FacialAge/BNav_EC2/DepthDuration/v2_depth_duration_MTurk/v2_DepthDuration_HTML.html#357,357,1366,768,1366,768,9-3-2022,10-14-4,149,depth_duration_stimuli/000506_2014-06-08_23-21-00_260595134347_rgbf000070-resize_7/000506_2014-06-08_23-21-00_260595134347_rgbf000070-resize_7-target.png,1000,4.0585,3,9225,1000,meters,jsons/v1_VE1000_randls_9.json,1180832,1324576,31,Woman
149,997583,DepthScenes,duration_manipulation_targetAtFixation,jsons/v1_VE1000_randls_9.json,http://54.235.29.9/FacialAge/BNav_EC2/DepthDuration/v2_depth_duration_MTurk/v2_DepthDuration_HTML.html#357,357,1366,768,1366,768,9-3-2022,10-14-4,150,depth_duration_stimuli/003079_2014-06-15_15-18-20_094959634447_rgbf000152-resize_8/003079_2014-06-15_15-18-20_094959634447_rgbf000152-resize_8-target.png,1000,2.8775,3,4160,1000,meters,jsons/v1_VE1000_randls_9.json,1180832,1324576,31,Woman
150,997583,DepthScenes,duration_manipulation_targetAtFixation,jsons/v1_VE1000_randls_9.json,http://54.235.29.9/FacialAge/BNav_EC2/DepthDuration/v2_depth_duration_MTurk/v2_DepthDuration_HTML.html#357,357,1366,768,1366,768,9-3-2022,10-14-4,151,depth_duration_stimuli/001449_2014-06-19_17-01-27_260595134347_rgbf000116-resize_2/001449_2014-06-19_17-01-27_260595134347_rgbf000116-resize_2-target.png,1000,3.452,3,8466,999,meters,jsons/v1_VE1000_randls_9.json,1180832,1324576,31,Woman
151,997583,DepthScenes,duration_manipulation_targetAtFixation,jsons/v1_VE1000_randls_9.json,http://54.235.29.9/FacialAge/BNav_EC2/DepthDuration/v2_depth_duration_MTurk/v2_DepthDuration_HTML.html#357,357,1366,768,1366,768,9-3-2022,10-14-4,152,depth_duration_stimuli/001450_2014-06-19_17-02-03_260595134347_rgbf000203-resize_4/001450_2014-06-19_17-02-03_260595134347_rgbf000203-resize_4-target.png,1000,4.0106666666667,3,4241,999,meters,jsons/v1_VE1000_randls_9.json,1180832,1324576,31,Woman
152,997583,DepthScenes,duration_manipulation_targetAtFixation,jsons/v1_VE1000_randls_9.json,http://54.235.29.9/FacialAge/BNav_EC2/DepthDuration/v2_depth_duration_MTurk/v2_DepthDuration_HTML.html#357,357,1366,768,1366,768,9-3-2022,10-14-4,153,depth_duration_stimuli/000773_2014-06-08_22-24-54_260595134347_rgbf000093-resize_1/000773_2014-06-08_22-24-54_260595134347_rgbf000093-resize_1-target.png,1000,4.973,2,7664,999,meters,jsons/v1_VE1000_randls_9.json,1180832,1324576,31,Woman
153,997583,DepthScenes,duration_manipulation_targetAtFixation,jsons/v1_VE1000_randls_9.json,http://54.235.29.9/FacialAge/BNav_EC2/DepthDuration/v2_depth_duration_MTurk/v2_DepthDuration_HTML.html#357,357,1366,768,1366,768,9-3-2022,10-14-4,154,depth_duration_stimuli/002414_2014-06-28_20-24-58_260595134347_rgbf000067-resize_4/002414_2014-06-28_20-24-58_260595134347_rgbf000067-resize_4-target.png,1000,4.363,3,3198,1000,meters,jsons/v1_VE1000_randls_9.json,1180832,1324576,31,Woman
154,997583,DepthScenes,duration_manipulation_targetAtFixation,jsons/v1_VE1000_randls_9.json,http://54.235.29.9/FacialAge/BNav_EC2/DepthDuration/v2_depth_duration_MTurk/v2_DepthDuration_HTML.html#357,357,1366,768,1366,768,9-3-2022,10-14-4,155,depth_duration_stimuli/002630_2014-06-24_14-47-50_094959634447_rgbf000055-resize_1/002630_2014-06-24_14-47-50_094959634447_rgbf000055-resize_1-target.png,1000,3.0095,2,8320,1000,meters,jsons/v1_VE1000_randls_9.json,1180832,1324576,31,Woman
155,997583,DepthScenes,duration_manipulation_targetAtFixation,jsons/v1_VE1000_randls_9.json,http://54.235.29.9/FacialAge/BNav_EC2/DepthDuration/v2_depth_duration_MTurk/v2_DepthDuration_HTML.html#357,357,1366,768,1366,768,9-3-2022,10-14-4,156,depth_duration_stimuli/002758_2014-06-22_19-11-20_094959634447_rgbf000128-resize_1/002758_2014-06-22_19-11-20_094959634447_rgbf000128-resize_1-target.png,1000,2.555,2,6281,1001,meters,jsons/v1_VE1000_randls_9.json,1180832,1324576,31,Woman
156,997583,DepthScenes,duration_manipulation_targetAtFixation,jsons/v1_VE1000_randls_9.json,http://54.235.29.9/FacialAge/BNav_EC2/DepthDuration/v2_depth_duration_MTurk/v2_DepthDuration_HTML.html#357,357,1366,768,1366,768,9-3-2022,10-14-4,157,depth_duration_stimuli/000447_2014-06-08_16-15-46_260595134347_rgbf000130-resize_1/000447_2014-06-08_16-15-46_260595134347_rgbf000130-resize_1-target.png,1000,4.479,3,9200,1001,meters,jsons/v1_VE1000_randls_9.json,1180832,1324576,31,Woman
157,997583,DepthScenes,duration_manipulation_targetAtFixation,jsons/v1_VE1000_randls_9.json,http://54.235.29.9/FacialAge/BNav_EC2/DepthDuration/v2_depth_duration_MTurk/v2_DepthDuration_HTML.html#357,357,1366,768,1366,768,9-3-2022,10-14-4,158,depth_duration_stimuli/001447_2014-06-19_17-00-32_260595134347_rgbf000082-resize_5/001447_2014-06-19_17-00-32_260595134347_rgbf000082-resize_5-target.png,1000,4.13775,3,3797,996,meters,jsons/v1_VE1000_randls_9.json,1180832,1324576,31,Woman
158,997583,DepthScenes,duration_manipulation_targetAtFixation,jsons/v1_VE1000_randls_9.json,http://54.235.29.9/FacialAge/BNav_EC2/DepthDuration/v2_depth_duration_MTurk/v2_DepthDuration_HTML.html#357,357,1366,768,1366,768,9-3-2022,10-14-4,159,depth_duration_stimuli/000414_2014-06-04_19-49-13_260595134347_rgbf000044-resize_0/000414_2014-06-04_19-49-13_260595134347_rgbf000044-resize_0-target.png,1000,4.329,2,12308,1000,meters,jsons/v1_VE1000_randls_9.json,1180832,1324576,31,Woman
159,997583,DepthScenes,duration_manipulation_targetAtFixation,jsons/v1_VE1000_randls_9.json,http://54.235.29.9/FacialAge/BNav_EC2/DepthDuration/v2_depth_duration_MTurk/v2_DepthDuration_HTML.html#357,357,1366,768,1366,768,9-3-2022,10-14-4,160,depth_duration_stimuli/003129_2014-05-12_10-48-10_094959634447_rgbf000100-resize_0/003129_2014-05-12_10-48-10_094959634447_rgbf000100-resize_0-target.png,1000,4.9305,3,4428,1011,meters,jsons/v1_VE1000_randls_9.json,1180832,1324576,31,Woman
160,997583,DepthScenes,duration_manipulation_targetAtFixation,jsons/v1_VE1000_randls_9.json,http://54.235.29.9/FacialAge/BNav_EC2/DepthDuration/v2_depth_duration_MTurk/v2_DepthDuration_HTML.html#357,357,1366,768,1366,768,9-3-2022,10-14-4,161,depth_duration_stimuli/002725_2014-06-22_11-47-51_094959634447_rgbf000070-resize_1/002725_2014-06-22_11-47-51_094959634447_rgbf000070-resize_1-target.png,1000,2.195,4,11783,1000,meters,jsons/v1_VE1000_randls_9.json,1180832,1324576,31,Woman
161,997583,DepthScenes,duration_manipulation_targetAtFixation,jsons/v1_VE1000_randls_9.json,http://54.235.29.9/FacialAge/BNav_EC2/DepthDuration/v2_depth_duration_MTurk/v2_DepthDuration_HTML.html#357,357,1366,768,1366,768,9-3-2022,10-14-4,162,depth_duration_stimuli/002344_2014-06-28_20-06-29_260595134347_rgbf000030-resize_1/002344_2014-06-28_20-06-29_260595134347_rgbf000030-resize_1-target.png,1000,1.5795,3,4695,1000,meters,jsons/v1_VE1000_randls_9.json,1180832,1324576,31,Woman
162,997583,DepthScenes,duration_manipulation_targetAtFixation,jsons/v1_VE1000_randls_9.json,http://54.235.29.9/FacialAge/BNav_EC2/DepthDuration/v2_depth_duration_MTurk/v2_DepthDuration_HTML.html#357,357,1366,768,1366,768,9-3-2022,10-14-4,163,depth_duration_stimuli/001175_2014-06-17_15-45-55_260595134347_rgbf000129-resize_4/001175_2014-06-17_15-45-55_260595134347_rgbf000129-resize_4-target.png,1000,4.255,3,11191,1001,meters,jsons/v1_VE1000_randls_9.json,1180832,1324576,31,Woman
163,997583,DepthScenes,duration_manipulation_targetAtFixation,jsons/v1_VE1000_randls_9.json,http://54.235.29.9/FacialAge/BNav_EC2/DepthDuration/v2_depth_duration_MTurk/v2_DepthDuration_HTML.html#357,357,1366,768,1366,768,9-3-2022,10-14-4,164,depth_duration_stimuli/003490_2014-05-21_15-50-11_094959634447_rgbf000101-resize_3/003490_2014-05-21_15-50-11_094959634447_rgbf000101-resize_3-target.png,1000,3.6445,3,3980,1000,meters,jsons/v1_VE1000_randls_9.json,1180832,1324576,31,Woman
