,subjID,experimentName,versionName,sequenceName,url,selected_row,windowWidth,windowHeight,screenWidth,screenHeight,startDate,startTime,trial,stimulus,duration,actual_depth,depth_estimate,trial_RT,log_sceneDuration,unitSelection,seq_filepath,experimentTime,totalTime,age,gender
0,998162,DepthScenes,duration_manipulation_targetAtFixation,jsons/v1_VE1000_randls_21.json,http://54.235.29.9/FacialAge/BNav_EC2/DepthDuration/v2_depth_duration_MTurk/v2_DepthDuration_HTML.html#30,30,1280,609,1280,720,9-3-2022,9-8-33,1,depth_duration_stimuli/000009_2014-05-26_14-32-05_260595134347_rgbf000034-resize_3/000009_2014-05-26_14-32-05_260595134347_rgbf000034-resize_3-target.png,1000,3.8715,10,5618,999,feet,jsons/v1_VE1000_randls_21.json,697056,906118,50,Woman
1,998162,DepthScenes,duration_manipulation_targetAtFixation,jsons/v1_VE1000_randls_21.json,http://54.235.29.9/FacialAge/BNav_EC2/DepthDuration/v2_depth_duration_MTurk/v2_DepthDuration_HTML.html#30,30,1280,609,1280,720,9-3-2022,9-8-33,2,depth_duration_stimuli/001828_2014-06-26_21-40-03_260595134347_rgbf000024-resize_0/001828_2014-06-26_21-40-03_260595134347_rgbf000024-resize_0-target.png,1000,4.8260000000000005,5,4115,1011,feet,jsons/v1_VE1000_randls_21.json,697056,906118,50,Woman
2,998162,DepthScenes,duration_manipulation_targetAtFixation,jsons/v1_VE1000_randls_21.json,http://54.235.29.9/FacialAge/BNav_EC2/DepthDuration/v2_depth_duration_MTurk/v2_DepthDuration_HTML.html#30,30,1280,609,1280,720,9-3-2022,9-8-33,3,depth_duration_stimuli/001056_2014-06-08_18-46-44_260595134347_rgbf000068-resize_0/001056_2014-06-08_18-46-44_260595134347_rgbf000068-resize_0-target.png,1000,2.6625,4,3636,1003,feet,jsons/v1_VE1000_randls_21.json,697056,906118,50,Woman
3,998162,DepthScenes,duration_manipulation_targetAtFixation,jsons/v1_VE1000_randls_21.json,http://54.235.29.9/FacialAge/BNav_EC2/DepthDuration/v2_depth_duration_MTurk/v2_DepthDuration_HTML.html#30,30,1280,609,1280,720,9-3-2022,9-8-33,4,depth_duration_stimuli/002199_2014-06-28_18-33-56_260595134347_rgbf000074-resize_0/002199_2014-06-28_18-33-56_260595134347_rgbf000074-resize_0-target.png,1000,1.996,1,3538,1000,feet,jsons/v1_VE1000_randls_21.json,697056,906118,50,Woman
4,998162,DepthScenes,duration_manipulation_targetAtFixation,jsons/v1_VE1000_randls_21.json,http://54.235.29.9/FacialAge/BNav_EC2/DepthDuration/v2_depth_duration_MTurk/v2_DepthDuration_HTML.html#30,30,1280,609,1280,720,9-3-2022,9-8-33,5,depth_duration_stimuli/000469_2014-06-09_19-42-10_260595134347_rgbf000081-resize_1/000469_2014-06-09_19-42-10_260595134347_rgbf000081-resize_1-target.png,1000,1.652,1,4173,990,feet,jsons/v1_VE1000_randls_21.json,697056,906118,50,Woman
5,998162,DepthScenes,duration_manipulation_targetAtFixation,jsons/v1_VE1000_randls_21.json,http://54.235.29.9/FacialAge/BNav_EC2/DepthDuration/v2_depth_duration_MTurk/v2_DepthDuration_HTML.html#30,30,1280,609,1280,720,9-3-2022,9-8-33,6,depth_duration_stimuli/000483_2014-06-09_20-41-45_260595134347_rgbf000116-resize_4/000483_2014-06-09_20-41-45_260595134347_rgbf000116-resize_4-target.png,1000,1.337,1,3769,984,feet,jsons/v1_VE1000_randls_21.json,697056,906118,50,Woman
6,998162,DepthScenes,duration_manipulation_targetAtFixation,jsons/v1_VE1000_randls_21.json,http://54.235.29.9/FacialAge/BNav_EC2/DepthDuration/v2_depth_duration_MTurk/v2_DepthDuration_HTML.html#30,30,1280,609,1280,720,9-3-2022,9-8-33,7,depth_duration_stimuli/001175_2014-06-17_15-45-55_260595134347_rgbf000129-resize_4/001175_2014-06-17_15-45-55_260595134347_rgbf000129-resize_4-target.png,1000,4.255,8,4027,1011,feet,jsons/v1_VE1000_randls_21.json,697056,906118,50,Woman
7,998162,DepthScenes,duration_manipulation_targetAtFixation,jsons/v1_VE1000_randls_21.json,http://54.235.29.9/FacialAge/BNav_EC2/DepthDuration/v2_depth_duration_MTurk/v2_DepthDuration_HTML.html#30,30,1280,609,1280,720,9-3-2022,9-8-33,8,depth_duration_stimuli/003490_2014-05-21_15-50-11_094959634447_rgbf000101-resize_3/003490_2014-05-21_15-50-11_094959634447_rgbf000101-resize_3-target.png,1000,3.6445,6,3595,991,feet,jsons/v1_VE1000_randls_21.json,697056,906118,50,Woman
8,998162,DepthScenes,duration_manipulation_targetAtFixation,jsons/v1_VE1000_randls_21.json,http://54.235.29.9/FacialAge/BNav_EC2/DepthDuration/v2_depth_duration_MTurk/v2_DepthDuration_HTML.html#30,30,1280,609,1280,720,9-3-2022,9-8-33,9,depth_duration_stimuli/002509_2014-06-24_13-19-22_094959634447_rgbf000077-resize_0/002509_2014-06-24_13-19-22_094959634447_rgbf000077-resize_0-target.png,1000,1.3065,1,3555,1018,feet,jsons/v1_VE1000_randls_21.json,697056,906118,50,Woman
9,998162,DepthScenes,duration_manipulation_targetAtFixation,jsons/v1_VE1000_randls_21.json,http://54.235.29.9/FacialAge/BNav_EC2/DepthDuration/v2_depth_duration_MTurk/v2_DepthDuration_HTML.html#30,30,1280,609,1280,720,9-3-2022,9-8-33,10,depth_duration_stimuli/003338_2014-05-20_11-01-23_094959634447_rgbf000051-resize_6/003338_2014-05-20_11-01-23_094959634447_rgbf000051-resize_6-target.png,1000,1.693,1,3797,1006,feet,jsons/v1_VE1000_randls_21.json,697056,906118,50,Woman
10,998162,DepthScenes,duration_manipulation_targetAtFixation,jsons/v1_VE1000_randls_21.json,http://54.235.29.9/FacialAge/BNav_EC2/DepthDuration/v2_depth_duration_MTurk/v2_DepthDuration_HTML.html#30,30,1280,609,1280,720,9-3-2022,9-8-33,11,depth_duration_stimuli/000493_2014-06-09_21-01-18_260595134347_rgbf000196-resize_3/000493_2014-06-09_21-01-18_260595134347_rgbf000196-resize_3-target.png,1000,3.44,5,3715,1011,feet,jsons/v1_VE1000_randls_21.json,697056,906118,50,Woman
11,998162,DepthScenes,duration_manipulation_targetAtFixation,jsons/v1_VE1000_randls_21.json,http://54.235.29.9/FacialAge/BNav_EC2/DepthDuration/v2_depth_duration_MTurk/v2_DepthDuration_HTML.html#30,30,1280,609,1280,720,9-3-2022,9-8-33,12,depth_duration_stimuli/000191_2014-05-12_17-07-38_260595134347_rgbf000199-resize_0/000191_2014-05-12_17-07-38_260595134347_rgbf000199-resize_0-target.png,1000,3.7995,10,4395,1001,feet,jsons/v1_VE1000_randls_21.json,697056,906118,50,Woman
12,998162,DepthScenes,duration_manipulation_targetAtFixation,jsons/v1_VE1000_randls_21.json,http://54.235.29.9/FacialAge/BNav_EC2/DepthDuration/v2_depth_duration_MTurk/v2_DepthDuration_HTML.html#30,30,1280,609,1280,720,9-3-2022,9-8-33,13,depth_duration_stimuli/000569_2014-06-09_22-51-47_260595134347_rgbf000141-resize_3/000569_2014-06-09_22-51-47_260595134347_rgbf000141-resize-original.jpg,1000,4.512,0,3808,1003,feet,jsons/v1_VE1000_randls_21.json,697056,906118,50,Woman
13,998162,DepthScenes,duration_manipulation_targetAtFixation,jsons/v1_VE1000_randls_21.json,http://54.235.29.9/FacialAge/BNav_EC2/DepthDuration/v2_depth_duration_MTurk/v2_DepthDuration_HTML.html#30,30,1280,609,1280,720,9-3-2022,9-8-33,14,depth_duration_stimuli/001555_2014-06-20_17-12-10_260595134347_rgbf000065-resize_4/001555_2014-06-20_17-12-10_260595134347_rgbf000065-resize_4-target.png,1000,1.633,1,3474,1008,feet,jsons/v1_VE1000_randls_21.json,697056,906118,50,Woman
14,998162,DepthScenes,duration_manipulation_targetAtFixation,jsons/v1_VE1000_randls_21.json,http://54.235.29.9/FacialAge/BNav_EC2/DepthDuration/v2_depth_duration_MTurk/v2_DepthDuration_HTML.html#30,30,1280,609,1280,720,9-3-2022,9-8-33,15,depth_duration_stimuli/000103_2014-05-14_22-01-17_260595134347_rgbf000152-resize_5/000103_2014-05-14_22-01-17_260595134347_rgbf000152-resize_5-target.png,1000,1.993,6,3482,991,feet,jsons/v1_VE1000_randls_21.json,697056,906118,50,Woman
15,998162,DepthScenes,duration_manipulation_targetAtFixation,jsons/v1_VE1000_randls_21.json,http://54.235.29.9/FacialAge/BNav_EC2/DepthDuration/v2_depth_duration_MTurk/v2_DepthDuration_HTML.html#30,30,1280,609,1280,720,9-3-2022,9-8-33,16,depth_duration_stimuli/000642_2014-06-08_16-59-25_260595134347_rgbf000098-resize_2/000642_2014-06-08_16-59-25_260595134347_rgbf000098-resize_2-target.png,1000,2.8815,4,3458,1009,feet,jsons/v1_VE1000_randls_21.json,697056,906118,50,Woman
16,998162,DepthScenes,duration_manipulation_targetAtFixation,jsons/v1_VE1000_randls_21.json,http://54.235.29.9/FacialAge/BNav_EC2/DepthDuration/v2_depth_duration_MTurk/v2_DepthDuration_HTML.html#30,30,1280,609,1280,720,9-3-2022,9-8-33,17,depth_duration_stimuli/002425_2014-06-28_20-27-29_260595134347_rgbf000031-resize_8/002425_2014-06-28_20-27-29_260595134347_rgbf000031-resize_8-target.png,1000,3.8960000000000004,7,4539,1000,feet,jsons/v1_VE1000_randls_21.json,697056,906118,50,Woman
17,998162,DepthScenes,duration_manipulation_targetAtFixation,jsons/v1_VE1000_randls_21.json,http://54.235.29.9/FacialAge/BNav_EC2/DepthDuration/v2_depth_duration_MTurk/v2_DepthDuration_HTML.html#30,30,1280,609,1280,720,9-3-2022,9-8-33,18,depth_duration_stimuli/001449_2014-06-19_17-01-27_260595134347_rgbf000116-resize_2/001449_2014-06-19_17-01-27_260595134347_rgbf000116-resize_2-target.png,1000,3.452,3,3615,1004,feet,jsons/v1_VE1000_randls_21.json,697056,906118,50,Woman
18,998162,DepthScenes,duration_manipulation_targetAtFixation,jsons/v1_VE1000_randls_21.json,http://54.235.29.9/FacialAge/BNav_EC2/DepthDuration/v2_depth_duration_MTurk/v2_DepthDuration_HTML.html#30,30,1280,609,1280,720,9-3-2022,9-8-33,19,depth_duration_stimuli/001450_2014-06-19_17-02-03_260595134347_rgbf000203-resize_4/001450_2014-06-19_17-02-03_260595134347_rgbf000203-resize_4-target.png,1000,4.0106666666667,6,4163,1009,feet,jsons/v1_VE1000_randls_21.json,697056,906118,50,Woman
19,998162,DepthScenes,duration_manipulation_targetAtFixation,jsons/v1_VE1000_randls_21.json,http://54.235.29.9/FacialAge/BNav_EC2/DepthDuration/v2_depth_duration_MTurk/v2_DepthDuration_HTML.html#30,30,1280,609,1280,720,9-3-2022,9-8-33,20,depth_duration_stimuli/001055_2014-06-08_18-45-35_260595134347_rgbf000111-resize_4/001055_2014-06-08_18-45-35_260595134347_rgbf000111-resize_4-target.png,1000,2.4290000000000003,4,3417,1013,feet,jsons/v1_VE1000_randls_21.json,697056,906118,50,Woman
20,998162,DepthScenes,duration_manipulation_targetAtFixation,jsons/v1_VE1000_randls_21.json,http://54.235.29.9/FacialAge/BNav_EC2/DepthDuration/v2_depth_duration_MTurk/v2_DepthDuration_HTML.html#30,30,1280,609,1280,720,9-3-2022,9-8-33,21,depth_duration_stimuli/000549_2014-06-08_22-10-24_260595134347_rgbf000247-resize_3/000549_2014-06-08_22-10-24_260595134347_rgbf000247-resize_3-target.png,1000,1.841,1,3682,1001,feet,jsons/v1_VE1000_randls_21.json,697056,906118,50,Woman
21,998162,DepthScenes,duration_manipulation_targetAtFixation,jsons/v1_VE1000_randls_21.json,http://54.235.29.9/FacialAge/BNav_EC2/DepthDuration/v2_depth_duration_MTurk/v2_DepthDuration_HTML.html#30,30,1280,609,1280,720,9-3-2022,9-8-33,22,depth_duration_stimuli/001011_2014-06-08_23-18-54_260595134347_rgbf000044-resize_4/001011_2014-06-08_23-18-54_260595134347_rgbf000044-resize_4-target.png,1000,2.4730000000000003,3,3491,1006,feet,jsons/v1_VE1000_randls_21.json,697056,906118,50,Woman
22,998162,DepthScenes,duration_manipulation_targetAtFixation,jsons/v1_VE1000_randls_21.json,http://54.235.29.9/FacialAge/BNav_EC2/DepthDuration/v2_depth_duration_MTurk/v2_DepthDuration_HTML.html#30,30,1280,609,1280,720,9-3-2022,9-8-33,23,depth_duration_stimuli/002875_2014-06-01_15-19-00_094959634447_rgbf000151-resize_1/002875_2014-06-01_15-19-00_094959634447_rgbf000151-resize_1-target.png,1000,1.9675,2,3366,995,feet,jsons/v1_VE1000_randls_21.json,697056,906118,50,Woman
23,998162,DepthScenes,duration_manipulation_targetAtFixation,jsons/v1_VE1000_randls_21.json,http://54.235.29.9/FacialAge/BNav_EC2/DepthDuration/v2_depth_duration_MTurk/v2_DepthDuration_HTML.html#30,30,1280,609,1280,720,9-3-2022,9-8-33,24,depth_duration_stimuli/000758_2014-06-08_22-05-08_260595134347_rgbf000085-resize_0/000758_2014-06-08_22-05-08_260595134347_rgbf000085-resize_0-target.png,1000,3.3810000000000002,7,4242,999,feet,jsons/v1_VE1000_randls_21.json,697056,906118,50,Woman
24,998162,DepthScenes,duration_manipulation_targetAtFixation,jsons/v1_VE1000_randls_21.json,http://54.235.29.9/FacialAge/BNav_EC2/DepthDuration/v2_depth_duration_MTurk/v2_DepthDuration_HTML.html#30,30,1280,609,1280,720,9-3-2022,9-8-33,25,depth_duration_stimuli/000854_2014-06-09_19-43-13_260595134347_rgbf000066-resize_0/000854_2014-06-09_19-43-13_260595134347_rgbf000066-resize_0-target.png,1000,3.068,1,3531,1003,feet,jsons/v1_VE1000_randls_21.json,697056,906118,50,Woman
25,998162,DepthScenes,duration_manipulation_targetAtFixation,jsons/v1_VE1000_randls_21.json,http://54.235.29.9/FacialAge/BNav_EC2/DepthDuration/v2_depth_duration_MTurk/v2_DepthDuration_HTML.html#30,30,1280,609,1280,720,9-3-2022,9-8-33,26,depth_duration_stimuli/000470_2014-06-09_19-42-40_260595134347_rgbf000094-resize_1/000470_2014-06-09_19-42-40_260595134347_rgbf000094-resize_1-target.png,1000,1.831,2,3939,1008,feet,jsons/v1_VE1000_randls_21.json,697056,906118,50,Woman
26,998162,DepthScenes,duration_manipulation_targetAtFixation,jsons/v1_VE1000_randls_21.json,http://54.235.29.9/FacialAge/BNav_EC2/DepthDuration/v2_depth_duration_MTurk/v2_DepthDuration_HTML.html#30,30,1280,609,1280,720,9-3-2022,9-8-33,27,depth_duration_stimuli/000109_2014-05-14_23-41-52_260595134347_rgbf000035-resize_9/000109_2014-05-14_23-41-52_260595134347_rgbf000035-resize_9-target.png,1000,1.3545,1,3147,1030,feet,jsons/v1_VE1000_randls_21.json,697056,906118,50,Woman
27,998162,DepthScenes,duration_manipulation_targetAtFixation,jsons/v1_VE1000_randls_21.json,http://54.235.29.9/FacialAge/BNav_EC2/DepthDuration/v2_depth_duration_MTurk/v2_DepthDuration_HTML.html#30,30,1280,609,1280,720,9-3-2022,9-8-33,28,depth_duration_stimuli/001244_2014-06-17_16-47-45_260595134347_rgbf000030-resize_4/001244_2014-06-17_16-47-45_260595134347_rgbf000030-resize_4-target.png,1000,2.0425,2,3219,1000,feet,jsons/v1_VE1000_randls_21.json,697056,906118,50,Woman
28,998162,DepthScenes,duration_manipulation_targetAtFixation,jsons/v1_VE1000_randls_21.json,http://54.235.29.9/FacialAge/BNav_EC2/DepthDuration/v2_depth_duration_MTurk/v2_DepthDuration_HTML.html#30,30,1280,609,1280,720,9-3-2022,9-8-33,29,depth_duration_stimuli/003495_2014-05-21_16-01-51_094959634447_rgbf000100-resize_3/003495_2014-05-21_16-01-51_094959634447_rgbf000100-resize_3-target.png,1000,1.6255,1,3012,1000,feet,jsons/v1_VE1000_randls_21.json,697056,906118,50,Woman
29,998162,DepthScenes,duration_manipulation_targetAtFixation,jsons/v1_VE1000_randls_21.json,http://54.235.29.9/FacialAge/BNav_EC2/DepthDuration/v2_depth_duration_MTurk/v2_DepthDuration_HTML.html#30,30,1280,609,1280,720,9-3-2022,9-8-33,30,depth_duration_stimuli/000375_2014-06-08_11-17-29_260595134347_rgbf000133-resize_2/000375_2014-06-08_11-17-29_260595134347_rgbf000133-resize-original.jpg,1000,4.718,0,3570,1009,feet,jsons/v1_VE1000_randls_21.json,697056,906118,50,Woman
30,998162,DepthScenes,duration_manipulation_targetAtFixation,jsons/v1_VE1000_randls_21.json,http://54.235.29.9/FacialAge/BNav_EC2/DepthDuration/v2_depth_duration_MTurk/v2_DepthDuration_HTML.html#30,30,1280,609,1280,720,9-3-2022,9-8-33,31,depth_duration_stimuli/002905_2014-06-03_18-04-43_094959634447_rgbf000151-resize_2/002905_2014-06-03_18-04-43_094959634447_rgbf000151-resize_2-target.png,1000,2.0295,3,3403,1000,feet,jsons/v1_VE1000_randls_21.json,697056,906118,50,Woman
31,998162,DepthScenes,duration_manipulation_targetAtFixation,jsons/v1_VE1000_randls_21.json,http://54.235.29.9/FacialAge/BNav_EC2/DepthDuration/v2_depth_duration_MTurk/v2_DepthDuration_HTML.html#30,30,1280,609,1280,720,9-3-2022,9-8-33,32,depth_duration_stimuli/003423_2014-05-21_10-23-26_094959634447_rgbf002665-resize_2/003423_2014-05-21_10-23-26_094959634447_rgbf002665-resize_2-target.png,1000,3.2575,12,3523,1006,feet,jsons/v1_VE1000_randls_21.json,697056,906118,50,Woman
32,998162,DepthScenes,duration_manipulation_targetAtFixation,jsons/v1_VE1000_randls_21.json,http://54.235.29.9/FacialAge/BNav_EC2/DepthDuration/v2_depth_duration_MTurk/v2_DepthDuration_HTML.html#30,30,1280,609,1280,720,9-3-2022,9-8-33,33,depth_duration_stimuli/002118_2014-06-25_20-32-08_260595134347_rgbf000078-resize_1/002118_2014-06-25_20-32-08_260595134347_rgbf000078-resize_1-target.png,1000,2.6460000000000004,5,4117,988,feet,jsons/v1_VE1000_randls_21.json,697056,906118,50,Woman
33,998162,DepthScenes,duration_manipulation_targetAtFixation,jsons/v1_VE1000_randls_21.json,http://54.235.29.9/FacialAge/BNav_EC2/DepthDuration/v2_depth_duration_MTurk/v2_DepthDuration_HTML.html#30,30,1280,609,1280,720,9-3-2022,9-8-33,34,depth_duration_stimuli/001516_2014-06-20_16-25-09_260595134347_rgbf000076-resize_2/001516_2014-06-20_16-25-09_260595134347_rgbf000076-resize_2-target.png,1000,1.7445,3,3434,1000,feet,jsons/v1_VE1000_randls_21.json,697056,906118,50,Woman
34,998162,DepthScenes,duration_manipulation_targetAtFixation,jsons/v1_VE1000_randls_21.json,http://54.235.29.9/FacialAge/BNav_EC2/DepthDuration/v2_depth_duration_MTurk/v2_DepthDuration_HTML.html#30,30,1280,609,1280,720,9-3-2022,9-8-33,35,depth_duration_stimuli/002153_2014-06-25_21-27-18_260595134347_rgbf000038-resize_5/002153_2014-06-25_21-27-18_260595134347_rgbf000038-resize_5-target.png,1000,2.505,4,4203,1007,feet,jsons/v1_VE1000_randls_21.json,697056,906118,50,Woman
35,998162,DepthScenes,duration_manipulation_targetAtFixation,jsons/v1_VE1000_randls_21.json,http://54.235.29.9/FacialAge/BNav_EC2/DepthDuration/v2_depth_duration_MTurk/v2_DepthDuration_HTML.html#30,30,1280,609,1280,720,9-3-2022,9-8-33,36,depth_duration_stimuli/002660_2014-06-13_15-44-18_094959634447_rgbf001878-resize_2/002660_2014-06-13_15-44-18_094959634447_rgbf001878-resize_2-target.png,1000,3.576,5,3536,1005,feet,jsons/v1_VE1000_randls_21.json,697056,906118,50,Woman
36,998162,DepthScenes,duration_manipulation_targetAtFixation,jsons/v1_VE1000_randls_21.json,http://54.235.29.9/FacialAge/BNav_EC2/DepthDuration/v2_depth_duration_MTurk/v2_DepthDuration_HTML.html#30,30,1280,609,1280,720,9-3-2022,9-8-33,37,depth_duration_stimuli/002600_2014-06-24_14-27-04_094959634447_rgbf000074-resize_2/002600_2014-06-24_14-27-04_094959634447_rgbf000074-resize_2-target.png,1000,2.7575,7,3500,1003,feet,jsons/v1_VE1000_randls_21.json,697056,906118,50,Woman
37,998162,DepthScenes,duration_manipulation_targetAtFixation,jsons/v1_VE1000_randls_21.json,http://54.235.29.9/FacialAge/BNav_EC2/DepthDuration/v2_depth_duration_MTurk/v2_DepthDuration_HTML.html#30,30,1280,609,1280,720,9-3-2022,9-8-33,38,depth_duration_stimuli/003228_2014-05-14_13-42-35_094959634447_rgbf000101-resize_1/003228_2014-05-14_13-42-35_094959634447_rgbf000101-resize_1-target.png,1000,1.9680000000000002,3,3690,1013,feet,jsons/v1_VE1000_randls_21.json,697056,906118,50,Woman
38,998162,DepthScenes,duration_manipulation_targetAtFixation,jsons/v1_VE1000_randls_21.json,http://54.235.29.9/FacialAge/BNav_EC2/DepthDuration/v2_depth_duration_MTurk/v2_DepthDuration_HTML.html#30,30,1280,609,1280,720,9-3-2022,9-8-33,39,depth_duration_stimuli/002964_2014-06-08_17-46-11_094959634447_rgbf000091-resize_4/002964_2014-06-08_17-46-11_094959634447_rgbf000091-resize_4-target.png,1000,1.6909999999999998,1,3771,999,feet,jsons/v1_VE1000_randls_21.json,697056,906118,50,Woman
39,998162,DepthScenes,duration_manipulation_targetAtFixation,jsons/v1_VE1000_randls_21.json,http://54.235.29.9/FacialAge/BNav_EC2/DepthDuration/v2_depth_duration_MTurk/v2_DepthDuration_HTML.html#30,30,1280,609,1280,720,9-3-2022,9-8-33,40,depth_duration_stimuli/002136_2014-06-25_21-18-03_260595134347_rgbf000109-resize_3/002136_2014-06-25_21-18-03_260595134347_rgbf000109-resize_3-target.png,1000,1.9569999999999999,2,4052,1000,feet,jsons/v1_VE1000_randls_21.json,697056,906118,50,Woman
40,998162,DepthScenes,duration_manipulation_targetAtFixation,jsons/v1_VE1000_randls_21.json,http://54.235.29.9/FacialAge/BNav_EC2/DepthDuration/v2_depth_duration_MTurk/v2_DepthDuration_HTML.html#30,30,1280,609,1280,720,9-3-2022,9-8-33,41,depth_duration_stimuli/003070_2014-06-15_14-58-27_094959634447_rgbf000150-resize_3/003070_2014-06-15_14-58-27_094959634447_rgbf000150-resize_3-target.png,1000,2.9415,8,3843,1012,feet,jsons/v1_VE1000_randls_21.json,697056,906118,50,Woman
41,998162,DepthScenes,duration_manipulation_targetAtFixation,jsons/v1_VE1000_randls_21.json,http://54.235.29.9/FacialAge/BNav_EC2/DepthDuration/v2_depth_duration_MTurk/v2_DepthDuration_HTML.html#30,30,1280,609,1280,720,9-3-2022,9-8-33,42,depth_duration_stimuli/000943_2014-06-09_19-31-07_260595134347_rgbf000128-resize_1/000943_2014-06-09_19-31-07_260595134347_rgbf000128-resize_1-target.png,1000,1.9765,3,3186,1009,feet,jsons/v1_VE1000_randls_21.json,697056,906118,50,Woman
42,998162,DepthScenes,duration_manipulation_targetAtFixation,jsons/v1_VE1000_randls_21.json,http://54.235.29.9/FacialAge/BNav_EC2/DepthDuration/v2_depth_duration_MTurk/v2_DepthDuration_HTML.html#30,30,1280,609,1280,720,9-3-2022,9-8-33,43,depth_duration_stimuli/001150_2014-06-17_15-27-34_260595134347_rgbf000108-resize_2/001150_2014-06-17_15-27-34_260595134347_rgbf000108-resize_2-target.png,1000,4.0325,6,3899,1005,feet,jsons/v1_VE1000_randls_21.json,697056,906118,50,Woman
43,998162,DepthScenes,duration_manipulation_targetAtFixation,jsons/v1_VE1000_randls_21.json,http://54.235.29.9/FacialAge/BNav_EC2/DepthDuration/v2_depth_duration_MTurk/v2_DepthDuration_HTML.html#30,30,1280,609,1280,720,9-3-2022,9-8-33,44,depth_duration_stimuli/000665_2014-06-09_20-42-35_260595134347_rgbf000110-resize_1/000665_2014-06-09_20-42-35_260595134347_rgbf000110-resize_1-target.png,1000,3.057,7,3266,1021,feet,jsons/v1_VE1000_randls_21.json,697056,906118,50,Woman
44,998162,DepthScenes,duration_manipulation_targetAtFixation,jsons/v1_VE1000_randls_21.json,http://54.235.29.9/FacialAge/BNav_EC2/DepthDuration/v2_depth_duration_MTurk/v2_DepthDuration_HTML.html#30,30,1280,609,1280,720,9-3-2022,9-8-33,45,depth_duration_stimuli/000787_2014-06-08_22-33-53_260595134347_rgbf000175-resize_1/000787_2014-06-08_22-33-53_260595134347_rgbf000175-resize-original.jpg,1000,4.784,0,3339,1021,feet,jsons/v1_VE1000_randls_21.json,697056,906118,50,Woman
45,998162,DepthScenes,duration_manipulation_targetAtFixation,jsons/v1_VE1000_randls_21.json,http://54.235.29.9/FacialAge/BNav_EC2/DepthDuration/v2_depth_duration_MTurk/v2_DepthDuration_HTML.html#30,30,1280,609,1280,720,9-3-2022,9-8-33,46,depth_duration_stimuli/001092_2014-06-15_17-34-58_260595134347_rgbf000171-resize_3/001092_2014-06-15_17-34-58_260595134347_rgbf000171-resize_3-target.png,1000,2.6935,3,3660,1001,feet,jsons/v1_VE1000_randls_21.json,697056,906118,50,Woman
46,998162,DepthScenes,duration_manipulation_targetAtFixation,jsons/v1_VE1000_randls_21.json,http://54.235.29.9/FacialAge/BNav_EC2/DepthDuration/v2_depth_duration_MTurk/v2_DepthDuration_HTML.html#30,30,1280,609,1280,720,9-3-2022,9-8-33,47,depth_duration_stimuli/002545_2014-06-24_13-38-53_094959634447_rgbf000080-resize_4/002545_2014-06-24_13-38-53_094959634447_rgbf000080-resize_4-target.png,1000,1.9205,3,3281,1013,feet,jsons/v1_VE1000_randls_21.json,697056,906118,50,Woman
47,998162,DepthScenes,duration_manipulation_targetAtFixation,jsons/v1_VE1000_randls_21.json,http://54.235.29.9/FacialAge/BNav_EC2/DepthDuration/v2_depth_duration_MTurk/v2_DepthDuration_HTML.html#30,30,1280,609,1280,720,9-3-2022,9-8-33,48,depth_duration_stimuli/002445_2014-06-28_20-32-16_260595134347_rgbf000029-resize_4/002445_2014-06-28_20-32-16_260595134347_rgbf000029-resize_4-target.png,1000,2.5315,5,3284,1015,feet,jsons/v1_VE1000_randls_21.json,697056,906118,50,Woman
48,998162,DepthScenes,duration_manipulation_targetAtFixation,jsons/v1_VE1000_randls_21.json,http://54.235.29.9/FacialAge/BNav_EC2/DepthDuration/v2_depth_duration_MTurk/v2_DepthDuration_HTML.html#30,30,1280,609,1280,720,9-3-2022,9-8-33,49,depth_duration_stimuli/000780_2014-06-08_22-28-29_260595134347_rgbf000126-resize_1/000780_2014-06-08_22-28-29_260595134347_rgbf000126-resize_1-target.png,1000,3.3825,10,4180,1012,feet,jsons/v1_VE1000_randls_21.json,697056,906118,50,Woman
49,998162,DepthScenes,duration_manipulation_targetAtFixation,jsons/v1_VE1000_randls_21.json,http://54.235.29.9/FacialAge/BNav_EC2/DepthDuration/v2_depth_duration_MTurk/v2_DepthDuration_HTML.html#30,30,1280,609,1280,720,9-3-2022,9-8-33,50,depth_duration_stimuli/001059_2014-06-08_21-53-27_260595134347_rgbf000061-resize_4/001059_2014-06-08_21-53-27_260595134347_rgbf000061-resize_4-target.png,1000,2.4185,4,3555,1000,feet,jsons/v1_VE1000_randls_21.json,697056,906118,50,Woman
50,998162,DepthScenes,duration_manipulation_targetAtFixation,jsons/v1_VE1000_randls_21.json,http://54.235.29.9/FacialAge/BNav_EC2/DepthDuration/v2_depth_duration_MTurk/v2_DepthDuration_HTML.html#30,30,1280,609,1280,720,9-3-2022,9-8-33,51,depth_duration_stimuli/001032_2014-06-08_13-23-17_260595134347_rgbf000021-resize_3/001032_2014-06-08_13-23-17_260595134347_rgbf000021-resize_3-target.png,1000,3.2725,3,3172,1000,feet,jsons/v1_VE1000_randls_21.json,697056,906118,50,Woman
51,998162,DepthScenes,duration_manipulation_targetAtFixation,jsons/v1_VE1000_randls_21.json,http://54.235.29.9/FacialAge/BNav_EC2/DepthDuration/v2_depth_duration_MTurk/v2_DepthDuration_HTML.html#30,30,1280,609,1280,720,9-3-2022,9-8-33,52,depth_duration_stimuli/003492_2014-05-21_15-50-55_094959634447_rgbf000828-resize_1/003492_2014-05-21_15-50-55_094959634447_rgbf000828-resize_1-target.png,1000,4.06875,10,4307,1012,feet,jsons/v1_VE1000_randls_21.json,697056,906118,50,Woman
52,998162,DepthScenes,duration_manipulation_targetAtFixation,jsons/v1_VE1000_randls_21.json,http://54.235.29.9/FacialAge/BNav_EC2/DepthDuration/v2_depth_duration_MTurk/v2_DepthDuration_HTML.html#30,30,1280,609,1280,720,9-3-2022,9-8-33,53,depth_duration_stimuli/002568_2014-06-24_13-59-21_094959634447_rgbf000062-resize_4/002568_2014-06-24_13-59-21_094959634447_rgbf000062-resize_4-target.png,1000,3.015,10,4067,1007,feet,jsons/v1_VE1000_randls_21.json,697056,906118,50,Woman
53,998162,DepthScenes,duration_manipulation_targetAtFixation,jsons/v1_VE1000_randls_21.json,http://54.235.29.9/FacialAge/BNav_EC2/DepthDuration/v2_depth_duration_MTurk/v2_DepthDuration_HTML.html#30,30,1280,609,1280,720,9-3-2022,9-8-33,54,depth_duration_stimuli/000447_2014-06-08_16-15-46_260595134347_rgbf000130-resize_1/000447_2014-06-08_16-15-46_260595134347_rgbf000130-resize_1-target.png,1000,4.479,12,3332,1010,feet,jsons/v1_VE1000_randls_21.json,697056,906118,50,Woman
54,998162,DepthScenes,duration_manipulation_targetAtFixation,jsons/v1_VE1000_randls_21.json,http://54.235.29.9/FacialAge/BNav_EC2/DepthDuration/v2_depth_duration_MTurk/v2_DepthDuration_HTML.html#30,30,1280,609,1280,720,9-3-2022,9-8-33,55,depth_duration_stimuli/001447_2014-06-19_17-00-32_260595134347_rgbf000082-resize_5/001447_2014-06-19_17-00-32_260595134347_rgbf000082-resize_5-target.png,1000,4.13775,5,3790,994,feet,jsons/v1_VE1000_randls_21.json,697056,906118,50,Woman
55,998162,DepthScenes,duration_manipulation_targetAtFixation,jsons/v1_VE1000_randls_21.json,http://54.235.29.9/FacialAge/BNav_EC2/DepthDuration/v2_depth_duration_MTurk/v2_DepthDuration_HTML.html#30,30,1280,609,1280,720,9-3-2022,9-8-33,56,depth_duration_stimuli/003292_2014-05-14_21-53-49_094959634447_rgbf000100-resize_2/003292_2014-05-14_21-53-49_094959634447_rgbf000100-resize_2-target.png,1000,3.4815,4,3705,1025,feet,jsons/v1_VE1000_randls_21.json,697056,906118,50,Woman
56,998162,DepthScenes,duration_manipulation_targetAtFixation,jsons/v1_VE1000_randls_21.json,http://54.235.29.9/FacialAge/BNav_EC2/DepthDuration/v2_depth_duration_MTurk/v2_DepthDuration_HTML.html#30,30,1280,609,1280,720,9-3-2022,9-8-33,57,depth_duration_stimuli/002639_2014-06-24_14-51-37_094959634447_rgbf000074-resize_4/002639_2014-06-24_14-51-37_094959634447_rgbf000074-resize_4-target.png,1000,4.0375,6,4331,1006,feet,jsons/v1_VE1000_randls_21.json,697056,906118,50,Woman
57,998162,DepthScenes,duration_manipulation_targetAtFixation,jsons/v1_VE1000_randls_21.json,http://54.235.29.9/FacialAge/BNav_EC2/DepthDuration/v2_depth_duration_MTurk/v2_DepthDuration_HTML.html#30,30,1280,609,1280,720,9-3-2022,9-8-33,58,depth_duration_stimuli/002057_2014-06-24_21-00-13_260595134347_rgbf000120-resize_1/002057_2014-06-24_21-00-13_260595134347_rgbf000120-resize_1-target.png,1000,2.967,8,3802,999,feet,jsons/v1_VE1000_randls_21.json,697056,906118,50,Woman
58,998162,DepthScenes,duration_manipulation_targetAtFixation,jsons/v1_VE1000_randls_21.json,http://54.235.29.9/FacialAge/BNav_EC2/DepthDuration/v2_depth_duration_MTurk/v2_DepthDuration_HTML.html#30,30,1280,609,1280,720,9-3-2022,9-8-33,59,depth_duration_stimuli/000709_2014-06-08_13-51-55_260595134347_rgbf000068-resize_3/000709_2014-06-08_13-51-55_260595134347_rgbf000068-resize_3-target.png,1000,1.8030000000000002,2,3435,1000,feet,jsons/v1_VE1000_randls_21.json,697056,906118,50,Woman
59,998162,DepthScenes,duration_manipulation_targetAtFixation,jsons/v1_VE1000_randls_21.json,http://54.235.29.9/FacialAge/BNav_EC2/DepthDuration/v2_depth_duration_MTurk/v2_DepthDuration_HTML.html#30,30,1280,609,1280,720,9-3-2022,9-8-33,60,depth_duration_stimuli/000736_2014-06-08_18-24-15_260595134347_rgbf000206-resize_3/000736_2014-06-08_18-24-15_260595134347_rgbf000206-resize_3-target.png,1000,3.515,5,3434,1006,feet,jsons/v1_VE1000_randls_21.json,697056,906118,50,Woman
60,998162,DepthScenes,duration_manipulation_targetAtFixation,jsons/v1_VE1000_randls_21.json,http://54.235.29.9/FacialAge/BNav_EC2/DepthDuration/v2_depth_duration_MTurk/v2_DepthDuration_HTML.html#30,30,1280,609,1280,720,9-3-2022,9-8-33,61,depth_duration_stimuli/000137_2014-05-20_17-04-49_260595134347_rgbf000120-resize_1/000137_2014-05-20_17-04-49_260595134347_rgbf000120-resize_1-target.png,1000,3.786,5,3727,1009,feet,jsons/v1_VE1000_randls_21.json,697056,906118,50,Woman
61,998162,DepthScenes,duration_manipulation_targetAtFixation,jsons/v1_VE1000_randls_21.json,http://54.235.29.9/FacialAge/BNav_EC2/DepthDuration/v2_depth_duration_MTurk/v2_DepthDuration_HTML.html#30,30,1280,609,1280,720,9-3-2022,9-8-33,62,depth_duration_stimuli/000788_2014-06-08_22-34-36_260595134347_rgbf000131-resize_1/000788_2014-06-08_22-34-36_260595134347_rgbf000131-resize_1-target.png,1000,3.359,4,3988,1000,feet,jsons/v1_VE1000_randls_21.json,697056,906118,50,Woman
62,998162,DepthScenes,duration_manipulation_targetAtFixation,jsons/v1_VE1000_randls_21.json,http://54.235.29.9/FacialAge/BNav_EC2/DepthDuration/v2_depth_duration_MTurk/v2_DepthDuration_HTML.html#30,30,1280,609,1280,720,9-3-2022,9-8-33,63,depth_duration_stimuli/001235_2014-06-17_16-37-36_260595134347_rgbf000084-resize_4/001235_2014-06-17_16-37-36_260595134347_rgbf000084-resize_4-target.png,1000,3.6605,4,3506,990,feet,jsons/v1_VE1000_randls_21.json,697056,906118,50,Woman
63,998162,DepthScenes,duration_manipulation_targetAtFixation,jsons/v1_VE1000_randls_21.json,http://54.235.29.9/FacialAge/BNav_EC2/DepthDuration/v2_depth_duration_MTurk/v2_DepthDuration_HTML.html#30,30,1280,609,1280,720,9-3-2022,9-8-33,64,depth_duration_stimuli/002272_2014-06-28_18-53-56_260595134347_rgbf000067-resize_2/002272_2014-06-28_18-53-56_260595134347_rgbf000067-resize_2-target.png,1000,1.138,1,3171,1000,feet,jsons/v1_VE1000_randls_21.json,697056,906118,50,Woman
64,998162,DepthScenes,duration_manipulation_targetAtFixation,jsons/v1_VE1000_randls_21.json,http://54.235.29.9/FacialAge/BNav_EC2/DepthDuration/v2_depth_duration_MTurk/v2_DepthDuration_HTML.html#30,30,1280,609,1280,720,9-3-2022,9-8-33,65,depth_duration_stimuli/001571_2014-06-20_17-21-32_260595134347_rgbf000089-resize_1/001571_2014-06-20_17-21-32_260595134347_rgbf000089-resize_1-target.png,1000,1.86,2,3378,1000,feet,jsons/v1_VE1000_randls_21.json,697056,906118,50,Woman
65,998162,DepthScenes,duration_manipulation_targetAtFixation,jsons/v1_VE1000_randls_21.json,http://54.235.29.9/FacialAge/BNav_EC2/DepthDuration/v2_depth_duration_MTurk/v2_DepthDuration_HTML.html#30,30,1280,609,1280,720,9-3-2022,9-8-33,66,depth_duration_stimuli/001222_2014-06-17_16-24-06_260595134347_rgbf000073-resize_0/001222_2014-06-17_16-24-06_260595134347_rgbf000073-resize-original.jpg,1000,1.4385,0,3683,1005,feet,jsons/v1_VE1000_randls_21.json,697056,906118,50,Woman
66,998162,DepthScenes,duration_manipulation_targetAtFixation,jsons/v1_VE1000_randls_21.json,http://54.235.29.9/FacialAge/BNav_EC2/DepthDuration/v2_depth_duration_MTurk/v2_DepthDuration_HTML.html#30,30,1280,609,1280,720,9-3-2022,9-8-33,67,depth_duration_stimuli/000739_2014-06-08_18-45-58_260595134347_rgbf000068-resize_1/000739_2014-06-08_18-45-58_260595134347_rgbf000068-resize_1-target.png,1000,3.534,6,3524,1019,feet,jsons/v1_VE1000_randls_21.json,697056,906118,50,Woman
67,998162,DepthScenes,duration_manipulation_targetAtFixation,jsons/v1_VE1000_randls_21.json,http://54.235.29.9/FacialAge/BNav_EC2/DepthDuration/v2_depth_duration_MTurk/v2_DepthDuration_HTML.html#30,30,1280,609,1280,720,9-3-2022,9-8-33,68,depth_duration_stimuli/000734_2014-06-08_17-39-11_260595134347_rgbf000128-resize_2/000734_2014-06-08_17-39-11_260595134347_rgbf000128-resize_2-target.png,1000,4.098,4,3215,989,feet,jsons/v1_VE1000_randls_21.json,697056,906118,50,Woman
68,998162,DepthScenes,duration_manipulation_targetAtFixation,jsons/v1_VE1000_randls_21.json,http://54.235.29.9/FacialAge/BNav_EC2/DepthDuration/v2_depth_duration_MTurk/v2_DepthDuration_HTML.html#30,30,1280,609,1280,720,9-3-2022,9-8-33,69,depth_duration_stimuli/001016_2014-06-09_16-16-10_260595134347_rgbf000112-resize_5/001016_2014-06-09_16-16-10_260595134347_rgbf000112-resize_5-target.png,1000,1.6565,3,3427,1012,feet,jsons/v1_VE1000_randls_21.json,697056,906118,50,Woman
69,998162,DepthScenes,duration_manipulation_targetAtFixation,jsons/v1_VE1000_randls_21.json,http://54.235.29.9/FacialAge/BNav_EC2/DepthDuration/v2_depth_duration_MTurk/v2_DepthDuration_HTML.html#30,30,1280,609,1280,720,9-3-2022,9-8-33,70,depth_duration_stimuli/002340_2014-06-28_20-05-46_260595134347_rgbf000113-resize_0/002340_2014-06-28_20-05-46_260595134347_rgbf000113-resize_0-target.png,1000,2.4735,6,3239,989,feet,jsons/v1_VE1000_randls_21.json,697056,906118,50,Woman
70,998162,DepthScenes,duration_manipulation_targetAtFixation,jsons/v1_VE1000_randls_21.json,http://54.235.29.9/FacialAge/BNav_EC2/DepthDuration/v2_depth_duration_MTurk/v2_DepthDuration_HTML.html#30,30,1280,609,1280,720,9-3-2022,9-8-33,71,depth_duration_stimuli/001110_2014-06-15_17-25-28_260595134347_rgbf000150-resize_1/001110_2014-06-15_17-25-28_260595134347_rgbf000150-resize_1-target.png,1000,1.7115,3,3660,1005,feet,jsons/v1_VE1000_randls_21.json,697056,906118,50,Woman
71,998162,DepthScenes,duration_manipulation_targetAtFixation,jsons/v1_VE1000_randls_21.json,http://54.235.29.9/FacialAge/BNav_EC2/DepthDuration/v2_depth_duration_MTurk/v2_DepthDuration_HTML.html#30,30,1280,609,1280,720,9-3-2022,9-8-33,72,depth_duration_stimuli/000927_2014-06-09_16-32-30_260595134347_rgbf000123-resize_3/000927_2014-06-09_16-32-30_260595134347_rgbf000123-resize_3-target.png,1000,2.6785,5,4033,999,feet,jsons/v1_VE1000_randls_21.json,697056,906118,50,Woman
72,998162,DepthScenes,duration_manipulation_targetAtFixation,jsons/v1_VE1000_randls_21.json,http://54.235.29.9/FacialAge/BNav_EC2/DepthDuration/v2_depth_duration_MTurk/v2_DepthDuration_HTML.html#30,30,1280,609,1280,720,9-3-2022,9-8-33,73,depth_duration_stimuli/002375_2014-06-28_20-13-44_260595134347_rgbf000032-resize_1/002375_2014-06-28_20-13-44_260595134347_rgbf000032-resize_1-target.png,1000,4.0175,5,3251,1006,feet,jsons/v1_VE1000_randls_21.json,697056,906118,50,Woman
73,998162,DepthScenes,duration_manipulation_targetAtFixation,jsons/v1_VE1000_randls_21.json,http://54.235.29.9/FacialAge/BNav_EC2/DepthDuration/v2_depth_duration_MTurk/v2_DepthDuration_HTML.html#30,30,1280,609,1280,720,9-3-2022,9-8-33,74,depth_duration_stimuli/002657_2014-06-13_15-29-54_094959634447_rgbf000150-resize_1/002657_2014-06-13_15-29-54_094959634447_rgbf000150-resize_1-target.png,1000,4.919,15,5005,1003,feet,jsons/v1_VE1000_randls_21.json,697056,906118,50,Woman
74,998162,DepthScenes,duration_manipulation_targetAtFixation,jsons/v1_VE1000_randls_21.json,http://54.235.29.9/FacialAge/BNav_EC2/DepthDuration/v2_depth_duration_MTurk/v2_DepthDuration_HTML.html#30,30,1280,609,1280,720,9-3-2022,9-8-33,75,depth_duration_stimuli/000773_2014-06-08_22-24-54_260595134347_rgbf000093-resize_1/000773_2014-06-08_22-24-54_260595134347_rgbf000093-resize_1-target.png,1000,4.973,12,3803,1002,feet,jsons/v1_VE1000_randls_21.json,697056,906118,50,Woman
75,998162,DepthScenes,duration_manipulation_targetAtFixation,jsons/v1_VE1000_randls_21.json,http://54.235.29.9/FacialAge/BNav_EC2/DepthDuration/v2_depth_duration_MTurk/v2_DepthDuration_HTML.html#30,30,1280,609,1280,720,9-3-2022,9-8-33,76,depth_duration_stimuli/002414_2014-06-28_20-24-58_260595134347_rgbf000067-resize_4/002414_2014-06-28_20-24-58_260595134347_rgbf000067-resize_4-target.png,1000,4.363,15,4746,1002,feet,jsons/v1_VE1000_randls_21.json,697056,906118,50,Woman
76,998162,DepthScenes,duration_manipulation_targetAtFixation,jsons/v1_VE1000_randls_21.json,http://54.235.29.9/FacialAge/BNav_EC2/DepthDuration/v2_depth_duration_MTurk/v2_DepthDuration_HTML.html#30,30,1280,609,1280,720,9-3-2022,9-8-33,77,depth_duration_stimuli/000436_2014-06-09_22-25-11_260595134347_rgbf000137-resize_1/000436_2014-06-09_22-25-11_260595134347_rgbf000137-resize_1-target.png,1000,4.0705,15,3843,1011,feet,jsons/v1_VE1000_randls_21.json,697056,906118,50,Woman
77,998162,DepthScenes,duration_manipulation_targetAtFixation,jsons/v1_VE1000_randls_21.json,http://54.235.29.9/FacialAge/BNav_EC2/DepthDuration/v2_depth_duration_MTurk/v2_DepthDuration_HTML.html#30,30,1280,609,1280,720,9-3-2022,9-8-33,78,depth_duration_stimuli/002444_2014-06-28_20-32-08_260595134347_rgbf000027-resize_0/002444_2014-06-28_20-32-08_260595134347_rgbf000027-resize_0-target.png,1000,4.388999999999999,15,4388,1004,feet,jsons/v1_VE1000_randls_21.json,697056,906118,50,Woman
78,998162,DepthScenes,duration_manipulation_targetAtFixation,jsons/v1_VE1000_randls_21.json,http://54.235.29.9/FacialAge/BNav_EC2/DepthDuration/v2_depth_duration_MTurk/v2_DepthDuration_HTML.html#30,30,1280,609,1280,720,9-3-2022,9-8-33,79,depth_duration_stimuli/002570_2014-06-24_13-59-54_094959634447_rgbf000059-resize_0/002570_2014-06-24_13-59-54_094959634447_rgbf000059-resize_0-target.png,1000,4.037,10,4513,1000,feet,jsons/v1_VE1000_randls_21.json,697056,906118,50,Woman
79,998162,DepthScenes,duration_manipulation_targetAtFixation,jsons/v1_VE1000_randls_21.json,http://54.235.29.9/FacialAge/BNav_EC2/DepthDuration/v2_depth_duration_MTurk/v2_DepthDuration_HTML.html#30,30,1280,609,1280,720,9-3-2022,9-8-33,80,depth_duration_stimuli/002467_2014-06-28_20-38-07_260595134347_rgbf000026-resize_2/002467_2014-06-28_20-38-07_260595134347_rgbf000026-resize_2-target.png,1000,4.742,9,5002,1000,feet,jsons/v1_VE1000_randls_21.json,697056,906118,50,Woman
80,998162,DepthScenes,duration_manipulation_targetAtFixation,jsons/v1_VE1000_randls_21.json,http://54.235.29.9/FacialAge/BNav_EC2/DepthDuration/v2_depth_duration_MTurk/v2_DepthDuration_HTML.html#30,30,1280,609,1280,720,9-3-2022,9-8-33,81,depth_duration_stimuli/002725_2014-06-22_11-47-51_094959634447_rgbf000070-resize_1/002725_2014-06-22_11-47-51_094959634447_rgbf000070-resize_1-target.png,1000,2.195,4,3934,986,feet,jsons/v1_VE1000_randls_21.json,697056,906118,50,Woman
81,998162,DepthScenes,duration_manipulation_targetAtFixation,jsons/v1_VE1000_randls_21.json,http://54.235.29.9/FacialAge/BNav_EC2/DepthDuration/v2_depth_duration_MTurk/v2_DepthDuration_HTML.html#30,30,1280,609,1280,720,9-3-2022,9-8-33,82,depth_duration_stimuli/002344_2014-06-28_20-06-29_260595134347_rgbf000030-resize_1/002344_2014-06-28_20-06-29_260595134347_rgbf000030-resize_1-target.png,1000,1.5795,1,3642,1010,feet,jsons/v1_VE1000_randls_21.json,697056,906118,50,Woman
82,998162,DepthScenes,duration_manipulation_targetAtFixation,jsons/v1_VE1000_randls_21.json,http://54.235.29.9/FacialAge/BNav_EC2/DepthDuration/v2_depth_duration_MTurk/v2_DepthDuration_HTML.html#30,30,1280,609,1280,720,9-3-2022,9-8-33,83,depth_duration_stimuli/003534_2014-05-22_15-06-10_094959634447_rgbf000102-resize_4/003534_2014-05-22_15-06-10_094959634447_rgbf000102-resize_4-target.png,1000,1.426,1,2835,1011,feet,jsons/v1_VE1000_randls_21.json,697056,906118,50,Woman
83,998162,DepthScenes,duration_manipulation_targetAtFixation,jsons/v1_VE1000_randls_21.json,http://54.235.29.9/FacialAge/BNav_EC2/DepthDuration/v2_depth_duration_MTurk/v2_DepthDuration_HTML.html#30,30,1280,609,1280,720,9-3-2022,9-8-33,84,depth_duration_stimuli/002637_2014-06-24_14-51-13_094959634447_rgbf000066-resize_4/002637_2014-06-24_14-51-13_094959634447_rgbf000066-resize_4-target.png,1000,1.9955,4,3171,1000,feet,jsons/v1_VE1000_randls_21.json,697056,906118,50,Woman
84,998162,DepthScenes,duration_manipulation_targetAtFixation,jsons/v1_VE1000_randls_21.json,http://54.235.29.9/FacialAge/BNav_EC2/DepthDuration/v2_depth_duration_MTurk/v2_DepthDuration_HTML.html#30,30,1280,609,1280,720,9-3-2022,9-8-33,85,depth_duration_stimuli/000878_2014-06-08_22-52-45_260595134347_rgbf000045-resize_2/000878_2014-06-08_22-52-45_260595134347_rgbf000045-resize_2-target.png,1000,2.092,3,3454,1000,feet,jsons/v1_VE1000_randls_21.json,697056,906118,50,Woman
85,998162,DepthScenes,duration_manipulation_targetAtFixation,jsons/v1_VE1000_randls_21.json,http://54.235.29.9/FacialAge/BNav_EC2/DepthDuration/v2_depth_duration_MTurk/v2_DepthDuration_HTML.html#30,30,1280,609,1280,720,9-3-2022,9-8-33,86,depth_duration_stimuli/002953_2014-06-08_17-32-18_094959634447_rgbf000059-resize_5/002953_2014-06-08_17-32-18_094959634447_rgbf000059-resize_5-target.png,1000,1.551,1,3404,1003,feet,jsons/v1_VE1000_randls_21.json,697056,906118,50,Woman
86,998162,DepthScenes,duration_manipulation_targetAtFixation,jsons/v1_VE1000_randls_21.json,http://54.235.29.9/FacialAge/BNav_EC2/DepthDuration/v2_depth_duration_MTurk/v2_DepthDuration_HTML.html#30,30,1280,609,1280,720,9-3-2022,9-8-33,87,depth_duration_stimuli/001133_2014-06-17_14-49-16_260595134347_rgbf000100-resize_0/001133_2014-06-17_14-49-16_260595134347_rgbf000100-resize_0-target.png,1000,4.2115,8,3448,987,feet,jsons/v1_VE1000_randls_21.json,697056,906118,50,Woman
87,998162,DepthScenes,duration_manipulation_targetAtFixation,jsons/v1_VE1000_randls_21.json,http://54.235.29.9/FacialAge/BNav_EC2/DepthDuration/v2_depth_duration_MTurk/v2_DepthDuration_HTML.html#30,30,1280,609,1280,720,9-3-2022,9-8-33,88,depth_duration_stimuli/001132_2014-06-17_14-48-54_260595134347_rgbf000100-resize_2/001132_2014-06-17_14-48-54_260595134347_rgbf000100-resize_2-target.png,1000,3.753,6,3975,989,feet,jsons/v1_VE1000_randls_21.json,697056,906118,50,Woman
88,998162,DepthScenes,duration_manipulation_targetAtFixation,jsons/v1_VE1000_randls_21.json,http://54.235.29.9/FacialAge/BNav_EC2/DepthDuration/v2_depth_duration_MTurk/v2_DepthDuration_HTML.html#30,30,1280,609,1280,720,9-3-2022,9-8-33,89,depth_duration_stimuli/002788_2014-06-22_19-36-03_094959634447_rgbf000088-resize_2/002788_2014-06-22_19-36-03_094959634447_rgbf000088-resize_2-target.png,1000,1.6465,5,3203,1000,feet,jsons/v1_VE1000_randls_21.json,697056,906118,50,Woman
89,998162,DepthScenes,duration_manipulation_targetAtFixation,jsons/v1_VE1000_randls_21.json,http://54.235.29.9/FacialAge/BNav_EC2/DepthDuration/v2_depth_duration_MTurk/v2_DepthDuration_HTML.html#30,30,1280,609,1280,720,9-3-2022,9-8-33,90,depth_duration_stimuli/000749_2014-06-08_21-55-06_260595134347_rgbf000070-resize_2/000749_2014-06-08_21-55-06_260595134347_rgbf000070-resize_2-target.png,1000,2.331,4,3417,990,feet,jsons/v1_VE1000_randls_21.json,697056,906118,50,Woman
90,998162,DepthScenes,duration_manipulation_targetAtFixation,jsons/v1_VE1000_randls_21.json,http://54.235.29.9/FacialAge/BNav_EC2/DepthDuration/v2_depth_duration_MTurk/v2_DepthDuration_HTML.html#30,30,1280,609,1280,720,9-3-2022,9-8-33,91,depth_duration_stimuli/002988_2014-06-15_12-24-20_094959634447_rgbf000150-resize_1/002988_2014-06-15_12-24-20_094959634447_rgbf000150-resize_1-target.png,1000,4.7669999999999995,8,3803,1013,feet,jsons/v1_VE1000_randls_21.json,697056,906118,50,Woman
91,998162,DepthScenes,duration_manipulation_targetAtFixation,jsons/v1_VE1000_randls_21.json,http://54.235.29.9/FacialAge/BNav_EC2/DepthDuration/v2_depth_duration_MTurk/v2_DepthDuration_HTML.html#30,30,1280,609,1280,720,9-3-2022,9-8-33,92,depth_duration_stimuli/001052_2014-06-08_18-24-54_260595134347_rgbf000130-resize_1/001052_2014-06-08_18-24-54_260595134347_rgbf000130-resize_1-target.png,1000,4.1045,8,3259,1010,feet,jsons/v1_VE1000_randls_21.json,697056,906118,50,Woman
92,998162,DepthScenes,duration_manipulation_targetAtFixation,jsons/v1_VE1000_randls_21.json,http://54.235.29.9/FacialAge/BNav_EC2/DepthDuration/v2_depth_duration_MTurk/v2_DepthDuration_HTML.html#30,30,1280,609,1280,720,9-3-2022,9-8-33,93,depth_duration_stimuli/000368_2014-06-09_15-53-01_260595134347_rgbf000155-resize_2/000368_2014-06-09_15-53-01_260595134347_rgbf000155-resize_2-target.png,1000,2.4859999999999998,4,4068,1021,feet,jsons/v1_VE1000_randls_21.json,697056,906118,50,Woman
93,998162,DepthScenes,duration_manipulation_targetAtFixation,jsons/v1_VE1000_randls_21.json,http://54.235.29.9/FacialAge/BNav_EC2/DepthDuration/v2_depth_duration_MTurk/v2_DepthDuration_HTML.html#30,30,1280,609,1280,720,9-3-2022,9-8-33,94,depth_duration_stimuli/002678_2014-06-13_16-15-32_094959634447_rgbf000151-resize_6/002678_2014-06-13_16-15-32_094959634447_rgbf000151-resize_6-target.png,1000,2.1830000000000003,10,4050,1001,feet,jsons/v1_VE1000_randls_21.json,697056,906118,50,Woman
94,998162,DepthScenes,duration_manipulation_targetAtFixation,jsons/v1_VE1000_randls_21.json,http://54.235.29.9/FacialAge/BNav_EC2/DepthDuration/v2_depth_duration_MTurk/v2_DepthDuration_HTML.html#30,30,1280,609,1280,720,9-3-2022,9-8-33,95,depth_duration_stimuli/001066_2014-06-08_22-03-20_260595134347_rgbf000066-resize_4/001066_2014-06-08_22-03-20_260595134347_rgbf000066-resize_4-target.png,1000,4.2330000000000005,8,3854,987,feet,jsons/v1_VE1000_randls_21.json,697056,906118,50,Woman
95,998162,DepthScenes,duration_manipulation_targetAtFixation,jsons/v1_VE1000_randls_21.json,http://54.235.29.9/FacialAge/BNav_EC2/DepthDuration/v2_depth_duration_MTurk/v2_DepthDuration_HTML.html#30,30,1280,609,1280,720,9-3-2022,9-8-33,96,depth_duration_stimuli/000742_2014-06-08_18-48-09_260595134347_rgbf000164-resize_4/000742_2014-06-08_18-48-09_260595134347_rgbf000164-resize_4-target.png,1000,4.632,6,3419,1025,feet,jsons/v1_VE1000_randls_21.json,697056,906118,50,Woman
96,998162,DepthScenes,duration_manipulation_targetAtFixation,jsons/v1_VE1000_randls_21.json,http://54.235.29.9/FacialAge/BNav_EC2/DepthDuration/v2_depth_duration_MTurk/v2_DepthDuration_HTML.html#30,30,1280,609,1280,720,9-3-2022,9-8-33,97,depth_duration_stimuli/001808_2014-06-26_20-50-58_260595134347_rgbf000029-resize_1/001808_2014-06-26_20-50-58_260595134347_rgbf000029-resize_1-target.png,1000,4.249,10,4731,1023,feet,jsons/v1_VE1000_randls_21.json,697056,906118,50,Woman
97,998162,DepthScenes,duration_manipulation_targetAtFixation,jsons/v1_VE1000_randls_21.json,http://54.235.29.9/FacialAge/BNav_EC2/DepthDuration/v2_depth_duration_MTurk/v2_DepthDuration_HTML.html#30,30,1280,609,1280,720,9-3-2022,9-8-33,98,depth_duration_stimuli/001815_2014-06-26_20-52-55_260595134347_rgbf000020-resize_0/001815_2014-06-26_20-52-55_260595134347_rgbf000020-resize_0-target.png,1000,3.3865,10,5108,1006,feet,jsons/v1_VE1000_randls_21.json,697056,906118,50,Woman
98,998162,DepthScenes,duration_manipulation_targetAtFixation,jsons/v1_VE1000_randls_21.json,http://54.235.29.9/FacialAge/BNav_EC2/DepthDuration/v2_depth_duration_MTurk/v2_DepthDuration_HTML.html#30,30,1280,609,1280,720,9-3-2022,9-8-33,99,depth_duration_stimuli/001540_2014-06-20_17-01-05_260595134347_rgbf000086-resize_2/001540_2014-06-20_17-01-05_260595134347_rgbf000086-resize-original.jpg,1000,1.459,0,3644,1000,feet,jsons/v1_VE1000_randls_21.json,697056,906118,50,Woman
99,998162,DepthScenes,duration_manipulation_targetAtFixation,jsons/v1_VE1000_randls_21.json,http://54.235.29.9/FacialAge/BNav_EC2/DepthDuration/v2_depth_duration_MTurk/v2_DepthDuration_HTML.html#30,30,1280,609,1280,720,9-3-2022,9-8-33,100,depth_duration_stimuli/002763_2014-06-22_19-13-10_094959634447_rgbf000075-resize_4/002763_2014-06-22_19-13-10_094959634447_rgbf000075-resize_4-target.png,1000,1.68375,3,3532,1005,feet,jsons/v1_VE1000_randls_21.json,697056,906118,50,Woman
100,998162,DepthScenes,duration_manipulation_targetAtFixation,jsons/v1_VE1000_randls_21.json,http://54.235.29.9/FacialAge/BNav_EC2/DepthDuration/v2_depth_duration_MTurk/v2_DepthDuration_HTML.html#30,30,1280,609,1280,720,9-3-2022,9-8-33,101,depth_duration_stimuli/002209_2014-06-28_18-36-10_260595134347_rgbf000051-resize_1/002209_2014-06-28_18-36-10_260595134347_rgbf000051-resize_1-target.png,1000,2.057,3,3350,1002,feet,jsons/v1_VE1000_randls_21.json,697056,906118,50,Woman
101,998162,DepthScenes,duration_manipulation_targetAtFixation,jsons/v1_VE1000_randls_21.json,http://54.235.29.9/FacialAge/BNav_EC2/DepthDuration/v2_depth_duration_MTurk/v2_DepthDuration_HTML.html#30,30,1280,609,1280,720,9-3-2022,9-8-33,102,depth_duration_stimuli/000682_2014-06-08_23-14-58_260595134347_rgbf000041-resize_5/000682_2014-06-08_23-14-58_260595134347_rgbf000041-resize_5-target.png,1000,2.7239999999999998,5,3571,982,feet,jsons/v1_VE1000_randls_21.json,697056,906118,50,Woman
102,998162,DepthScenes,duration_manipulation_targetAtFixation,jsons/v1_VE1000_randls_21.json,http://54.235.29.9/FacialAge/BNav_EC2/DepthDuration/v2_depth_duration_MTurk/v2_DepthDuration_HTML.html#30,30,1280,609,1280,720,9-3-2022,9-8-33,103,depth_duration_stimuli/001650_2014-06-20_12-09-00_260595134347_rgbf000087-resize_3/001650_2014-06-20_12-09-00_260595134347_rgbf000087-resize_3-target.png,1000,1.9505,2,3344,1003,feet,jsons/v1_VE1000_randls_21.json,697056,906118,50,Woman
103,998162,DepthScenes,duration_manipulation_targetAtFixation,jsons/v1_VE1000_randls_21.json,http://54.235.29.9/FacialAge/BNav_EC2/DepthDuration/v2_depth_duration_MTurk/v2_DepthDuration_HTML.html#30,30,1280,609,1280,720,9-3-2022,9-8-33,104,depth_duration_stimuli/001164_2014-06-17_15-35-46_260595134347_rgbf000085-resize_3/001164_2014-06-17_15-35-46_260595134347_rgbf000085-resize_3-target.png,1000,2.354,3,3437,1006,feet,jsons/v1_VE1000_randls_21.json,697056,906118,50,Woman
104,998162,DepthScenes,duration_manipulation_targetAtFixation,jsons/v1_VE1000_randls_21.json,http://54.235.29.9/FacialAge/BNav_EC2/DepthDuration/v2_depth_duration_MTurk/v2_DepthDuration_HTML.html#30,30,1280,609,1280,720,9-3-2022,9-8-33,105,depth_duration_stimuli/001136_2014-06-17_15-19-41_260595134347_rgbf000076-resize_3/001136_2014-06-17_15-19-41_260595134347_rgbf000076-resize_3-target.png,1000,1.8655,3,3300,987,feet,jsons/v1_VE1000_randls_21.json,697056,906118,50,Woman
105,998162,DepthScenes,duration_manipulation_targetAtFixation,jsons/v1_VE1000_randls_21.json,http://54.235.29.9/FacialAge/BNav_EC2/DepthDuration/v2_depth_duration_MTurk/v2_DepthDuration_HTML.html#30,30,1280,609,1280,720,9-3-2022,9-8-33,106,depth_duration_stimuli/002039_2014-06-24_20-22-38_260595134347_rgbf000084-resize_1/002039_2014-06-24_20-22-38_260595134347_rgbf000084-resize_1-target.png,1000,4.408,8,3924,1000,feet,jsons/v1_VE1000_randls_21.json,697056,906118,50,Woman
106,998162,DepthScenes,duration_manipulation_targetAtFixation,jsons/v1_VE1000_randls_21.json,http://54.235.29.9/FacialAge/BNav_EC2/DepthDuration/v2_depth_duration_MTurk/v2_DepthDuration_HTML.html#30,30,1280,609,1280,720,9-3-2022,9-8-33,107,depth_duration_stimuli/002103_2014-06-25_20-00-40_260595134347_rgbf000049-resize_0/002103_2014-06-25_20-00-40_260595134347_rgbf000049-resize_0-target.png,1000,4.105,6,3643,1011,feet,jsons/v1_VE1000_randls_21.json,697056,906118,50,Woman
107,998162,DepthScenes,duration_manipulation_targetAtFixation,jsons/v1_VE1000_randls_21.json,http://54.235.29.9/FacialAge/BNav_EC2/DepthDuration/v2_depth_duration_MTurk/v2_DepthDuration_HTML.html#30,30,1280,609,1280,720,9-3-2022,9-8-33,108,depth_duration_stimuli/001158_2014-06-17_15-32-16_260595134347_rgbf000138-resize_2/001158_2014-06-17_15-32-16_260595134347_rgbf000138-resize_2-target.png,1000,4.5315,10,4557,1005,feet,jsons/v1_VE1000_randls_21.json,697056,906118,50,Woman
108,998162,DepthScenes,duration_manipulation_targetAtFixation,jsons/v1_VE1000_randls_21.json,http://54.235.29.9/FacialAge/BNav_EC2/DepthDuration/v2_depth_duration_MTurk/v2_DepthDuration_HTML.html#30,30,1280,609,1280,720,9-3-2022,9-8-33,109,depth_duration_stimuli/000556_2014-06-09_22-42-56_260595134347_rgbf000214-resize_1/000556_2014-06-09_22-42-56_260595134347_rgbf000214-resize_1-target.png,1000,4.8415,8,4220,998,feet,jsons/v1_VE1000_randls_21.json,697056,906118,50,Woman
109,998162,DepthScenes,duration_manipulation_targetAtFixation,jsons/v1_VE1000_randls_21.json,http://54.235.29.9/FacialAge/BNav_EC2/DepthDuration/v2_depth_duration_MTurk/v2_DepthDuration_HTML.html#30,30,1280,609,1280,720,9-3-2022,9-8-33,110,depth_duration_stimuli/002549_2014-06-24_13-41-39_094959634447_rgbf000022-resize_3/002549_2014-06-24_13-41-39_094959634447_rgbf000022-resize_3-target.png,1000,1.476,2,3395,999,feet,jsons/v1_VE1000_randls_21.json,697056,906118,50,Woman
110,998162,DepthScenes,duration_manipulation_targetAtFixation,jsons/v1_VE1000_randls_21.json,http://54.235.29.9/FacialAge/BNav_EC2/DepthDuration/v2_depth_duration_MTurk/v2_DepthDuration_HTML.html#30,30,1280,609,1280,720,9-3-2022,9-8-33,111,depth_duration_stimuli/002750_2014-06-22_19-08-03_094959634447_rgbf000094-resize_4/002750_2014-06-22_19-08-03_094959634447_rgbf000094-resize_4-target.png,1000,2.354,6,3962,1013,feet,jsons/v1_VE1000_randls_21.json,697056,906118,50,Woman
111,998162,DepthScenes,duration_manipulation_targetAtFixation,jsons/v1_VE1000_randls_21.json,http://54.235.29.9/FacialAge/BNav_EC2/DepthDuration/v2_depth_duration_MTurk/v2_DepthDuration_HTML.html#30,30,1280,609,1280,720,9-3-2022,9-8-33,112,depth_duration_stimuli/001570_2014-06-20_17-21-09_260595134347_rgbf000135-resize_4/001570_2014-06-20_17-21-09_260595134347_rgbf000135-resize_4-target.png,1000,4.467,12,3371,1014,feet,jsons/v1_VE1000_randls_21.json,697056,906118,50,Woman
112,998162,DepthScenes,duration_manipulation_targetAtFixation,jsons/v1_VE1000_randls_21.json,http://54.235.29.9/FacialAge/BNav_EC2/DepthDuration/v2_depth_duration_MTurk/v2_DepthDuration_HTML.html#30,30,1280,609,1280,720,9-3-2022,9-8-33,113,depth_duration_stimuli/001392_2014-06-19_16-07-59_260595134347_rgbf000046-resize_1/001392_2014-06-19_16-07-59_260595134347_rgbf000046-resize_1-target.png,1000,4.135,15,3677,996,feet,jsons/v1_VE1000_randls_21.json,697056,906118,50,Woman
113,998162,DepthScenes,duration_manipulation_targetAtFixation,jsons/v1_VE1000_randls_21.json,http://54.235.29.9/FacialAge/BNav_EC2/DepthDuration/v2_depth_duration_MTurk/v2_DepthDuration_HTML.html#30,30,1280,609,1280,720,9-3-2022,9-8-33,114,depth_duration_stimuli/001810_2014-06-26_20-51-35_260595134347_rgbf000040-resize_3/001810_2014-06-26_20-51-35_260595134347_rgbf000040-resize_3-target.png,1000,2.2525,3,3483,1006,feet,jsons/v1_VE1000_randls_21.json,697056,906118,50,Woman
114,998162,DepthScenes,duration_manipulation_targetAtFixation,jsons/v1_VE1000_randls_21.json,http://54.235.29.9/FacialAge/BNav_EC2/DepthDuration/v2_depth_duration_MTurk/v2_DepthDuration_HTML.html#30,30,1280,609,1280,720,9-3-2022,9-8-33,115,depth_duration_stimuli/003010_2014-06-15_12-54-35_094959634447_rgbf000112-resize_0/003010_2014-06-15_12-54-35_094959634447_rgbf000112-resize_0-target.png,1000,3.1185,15,3996,1009,feet,jsons/v1_VE1000_randls_21.json,697056,906118,50,Woman
115,998162,DepthScenes,duration_manipulation_targetAtFixation,jsons/v1_VE1000_randls_21.json,http://54.235.29.9/FacialAge/BNav_EC2/DepthDuration/v2_depth_duration_MTurk/v2_DepthDuration_HTML.html#30,30,1280,609,1280,720,9-3-2022,9-8-33,116,depth_duration_stimuli/001170_2014-06-17_15-43-44_260595134347_rgbf000096-resize_6/001170_2014-06-17_15-43-44_260595134347_rgbf000096-resize-original.jpg,1000,1.1909999999999998,0,3602,1006,feet,jsons/v1_VE1000_randls_21.json,697056,906118,50,Woman
116,998162,DepthScenes,duration_manipulation_targetAtFixation,jsons/v1_VE1000_randls_21.json,http://54.235.29.9/FacialAge/BNav_EC2/DepthDuration/v2_depth_duration_MTurk/v2_DepthDuration_HTML.html#30,30,1280,609,1280,720,9-3-2022,9-8-33,117,depth_duration_stimuli/003621_2014-05-23_18-06-08_094959634447_rgbf000101-resize_1/003621_2014-05-23_18-06-08_094959634447_rgbf000101-resize_1-target.png,1000,3.9835,18,4220,1004,feet,jsons/v1_VE1000_randls_21.json,697056,906118,50,Woman
117,998162,DepthScenes,duration_manipulation_targetAtFixation,jsons/v1_VE1000_randls_21.json,http://54.235.29.9/FacialAge/BNav_EC2/DepthDuration/v2_depth_duration_MTurk/v2_DepthDuration_HTML.html#30,30,1280,609,1280,720,9-3-2022,9-8-33,118,depth_duration_stimuli/001584_2014-06-20_11-07-43_260595134347_rgbf000002-resize_1/001584_2014-06-20_11-07-43_260595134347_rgbf000002-resize_1-target.png,1000,3.53,6,3658,1007,feet,jsons/v1_VE1000_randls_21.json,697056,906118,50,Woman
118,998162,DepthScenes,duration_manipulation_targetAtFixation,jsons/v1_VE1000_randls_21.json,http://54.235.29.9/FacialAge/BNav_EC2/DepthDuration/v2_depth_duration_MTurk/v2_DepthDuration_HTML.html#30,30,1280,609,1280,720,9-3-2022,9-8-33,119,depth_duration_stimuli/002663_2014-06-13_15-50-26_094959634447_rgbf000075-resize_1/002663_2014-06-13_15-50-26_094959634447_rgbf000075-resize_1-target.png,1000,4.7495,12,3261,1006,feet,jsons/v1_VE1000_randls_21.json,697056,906118,50,Woman
119,998162,DepthScenes,duration_manipulation_targetAtFixation,jsons/v1_VE1000_randls_21.json,http://54.235.29.9/FacialAge/BNav_EC2/DepthDuration/v2_depth_duration_MTurk/v2_DepthDuration_HTML.html#30,30,1280,609,1280,720,9-3-2022,9-8-33,120,depth_duration_stimuli/000409_2014-06-04_19-23-33_260595134347_rgbf000067-resize_0/000409_2014-06-04_19-23-33_260595134347_rgbf000067-resize_0-target.png,1000,3.7335,8,3771,1027,feet,jsons/v1_VE1000_randls_21.json,697056,906118,50,Woman
120,998162,DepthScenes,duration_manipulation_targetAtFixation,jsons/v1_VE1000_randls_21.json,http://54.235.29.9/FacialAge/BNav_EC2/DepthDuration/v2_depth_duration_MTurk/v2_DepthDuration_HTML.html#30,30,1280,609,1280,720,9-3-2022,9-8-33,121,depth_duration_stimuli/000917_2014-06-09_22-45-29_260595134347_rgbf000149-resize_3/000917_2014-06-09_22-45-29_260595134347_rgbf000149-resize_3-target.png,1000,4.1865,10,5817,1007,feet,jsons/v1_VE1000_randls_21.json,697056,906118,50,Woman
121,998162,DepthScenes,duration_manipulation_targetAtFixation,jsons/v1_VE1000_randls_21.json,http://54.235.29.9/FacialAge/BNav_EC2/DepthDuration/v2_depth_duration_MTurk/v2_DepthDuration_HTML.html#30,30,1280,609,1280,720,9-3-2022,9-8-33,122,depth_duration_stimuli/002323_2014-06-28_20-01-54_260595134347_rgbf000051-resize_4/002323_2014-06-28_20-01-54_260595134347_rgbf000051-resize_4-target.png,1000,3.7310000000000003,10,4066,1018,feet,jsons/v1_VE1000_randls_21.json,697056,906118,50,Woman
122,998162,DepthScenes,duration_manipulation_targetAtFixation,jsons/v1_VE1000_randls_21.json,http://54.235.29.9/FacialAge/BNav_EC2/DepthDuration/v2_depth_duration_MTurk/v2_DepthDuration_HTML.html#30,30,1280,609,1280,720,9-3-2022,9-8-33,123,depth_duration_stimuli/001167_2014-06-17_15-38-07_260595134347_rgbf000108-resize_0/001167_2014-06-17_15-38-07_260595134347_rgbf000108-resize_0-target.png,1000,1.8505,3,3470,986,feet,jsons/v1_VE1000_randls_21.json,697056,906118,50,Woman
123,998162,DepthScenes,duration_manipulation_targetAtFixation,jsons/v1_VE1000_randls_21.json,http://54.235.29.9/FacialAge/BNav_EC2/DepthDuration/v2_depth_duration_MTurk/v2_DepthDuration_HTML.html#30,30,1280,609,1280,720,9-3-2022,9-8-33,124,depth_duration_stimuli/003587_2014-05-23_16-48-02_094959634447_rgbf002384-resize_2/003587_2014-05-23_16-48-02_094959634447_rgbf002384-resize_2-target.png,1000,1.357,1,3587,1006,feet,jsons/v1_VE1000_randls_21.json,697056,906118,50,Woman
124,998162,DepthScenes,duration_manipulation_targetAtFixation,jsons/v1_VE1000_randls_21.json,http://54.235.29.9/FacialAge/BNav_EC2/DepthDuration/v2_depth_duration_MTurk/v2_DepthDuration_HTML.html#30,30,1280,609,1280,720,9-3-2022,9-8-33,125,depth_duration_stimuli/002748_2014-06-22_19-07-22_094959634447_rgbf000078-resize_1/002748_2014-06-22_19-07-22_094959634447_rgbf000078-resize_1-target.png,1000,4.6705,15,4106,1002,feet,jsons/v1_VE1000_randls_21.json,697056,906118,50,Woman
125,998162,DepthScenes,duration_manipulation_targetAtFixation,jsons/v1_VE1000_randls_21.json,http://54.235.29.9/FacialAge/BNav_EC2/DepthDuration/v2_depth_duration_MTurk/v2_DepthDuration_HTML.html#30,30,1280,609,1280,720,9-3-2022,9-8-33,126,depth_duration_stimuli/002995_2014-06-15_12-31-26_094959634447_rgbf000150-resize_1/002995_2014-06-15_12-31-26_094959634447_rgbf000150-resize_1-target.png,1000,3.8360000000000003,15,3452,1004,feet,jsons/v1_VE1000_randls_21.json,697056,906118,50,Woman
126,998162,DepthScenes,duration_manipulation_targetAtFixation,jsons/v1_VE1000_randls_21.json,http://54.235.29.9/FacialAge/BNav_EC2/DepthDuration/v2_depth_duration_MTurk/v2_DepthDuration_HTML.html#30,30,1280,609,1280,720,9-3-2022,9-8-33,127,depth_duration_stimuli/002989_2014-06-15_12-25-03_094959634447_rgbf000150-resize_3/002989_2014-06-15_12-25-03_094959634447_rgbf000150-resize_3-target.png,1000,4.1975,20,3802,1001,feet,jsons/v1_VE1000_randls_21.json,697056,906118,50,Woman
127,998162,DepthScenes,duration_manipulation_targetAtFixation,jsons/v1_VE1000_randls_21.json,http://54.235.29.9/FacialAge/BNav_EC2/DepthDuration/v2_depth_duration_MTurk/v2_DepthDuration_HTML.html#30,30,1280,609,1280,720,9-3-2022,9-8-33,128,depth_duration_stimuli/000866_2014-06-09_20-45-42_260595134347_rgbf000139-resize_1/000866_2014-06-09_20-45-42_260595134347_rgbf000139-resize_1-target.png,1000,3.2155,8,4016,998,feet,jsons/v1_VE1000_randls_21.json,697056,906118,50,Woman
128,998162,DepthScenes,duration_manipulation_targetAtFixation,jsons/v1_VE1000_randls_21.json,http://54.235.29.9/FacialAge/BNav_EC2/DepthDuration/v2_depth_duration_MTurk/v2_DepthDuration_HTML.html#30,30,1280,609,1280,720,9-3-2022,9-8-33,129,depth_duration_stimuli/001029_2014-06-08_13-17-57_260595134347_rgbf000065-resize_1/001029_2014-06-08_13-17-57_260595134347_rgbf000065-resize_1-target.png,1000,3.0835,6,3187,1009,feet,jsons/v1_VE1000_randls_21.json,697056,906118,50,Woman
129,998162,DepthScenes,duration_manipulation_targetAtFixation,jsons/v1_VE1000_randls_21.json,http://54.235.29.9/FacialAge/BNav_EC2/DepthDuration/v2_depth_duration_MTurk/v2_DepthDuration_HTML.html#30,30,1280,609,1280,720,9-3-2022,9-8-33,130,depth_duration_stimuli/000677_2014-06-08_23-10-32_260595134347_rgbf000158-resize_6/000677_2014-06-08_23-10-32_260595134347_rgbf000158-resize_6-target.png,1000,3.556,6,3859,1002,feet,jsons/v1_VE1000_randls_21.json,697056,906118,50,Woman
130,998162,DepthScenes,duration_manipulation_targetAtFixation,jsons/v1_VE1000_randls_21.json,http://54.235.29.9/FacialAge/BNav_EC2/DepthDuration/v2_depth_duration_MTurk/v2_DepthDuration_HTML.html#30,30,1280,609,1280,720,9-3-2022,9-8-33,131,depth_duration_stimuli/000906_2014-06-08_13-35-43_260595134347_rgbf000155-resize_1/000906_2014-06-08_13-35-43_260595134347_rgbf000155-resize_1-target.png,1000,2.8489999999999998,6,3492,1011,feet,jsons/v1_VE1000_randls_21.json,697056,906118,50,Woman
131,998162,DepthScenes,duration_manipulation_targetAtFixation,jsons/v1_VE1000_randls_21.json,http://54.235.29.9/FacialAge/BNav_EC2/DepthDuration/v2_depth_duration_MTurk/v2_DepthDuration_HTML.html#30,30,1280,609,1280,720,9-3-2022,9-8-33,132,depth_duration_stimuli/002805_2014-06-22_19-54-03_094959634447_rgbf000079-resize_1/002805_2014-06-22_19-54-03_094959634447_rgbf000079-resize_1-target.png,1000,3.1439999999999997,12,3548,1004,feet,jsons/v1_VE1000_randls_21.json,697056,906118,50,Woman
132,998162,DepthScenes,duration_manipulation_targetAtFixation,jsons/v1_VE1000_randls_21.json,http://54.235.29.9/FacialAge/BNav_EC2/DepthDuration/v2_depth_duration_MTurk/v2_DepthDuration_HTML.html#30,30,1280,609,1280,720,9-3-2022,9-8-33,133,depth_duration_stimuli/001417_2014-06-19_16-25-36_260595134347_rgbf000115-resize_5/001417_2014-06-19_16-25-36_260595134347_rgbf000115-resize_5-target.png,1000,4.6255,10,5339,1001,feet,jsons/v1_VE1000_randls_21.json,697056,906118,50,Woman
133,998162,DepthScenes,duration_manipulation_targetAtFixation,jsons/v1_VE1000_randls_21.json,http://54.235.29.9/FacialAge/BNav_EC2/DepthDuration/v2_depth_duration_MTurk/v2_DepthDuration_HTML.html#30,30,1280,609,1280,720,9-3-2022,9-8-33,134,depth_duration_stimuli/003081_2014-06-15_15-19-16_094959634447_rgbf000150-resize_1/003081_2014-06-15_15-19-16_094959634447_rgbf000150-resize_1-target.png,1000,3.9125,12,3679,996,feet,jsons/v1_VE1000_randls_21.json,697056,906118,50,Woman
134,998162,DepthScenes,duration_manipulation_targetAtFixation,jsons/v1_VE1000_randls_21.json,http://54.235.29.9/FacialAge/BNav_EC2/DepthDuration/v2_depth_duration_MTurk/v2_DepthDuration_HTML.html#30,30,1280,609,1280,720,9-3-2022,9-8-33,135,depth_duration_stimuli/002072_2014-06-24_21-48-06_260595134347_rgbf000115-resize_0/002072_2014-06-24_21-48-06_260595134347_rgbf000115-resize-original.jpg,1000,4.702,0,3731,1005,feet,jsons/v1_VE1000_randls_21.json,697056,906118,50,Woman
135,998162,DepthScenes,duration_manipulation_targetAtFixation,jsons/v1_VE1000_randls_21.json,http://54.235.29.9/FacialAge/BNav_EC2/DepthDuration/v2_depth_duration_MTurk/v2_DepthDuration_HTML.html#30,30,1280,609,1280,720,9-3-2022,9-8-33,136,depth_duration_stimuli/000486_2014-06-09_20-47-20_260595134347_rgbf000143-resize_2/000486_2014-06-09_20-47-20_260595134347_rgbf000143-resize_2-target.png,1000,4.8325,6,3523,1004,feet,jsons/v1_VE1000_randls_21.json,697056,906118,50,Woman
136,998162,DepthScenes,duration_manipulation_targetAtFixation,jsons/v1_VE1000_randls_21.json,http://54.235.29.9/FacialAge/BNav_EC2/DepthDuration/v2_depth_duration_MTurk/v2_DepthDuration_HTML.html#30,30,1280,609,1280,720,9-3-2022,9-8-33,137,depth_duration_stimuli/003083_2014-06-15_15-21-03_094959634447_rgbf000063-resize_1/003083_2014-06-15_15-21-03_094959634447_rgbf000063-resize_1-target.png,1000,4.1405,15,4346,982,feet,jsons/v1_VE1000_randls_21.json,697056,906118,50,Woman
137,998162,DepthScenes,duration_manipulation_targetAtFixation,jsons/v1_VE1000_randls_21.json,http://54.235.29.9/FacialAge/BNav_EC2/DepthDuration/v2_depth_duration_MTurk/v2_DepthDuration_HTML.html#30,30,1280,609,1280,720,9-3-2022,9-8-33,138,depth_duration_stimuli/002043_2014-06-24_20-29-38_260595134347_rgbf000039-resize_4/002043_2014-06-24_20-29-38_260595134347_rgbf000039-resize_4-target.png,1000,2.8435,12,3377,989,feet,jsons/v1_VE1000_randls_21.json,697056,906118,50,Woman
138,998162,DepthScenes,duration_manipulation_targetAtFixation,jsons/v1_VE1000_randls_21.json,http://54.235.29.9/FacialAge/BNav_EC2/DepthDuration/v2_depth_duration_MTurk/v2_DepthDuration_HTML.html#30,30,1280,609,1280,720,9-3-2022,9-8-33,139,depth_duration_stimuli/003048_2014-06-15_13-49-43_094959634447_rgbf000150-resize_1/003048_2014-06-15_13-49-43_094959634447_rgbf000150-resize_1-target.png,1000,4.0035,15,4132,1002,feet,jsons/v1_VE1000_randls_21.json,697056,906118,50,Woman
139,998162,DepthScenes,duration_manipulation_targetAtFixation,jsons/v1_VE1000_randls_21.json,http://54.235.29.9/FacialAge/BNav_EC2/DepthDuration/v2_depth_duration_MTurk/v2_DepthDuration_HTML.html#30,30,1280,609,1280,720,9-3-2022,9-8-33,140,depth_duration_stimuli/002213_2014-06-28_18-37-58_260595134347_rgbf000055-resize_1/002213_2014-06-28_18-37-58_260595134347_rgbf000055-resize_1-target.png,1000,3.62,15,4027,1002,feet,jsons/v1_VE1000_randls_21.json,697056,906118,50,Woman
140,998162,DepthScenes,duration_manipulation_targetAtFixation,jsons/v1_VE1000_randls_21.json,http://54.235.29.9/FacialAge/BNav_EC2/DepthDuration/v2_depth_duration_MTurk/v2_DepthDuration_HTML.html#30,30,1280,609,1280,720,9-3-2022,9-8-33,141,depth_duration_stimuli/000691_2014-06-08_13-08-50_260595134347_rgbf000132-resize_3/000691_2014-06-08_13-08-50_260595134347_rgbf000132-resize_3-target.png,1000,4.1530000000000005,12,3460,1014,feet,jsons/v1_VE1000_randls_21.json,697056,906118,50,Woman
141,998162,DepthScenes,duration_manipulation_targetAtFixation,jsons/v1_VE1000_randls_21.json,http://54.235.29.9/FacialAge/BNav_EC2/DepthDuration/v2_depth_duration_MTurk/v2_DepthDuration_HTML.html#30,30,1280,609,1280,720,9-3-2022,9-8-33,142,depth_duration_stimuli/001806_2014-06-26_20-50-20_260595134347_rgbf000091-resize_1/001806_2014-06-26_20-50-20_260595134347_rgbf000091-resize_1-target.png,1000,2.7305,5,3786,1016,feet,jsons/v1_VE1000_randls_21.json,697056,906118,50,Woman
142,998162,DepthScenes,duration_manipulation_targetAtFixation,jsons/v1_VE1000_randls_21.json,http://54.235.29.9/FacialAge/BNav_EC2/DepthDuration/v2_depth_duration_MTurk/v2_DepthDuration_HTML.html#30,30,1280,609,1280,720,9-3-2022,9-8-33,143,depth_duration_stimuli/001617_2014-06-20_11-35-32_260595134347_rgbf000066-resize_1/001617_2014-06-20_11-35-32_260595134347_rgbf000066-resize_1-target.png,1000,3.7910000000000004,6,3394,1001,feet,jsons/v1_VE1000_randls_21.json,697056,906118,50,Woman
143,998162,DepthScenes,duration_manipulation_targetAtFixation,jsons/v1_VE1000_randls_21.json,http://54.235.29.9/FacialAge/BNav_EC2/DepthDuration/v2_depth_duration_MTurk/v2_DepthDuration_HTML.html#30,30,1280,609,1280,720,9-3-2022,9-8-33,144,depth_duration_stimuli/000506_2014-06-08_23-21-00_260595134347_rgbf000070-resize_7/000506_2014-06-08_23-21-00_260595134347_rgbf000070-resize_7-target.png,1000,4.0585,6,3570,1005,feet,jsons/v1_VE1000_randls_21.json,697056,906118,50,Woman
144,998162,DepthScenes,duration_manipulation_targetAtFixation,jsons/v1_VE1000_randls_21.json,http://54.235.29.9/FacialAge/BNav_EC2/DepthDuration/v2_depth_duration_MTurk/v2_DepthDuration_HTML.html#30,30,1280,609,1280,720,9-3-2022,9-8-33,145,depth_duration_stimuli/003079_2014-06-15_15-18-20_094959634447_rgbf000152-resize_8/003079_2014-06-15_15-18-20_094959634447_rgbf000152-resize_8-target.png,1000,2.8775,8,3835,1000,feet,jsons/v1_VE1000_randls_21.json,697056,906118,50,Woman
145,998162,DepthScenes,duration_manipulation_targetAtFixation,jsons/v1_VE1000_randls_21.json,http://54.235.29.9/FacialAge/BNav_EC2/DepthDuration/v2_depth_duration_MTurk/v2_DepthDuration_HTML.html#30,30,1280,609,1280,720,9-3-2022,9-8-33,146,depth_duration_stimuli/001498_2014-06-19_17-45-14_260595134347_rgbf000129-resize_4/001498_2014-06-19_17-45-14_260595134347_rgbf000129-resize-original.jpg,1000,1.4075,0,3764,1004,feet,jsons/v1_VE1000_randls_21.json,697056,906118,50,Woman
146,998162,DepthScenes,duration_manipulation_targetAtFixation,jsons/v1_VE1000_randls_21.json,http://54.235.29.9/FacialAge/BNav_EC2/DepthDuration/v2_depth_duration_MTurk/v2_DepthDuration_HTML.html#30,30,1280,609,1280,720,9-3-2022,9-8-33,147,depth_duration_stimuli/002784_2014-06-22_19-26-30_094959634447_rgbf000083-resize_3/002784_2014-06-22_19-26-30_094959634447_rgbf000083-resize_3-target.png,1000,1.8046666666667,3,3071,987,feet,jsons/v1_VE1000_randls_21.json,697056,906118,50,Woman
147,998162,DepthScenes,duration_manipulation_targetAtFixation,jsons/v1_VE1000_randls_21.json,http://54.235.29.9/FacialAge/BNav_EC2/DepthDuration/v2_depth_duration_MTurk/v2_DepthDuration_HTML.html#30,30,1280,609,1280,720,9-3-2022,9-8-33,148,depth_duration_stimuli/001100_2014-06-15_17-46-26_260595134347_rgbf000225-resize_2/001100_2014-06-15_17-46-26_260595134347_rgbf000225-resize_2-target.png,1000,2.24,3,3026,1004,feet,jsons/v1_VE1000_randls_21.json,697056,906118,50,Woman
148,998162,DepthScenes,duration_manipulation_targetAtFixation,jsons/v1_VE1000_randls_21.json,http://54.235.29.9/FacialAge/BNav_EC2/DepthDuration/v2_depth_duration_MTurk/v2_DepthDuration_HTML.html#30,30,1280,609,1280,720,9-3-2022,9-8-33,149,depth_duration_stimuli/000692_2014-06-08_13-09-42_260595134347_rgbf000199-resize_2/000692_2014-06-08_13-09-42_260595134347_rgbf000199-resize_2-target.png,1000,3.661,8,3964,999,feet,jsons/v1_VE1000_randls_21.json,697056,906118,50,Woman
149,998162,DepthScenes,duration_manipulation_targetAtFixation,jsons/v1_VE1000_randls_21.json,http://54.235.29.9/FacialAge/BNav_EC2/DepthDuration/v2_depth_duration_MTurk/v2_DepthDuration_HTML.html#30,30,1280,609,1280,720,9-3-2022,9-8-33,150,depth_duration_stimuli/001094_2014-06-15_17-36-00_260595134347_rgbf000205-resize_0/001094_2014-06-15_17-36-00_260595134347_rgbf000205-resize_0-target.png,1000,4.2175,12,3481,999,feet,jsons/v1_VE1000_randls_21.json,697056,906118,50,Woman
150,998162,DepthScenes,duration_manipulation_targetAtFixation,jsons/v1_VE1000_randls_21.json,http://54.235.29.9/FacialAge/BNav_EC2/DepthDuration/v2_depth_duration_MTurk/v2_DepthDuration_HTML.html#30,30,1280,609,1280,720,9-3-2022,9-8-33,151,depth_duration_stimuli/001199_2014-06-17_16-03-48_260595134347_rgbf000077-resize_0/001199_2014-06-17_16-03-48_260595134347_rgbf000077-resize_0-target.png,1000,3.4375,12,4363,1005,feet,jsons/v1_VE1000_randls_21.json,697056,906118,50,Woman
151,998162,DepthScenes,duration_manipulation_targetAtFixation,jsons/v1_VE1000_randls_21.json,http://54.235.29.9/FacialAge/BNav_EC2/DepthDuration/v2_depth_duration_MTurk/v2_DepthDuration_HTML.html#30,30,1280,609,1280,720,9-3-2022,9-8-33,152,depth_duration_stimuli/000502_2014-06-08_23-02-32_260595134347_rgbf000063-resize_4/000502_2014-06-08_23-02-32_260595134347_rgbf000063-resize_4-target.png,1000,2.431,6,3268,1009,feet,jsons/v1_VE1000_randls_21.json,697056,906118,50,Woman
152,998162,DepthScenes,duration_manipulation_targetAtFixation,jsons/v1_VE1000_randls_21.json,http://54.235.29.9/FacialAge/BNav_EC2/DepthDuration/v2_depth_duration_MTurk/v2_DepthDuration_HTML.html#30,30,1280,609,1280,720,9-3-2022,9-8-33,153,depth_duration_stimuli/002630_2014-06-24_14-47-50_094959634447_rgbf000055-resize_1/002630_2014-06-24_14-47-50_094959634447_rgbf000055-resize_1-target.png,1000,3.0095,15,4491,1014,feet,jsons/v1_VE1000_randls_21.json,697056,906118,50,Woman
153,998162,DepthScenes,duration_manipulation_targetAtFixation,jsons/v1_VE1000_randls_21.json,http://54.235.29.9/FacialAge/BNav_EC2/DepthDuration/v2_depth_duration_MTurk/v2_DepthDuration_HTML.html#30,30,1280,609,1280,720,9-3-2022,9-8-33,154,depth_duration_stimuli/002758_2014-06-22_19-11-20_094959634447_rgbf000128-resize_1/002758_2014-06-22_19-11-20_094959634447_rgbf000128-resize_1-target.png,1000,2.555,5,3466,1010,feet,jsons/v1_VE1000_randls_21.json,697056,906118,50,Woman
154,998162,DepthScenes,duration_manipulation_targetAtFixation,jsons/v1_VE1000_randls_21.json,http://54.235.29.9/FacialAge/BNav_EC2/DepthDuration/v2_depth_duration_MTurk/v2_DepthDuration_HTML.html#30,30,1280,609,1280,720,9-3-2022,9-8-33,155,depth_duration_stimuli/000810_2014-06-08_17-20-01_260595134347_rgbf000105-resize_0/000810_2014-06-08_17-20-01_260595134347_rgbf000105-resize_0-target.png,1000,1.4865,4,3816,989,feet,jsons/v1_VE1000_randls_21.json,697056,906118,50,Woman
155,998162,DepthScenes,duration_manipulation_targetAtFixation,jsons/v1_VE1000_randls_21.json,http://54.235.29.9/FacialAge/BNav_EC2/DepthDuration/v2_depth_duration_MTurk/v2_DepthDuration_HTML.html#30,30,1280,609,1280,720,9-3-2022,9-8-33,156,depth_duration_stimuli/001214_2014-06-17_16-13-55_260595134347_rgbf000111-resize_0/001214_2014-06-17_16-13-55_260595134347_rgbf000111-resize_0-target.png,1000,2.6505,3,3258,1006,feet,jsons/v1_VE1000_randls_21.json,697056,906118,50,Woman
156,998162,DepthScenes,duration_manipulation_targetAtFixation,jsons/v1_VE1000_randls_21.json,http://54.235.29.9/FacialAge/BNav_EC2/DepthDuration/v2_depth_duration_MTurk/v2_DepthDuration_HTML.html#30,30,1280,609,1280,720,9-3-2022,9-8-33,157,depth_duration_stimuli/000929_2014-06-09_16-33-19_260595134347_rgbf000139-resize_0/000929_2014-06-09_16-33-19_260595134347_rgbf000139-resize_0-target.png,1000,2.8680000000000003,5,3267,1000,feet,jsons/v1_VE1000_randls_21.json,697056,906118,50,Woman
157,998162,DepthScenes,duration_manipulation_targetAtFixation,jsons/v1_VE1000_randls_21.json,http://54.235.29.9/FacialAge/BNav_EC2/DepthDuration/v2_depth_duration_MTurk/v2_DepthDuration_HTML.html#30,30,1280,609,1280,720,9-3-2022,9-8-33,158,depth_duration_stimuli/000457_2014-06-08_16-52-43_260595134347_rgbf000199-resize_1/000457_2014-06-08_16-52-43_260595134347_rgbf000199-resize_1-target.png,1000,3.6489999999999996,6,4042,1013,feet,jsons/v1_VE1000_randls_21.json,697056,906118,50,Woman
158,998162,DepthScenes,duration_manipulation_targetAtFixation,jsons/v1_VE1000_randls_21.json,http://54.235.29.9/FacialAge/BNav_EC2/DepthDuration/v2_depth_duration_MTurk/v2_DepthDuration_HTML.html#30,30,1280,609,1280,720,9-3-2022,9-8-33,159,depth_duration_stimuli/002279_2014-06-28_18-55-32_260595134347_rgbf000040-resize_5/002279_2014-06-28_18-55-32_260595134347_rgbf000040-resize_5-target.png,1000,1.5043333333333,2,3754,1007,feet,jsons/v1_VE1000_randls_21.json,697056,906118,50,Woman
159,998162,DepthScenes,duration_manipulation_targetAtFixation,jsons/v1_VE1000_randls_21.json,http://54.235.29.9/FacialAge/BNav_EC2/DepthDuration/v2_depth_duration_MTurk/v2_DepthDuration_HTML.html#30,30,1280,609,1280,720,9-3-2022,9-8-33,160,depth_duration_stimuli/000635_2014-06-08_16-38-42_260595134347_rgbf000106-resize_1/000635_2014-06-08_16-38-42_260595134347_rgbf000106-resize_1-target.png,1000,2.074,6,3780,1001,feet,jsons/v1_VE1000_randls_21.json,697056,906118,50,Woman
160,998162,DepthScenes,duration_manipulation_targetAtFixation,jsons/v1_VE1000_randls_21.json,http://54.235.29.9/FacialAge/BNav_EC2/DepthDuration/v2_depth_duration_MTurk/v2_DepthDuration_HTML.html#30,30,1280,609,1280,720,9-3-2022,9-8-33,161,depth_duration_stimuli/000414_2014-06-04_19-49-13_260595134347_rgbf000044-resize_0/000414_2014-06-04_19-49-13_260595134347_rgbf000044-resize_0-target.png,1000,4.329,14,4202,1006,feet,jsons/v1_VE1000_randls_21.json,697056,906118,50,Woman
161,998162,DepthScenes,duration_manipulation_targetAtFixation,jsons/v1_VE1000_randls_21.json,http://54.235.29.9/FacialAge/BNav_EC2/DepthDuration/v2_depth_duration_MTurk/v2_DepthDuration_HTML.html#30,30,1280,609,1280,720,9-3-2022,9-8-33,162,depth_duration_stimuli/003129_2014-05-12_10-48-10_094959634447_rgbf000100-resize_0/003129_2014-05-12_10-48-10_094959634447_rgbf000100-resize_0-target.png,1000,4.9305,20,4435,1010,feet,jsons/v1_VE1000_randls_21.json,697056,906118,50,Woman
162,998162,DepthScenes,duration_manipulation_targetAtFixation,jsons/v1_VE1000_randls_21.json,http://54.235.29.9/FacialAge/BNav_EC2/DepthDuration/v2_depth_duration_MTurk/v2_DepthDuration_HTML.html#30,30,1280,609,1280,720,9-3-2022,9-8-33,163,depth_duration_stimuli/000522_2014-06-08_13-35-06_260595134347_rgbf000244-resize_1/000522_2014-06-08_13-35-06_260595134347_rgbf000244-resize_1-target.png,1000,2.3715,2,3148,999,feet,jsons/v1_VE1000_randls_21.json,697056,906118,50,Woman
163,998162,DepthScenes,duration_manipulation_targetAtFixation,jsons/v1_VE1000_randls_21.json,http://54.235.29.9/FacialAge/BNav_EC2/DepthDuration/v2_depth_duration_MTurk/v2_DepthDuration_HTML.html#30,30,1280,609,1280,720,9-3-2022,9-8-33,164,depth_duration_stimuli/002949_2014-06-26_15-57-42_094959634447_rgbf000079-resize_1/002949_2014-06-26_15-57-42_094959634447_rgbf000079-resize_1-target.png,1000,1.8915,3,3273,999,feet,jsons/v1_VE1000_randls_21.json,697056,906118,50,Woman
