,subjID,experimentName,versionName,sequenceName,url,selected_row,windowWidth,windowHeight,screenWidth,screenHeight,startDate,startTime,trial,stimulus,duration,actual_depth,depth_estimate,trial_RT,log_sceneDuration,unitSelection,seq_filepath,experimentTime,totalTime,age,gender
0,998354,DepthScenes,duration_manipulation_targetAtFixation,jsons/v1_VE250_randls_26_rotated.json,http://54.235.29.9/FacialAge/BNav_EC2/DepthDuration/v2_depth_duration_MTurk/v2_DepthDuration_HTML.html#438,438,1366,625,1366,768,9-4-2022,11-17-1,1,depth_duration_stimuli/002323_2014-06-28_20-01-54_260595134347_rgbf000051-resize_4/002323_2014-06-28_20-01-54_260595134347_rgbf000051-resize_4-target.png,250,3.7310000000000003,15,7272,249,meters,jsons/v1_VE250_randls_26_rotated.json,2001940,2208364,61,Woman
1,998354,DepthScenes,duration_manipulation_targetAtFixation,jsons/v1_VE250_randls_26_rotated.json,http://54.235.29.9/FacialAge/BNav_EC2/DepthDuration/v2_depth_duration_MTurk/v2_DepthDuration_HTML.html#438,438,1366,625,1366,768,9-4-2022,11-17-1,2,depth_duration_stimuli/000917_2014-06-09_22-45-29_260595134347_rgbf000149-resize_3/000917_2014-06-09_22-45-29_260595134347_rgbf000149-resize_3-target.png,250,4.1865,10,9408,250,meters,jsons/v1_VE250_randls_26_rotated.json,2001940,2208364,61,Woman
2,998354,DepthScenes,duration_manipulation_targetAtFixation,jsons/v1_VE250_randls_26_rotated.json,http://54.235.29.9/FacialAge/BNav_EC2/DepthDuration/v2_depth_duration_MTurk/v2_DepthDuration_HTML.html#438,438,1366,625,1366,768,9-4-2022,11-17-1,3,depth_duration_stimuli/002340_2014-06-28_20-05-46_260595134347_rgbf000113-resize_0/002340_2014-06-28_20-05-46_260595134347_rgbf000113-resize_0-target.png,250,2.4735,15,6270,251,meters,jsons/v1_VE250_randls_26_rotated.json,2001940,2208364,61,Woman
3,998354,DepthScenes,duration_manipulation_targetAtFixation,jsons/v1_VE250_randls_26_rotated.json,http://54.235.29.9/FacialAge/BNav_EC2/DepthDuration/v2_depth_duration_MTurk/v2_DepthDuration_HTML.html#438,438,1366,625,1366,768,9-4-2022,11-17-1,4,depth_duration_stimuli/001016_2014-06-09_16-16-10_260595134347_rgbf000112-resize_5/001016_2014-06-09_16-16-10_260595134347_rgbf000112-resize_5-target.png,250,1.6565,10,11372,249,meters,jsons/v1_VE250_randls_26_rotated.json,2001940,2208364,61,Woman
4,998354,DepthScenes,duration_manipulation_targetAtFixation,jsons/v1_VE250_randls_26_rotated.json,http://54.235.29.9/FacialAge/BNav_EC2/DepthDuration/v2_depth_duration_MTurk/v2_DepthDuration_HTML.html#438,438,1366,625,1366,768,9-4-2022,11-17-1,5,depth_duration_stimuli/001828_2014-06-26_21-40-03_260595134347_rgbf000024-resize_0/001828_2014-06-26_21-40-03_260595134347_rgbf000024-resize_0-target.png,250,4.8260000000000005,12,5614,250,meters,jsons/v1_VE250_randls_26_rotated.json,2001940,2208364,61,Woman
5,998354,DepthScenes,duration_manipulation_targetAtFixation,jsons/v1_VE250_randls_26_rotated.json,http://54.235.29.9/FacialAge/BNav_EC2/DepthDuration/v2_depth_duration_MTurk/v2_DepthDuration_HTML.html#438,438,1366,625,1366,768,9-4-2022,11-17-1,6,depth_duration_stimuli/000009_2014-05-26_14-32-05_260595134347_rgbf000034-resize_3/000009_2014-05-26_14-32-05_260595134347_rgbf000034-resize_3-target.png,250,3.8715,12,4886,244,meters,jsons/v1_VE250_randls_26_rotated.json,2001940,2208364,61,Woman
6,998354,DepthScenes,duration_manipulation_targetAtFixation,jsons/v1_VE250_randls_26_rotated.json,http://54.235.29.9/FacialAge/BNav_EC2/DepthDuration/v2_depth_duration_MTurk/v2_DepthDuration_HTML.html#438,438,1366,625,1366,768,9-4-2022,11-17-1,7,depth_duration_stimuli/002103_2014-06-25_20-00-40_260595134347_rgbf000049-resize_0/002103_2014-06-25_20-00-40_260595134347_rgbf000049-resize_0-target.png,250,4.105,10,8080,249,meters,jsons/v1_VE250_randls_26_rotated.json,2001940,2208364,61,Woman
7,998354,DepthScenes,duration_manipulation_targetAtFixation,jsons/v1_VE250_randls_26_rotated.json,http://54.235.29.9/FacialAge/BNav_EC2/DepthDuration/v2_depth_duration_MTurk/v2_DepthDuration_HTML.html#438,438,1366,625,1366,768,9-4-2022,11-17-1,8,depth_duration_stimuli/002039_2014-06-24_20-22-38_260595134347_rgbf000084-resize_1/002039_2014-06-24_20-22-38_260595134347_rgbf000084-resize_1-target.png,250,4.408,15,4630,250,meters,jsons/v1_VE250_randls_26_rotated.json,2001940,2208364,61,Woman
8,998354,DepthScenes,duration_manipulation_targetAtFixation,jsons/v1_VE250_randls_26_rotated.json,http://54.235.29.9/FacialAge/BNav_EC2/DepthDuration/v2_depth_duration_MTurk/v2_DepthDuration_HTML.html#438,438,1366,625,1366,768,9-4-2022,11-17-1,9,depth_duration_stimuli/000635_2014-06-08_16-38-42_260595134347_rgbf000106-resize_1/000635_2014-06-08_16-38-42_260595134347_rgbf000106-resize_1-target.png,250,2.074,12,7802,250,meters,jsons/v1_VE250_randls_26_rotated.json,2001940,2208364,61,Woman
9,998354,DepthScenes,duration_manipulation_targetAtFixation,jsons/v1_VE250_randls_26_rotated.json,http://54.235.29.9/FacialAge/BNav_EC2/DepthDuration/v2_depth_duration_MTurk/v2_DepthDuration_HTML.html#438,438,1366,625,1366,768,9-4-2022,11-17-1,10,depth_duration_stimuli/002279_2014-06-28_18-55-32_260595134347_rgbf000040-resize_5/002279_2014-06-28_18-55-32_260595134347_rgbf000040-resize_5-target.png,250,1.5043333333333,8,5269,250,meters,jsons/v1_VE250_randls_26_rotated.json,2001940,2208364,61,Woman
10,998354,DepthScenes,duration_manipulation_targetAtFixation,jsons/v1_VE250_randls_26_rotated.json,http://54.235.29.9/FacialAge/BNav_EC2/DepthDuration/v2_depth_duration_MTurk/v2_DepthDuration_HTML.html#438,438,1366,625,1366,768,9-4-2022,11-17-1,11,depth_duration_stimuli/003338_2014-05-20_11-01-23_094959634447_rgbf000051-resize_6/003338_2014-05-20_11-01-23_094959634447_rgbf000051-resize_6-target.png,250,1.693,10,7891,250,meters,jsons/v1_VE250_randls_26_rotated.json,2001940,2208364,61,Woman
11,998354,DepthScenes,duration_manipulation_targetAtFixation,jsons/v1_VE250_randls_26_rotated.json,http://54.235.29.9/FacialAge/BNav_EC2/DepthDuration/v2_depth_duration_MTurk/v2_DepthDuration_HTML.html#438,438,1366,625,1366,768,9-4-2022,11-17-1,12,depth_duration_stimuli/002509_2014-06-24_13-19-22_094959634447_rgbf000077-resize_0/002509_2014-06-24_13-19-22_094959634447_rgbf000077-resize_0-target.png,250,1.3065,5,3786,249,meters,jsons/v1_VE250_randls_26_rotated.json,2001940,2208364,61,Woman
12,998354,DepthScenes,duration_manipulation_targetAtFixation,jsons/v1_VE250_randls_26_rotated.json,http://54.235.29.9/FacialAge/BNav_EC2/DepthDuration/v2_depth_duration_MTurk/v2_DepthDuration_HTML.html#438,438,1366,625,1366,768,9-4-2022,11-17-1,13,depth_duration_stimuli/000854_2014-06-09_19-43-13_260595134347_rgbf000066-resize_0/000854_2014-06-09_19-43-13_260595134347_rgbf000066-resize_0-target.png,250,3.068,8,7389,250,meters,jsons/v1_VE250_randls_26_rotated.json,2001940,2208364,61,Woman
13,998354,DepthScenes,duration_manipulation_targetAtFixation,jsons/v1_VE250_randls_26_rotated.json,http://54.235.29.9/FacialAge/BNav_EC2/DepthDuration/v2_depth_duration_MTurk/v2_DepthDuration_HTML.html#438,438,1366,625,1366,768,9-4-2022,11-17-1,14,depth_duration_stimuli/000758_2014-06-08_22-05-08_260595134347_rgbf000085-resize_0/000758_2014-06-08_22-05-08_260595134347_rgbf000085-resize_0-target.png,250,3.3810000000000002,10,5970,249,meters,jsons/v1_VE250_randls_26_rotated.json,2001940,2208364,61,Woman
14,998354,DepthScenes,duration_manipulation_targetAtFixation,jsons/v1_VE250_randls_26_rotated.json,http://54.235.29.9/FacialAge/BNav_EC2/DepthDuration/v2_depth_duration_MTurk/v2_DepthDuration_HTML.html#438,438,1366,625,1366,768,9-4-2022,11-17-1,15,depth_duration_stimuli/001447_2014-06-19_17-00-32_260595134347_rgbf000082-resize_5/001447_2014-06-19_17-00-32_260595134347_rgbf000082-resize_5-target.png,250,4.13775,8,8395,250,meters,jsons/v1_VE250_randls_26_rotated.json,2001940,2208364,61,Woman
15,998354,DepthScenes,duration_manipulation_targetAtFixation,jsons/v1_VE250_randls_26_rotated.json,http://54.235.29.9/FacialAge/BNav_EC2/DepthDuration/v2_depth_duration_MTurk/v2_DepthDuration_HTML.html#438,438,1366,625,1366,768,9-4-2022,11-17-1,16,depth_duration_stimuli/000447_2014-06-08_16-15-46_260595134347_rgbf000130-resize_1/000447_2014-06-08_16-15-46_260595134347_rgbf000130-resize_1-target.png,250,4.479,12,5984,249,meters,jsons/v1_VE250_randls_26_rotated.json,2001940,2208364,61,Woman
16,998354,DepthScenes,duration_manipulation_targetAtFixation,jsons/v1_VE250_randls_26_rotated.json,http://54.235.29.9/FacialAge/BNav_EC2/DepthDuration/v2_depth_duration_MTurk/v2_DepthDuration_HTML.html#438,438,1366,625,1366,768,9-4-2022,11-17-1,17,depth_duration_stimuli/001571_2014-06-20_17-21-32_260595134347_rgbf000089-resize_1/001571_2014-06-20_17-21-32_260595134347_rgbf000089-resize_1-target.png,250,1.86,8,18413,250,meters,jsons/v1_VE250_randls_26_rotated.json,2001940,2208364,61,Woman
17,998354,DepthScenes,duration_manipulation_targetAtFixation,jsons/v1_VE250_randls_26_rotated.json,http://54.235.29.9/FacialAge/BNav_EC2/DepthDuration/v2_depth_duration_MTurk/v2_DepthDuration_HTML.html#438,438,1366,625,1366,768,9-4-2022,11-17-1,18,depth_duration_stimuli/002272_2014-06-28_18-53-56_260595134347_rgbf000067-resize_2/002272_2014-06-28_18-53-56_260595134347_rgbf000067-resize_2-target.png,250,1.138,5,6785,249,meters,jsons/v1_VE250_randls_26_rotated.json,2001940,2208364,61,Woman
18,998354,DepthScenes,duration_manipulation_targetAtFixation,jsons/v1_VE250_randls_26_rotated.json,http://54.235.29.9/FacialAge/BNav_EC2/DepthDuration/v2_depth_duration_MTurk/v2_DepthDuration_HTML.html#438,438,1366,625,1366,768,9-4-2022,11-17-1,19,depth_duration_stimuli/001498_2014-06-19_17-45-14_260595134347_rgbf000129-resize_4/001498_2014-06-19_17-45-14_260595134347_rgbf000129-resize-original.jpg,250,1.4075,8,13076,248,meters,jsons/v1_VE250_randls_26_rotated.json,2001940,2208364,61,Woman
19,998354,DepthScenes,duration_manipulation_targetAtFixation,jsons/v1_VE250_randls_26_rotated.json,http://54.235.29.9/FacialAge/BNav_EC2/DepthDuration/v2_depth_duration_MTurk/v2_DepthDuration_HTML.html#438,438,1366,625,1366,768,9-4-2022,11-17-1,20,depth_duration_stimuli/001136_2014-06-17_15-19-41_260595134347_rgbf000076-resize_3/001136_2014-06-17_15-19-41_260595134347_rgbf000076-resize_3-target.png,250,1.8655,10,14285,250,meters,jsons/v1_VE250_randls_26_rotated.json,2001940,2208364,61,Woman
20,998354,DepthScenes,duration_manipulation_targetAtFixation,jsons/v1_VE250_randls_26_rotated.json,http://54.235.29.9/FacialAge/BNav_EC2/DepthDuration/v2_depth_duration_MTurk/v2_DepthDuration_HTML.html#438,438,1366,625,1366,768,9-4-2022,11-17-1,21,depth_duration_stimuli/001164_2014-06-17_15-35-46_260595134347_rgbf000085-resize_3/001164_2014-06-17_15-35-46_260595134347_rgbf000085-resize_3-target.png,250,2.354,12,8227,247,meters,jsons/v1_VE250_randls_26_rotated.json,2001940,2208364,61,Woman
21,998354,DepthScenes,duration_manipulation_targetAtFixation,jsons/v1_VE250_randls_26_rotated.json,http://54.235.29.9/FacialAge/BNav_EC2/DepthDuration/v2_depth_duration_MTurk/v2_DepthDuration_HTML.html#438,438,1366,625,1366,768,9-4-2022,11-17-1,22,depth_duration_stimuli/001052_2014-06-08_18-24-54_260595134347_rgbf000130-resize_1/001052_2014-06-08_18-24-54_260595134347_rgbf000130-resize_1-target.png,250,4.1045,15,22868,249,meters,jsons/v1_VE250_randls_26_rotated.json,2001940,2208364,61,Woman
22,998354,DepthScenes,duration_manipulation_targetAtFixation,jsons/v1_VE250_randls_26_rotated.json,http://54.235.29.9/FacialAge/BNav_EC2/DepthDuration/v2_depth_duration_MTurk/v2_DepthDuration_HTML.html#438,438,1366,625,1366,768,9-4-2022,11-17-1,23,depth_duration_stimuli/002988_2014-06-15_12-24-20_094959634447_rgbf000150-resize_1/002988_2014-06-15_12-24-20_094959634447_rgbf000150-resize_1-target.png,250,4.7669999999999995,12,11427,252,meters,jsons/v1_VE250_randls_26_rotated.json,2001940,2208364,61,Woman
23,998354,DepthScenes,duration_manipulation_targetAtFixation,jsons/v1_VE250_randls_26_rotated.json,http://54.235.29.9/FacialAge/BNav_EC2/DepthDuration/v2_depth_duration_MTurk/v2_DepthDuration_HTML.html#438,438,1366,625,1366,768,9-4-2022,11-17-1,24,depth_duration_stimuli/003423_2014-05-21_10-23-26_094959634447_rgbf002665-resize_2/003423_2014-05-21_10-23-26_094959634447_rgbf002665-resize_2-target.png,250,3.2575,8,19924,251,meters,jsons/v1_VE250_randls_26_rotated.json,2001940,2208364,61,Woman
24,998354,DepthScenes,duration_manipulation_targetAtFixation,jsons/v1_VE250_randls_26_rotated.json,http://54.235.29.9/FacialAge/BNav_EC2/DepthDuration/v2_depth_duration_MTurk/v2_DepthDuration_HTML.html#438,438,1366,625,1366,768,9-4-2022,11-17-1,25,depth_duration_stimuli/002905_2014-06-03_18-04-43_094959634447_rgbf000151-resize_2/002905_2014-06-03_18-04-43_094959634447_rgbf000151-resize_2-target.png,250,2.0295,8,12901,249,meters,jsons/v1_VE250_randls_26_rotated.json,2001940,2208364,61,Woman
25,998354,DepthScenes,duration_manipulation_targetAtFixation,jsons/v1_VE250_randls_26_rotated.json,http://54.235.29.9/FacialAge/BNav_EC2/DepthDuration/v2_depth_duration_MTurk/v2_DepthDuration_HTML.html#438,438,1366,625,1366,768,9-4-2022,11-17-1,26,depth_duration_stimuli/001094_2014-06-15_17-36-00_260595134347_rgbf000205-resize_0/001094_2014-06-15_17-36-00_260595134347_rgbf000205-resize_0-target.png,250,4.2175,10,13254,249,meters,jsons/v1_VE250_randls_26_rotated.json,2001940,2208364,61,Woman
26,998354,DepthScenes,duration_manipulation_targetAtFixation,jsons/v1_VE250_randls_26_rotated.json,http://54.235.29.9/FacialAge/BNav_EC2/DepthDuration/v2_depth_duration_MTurk/v2_DepthDuration_HTML.html#438,438,1366,625,1366,768,9-4-2022,11-17-1,27,depth_duration_stimuli/000692_2014-06-08_13-09-42_260595134347_rgbf000199-resize_2/000692_2014-06-08_13-09-42_260595134347_rgbf000199-resize_2-target.png,250,3.661,10,8928,250,meters,jsons/v1_VE250_randls_26_rotated.json,2001940,2208364,61,Woman
27,998354,DepthScenes,duration_manipulation_targetAtFixation,jsons/v1_VE250_randls_26_rotated.json,http://54.235.29.9/FacialAge/BNav_EC2/DepthDuration/v2_depth_duration_MTurk/v2_DepthDuration_HTML.html#438,438,1366,625,1366,768,9-4-2022,11-17-1,28,depth_duration_stimuli/000109_2014-05-14_23-41-52_260595134347_rgbf000035-resize_9/000109_2014-05-14_23-41-52_260595134347_rgbf000035-resize_9-target.png,250,1.3545,5,9039,248,meters,jsons/v1_VE250_randls_26_rotated.json,2001940,2208364,61,Woman
28,998354,DepthScenes,duration_manipulation_targetAtFixation,jsons/v1_VE250_randls_26_rotated.json,http://54.235.29.9/FacialAge/BNav_EC2/DepthDuration/v2_depth_duration_MTurk/v2_DepthDuration_HTML.html#438,438,1366,625,1366,768,9-4-2022,11-17-1,29,depth_duration_stimuli/000470_2014-06-09_19-42-40_260595134347_rgbf000094-resize_1/000470_2014-06-09_19-42-40_260595134347_rgbf000094-resize_1-target.png,250,1.831,5,5205,257,meters,jsons/v1_VE250_randls_26_rotated.json,2001940,2208364,61,Woman
29,998354,DepthScenes,duration_manipulation_targetAtFixation,jsons/v1_VE250_randls_26_rotated.json,http://54.235.29.9/FacialAge/BNav_EC2/DepthDuration/v2_depth_duration_MTurk/v2_DepthDuration_HTML.html#438,438,1366,625,1366,768,9-4-2022,11-17-1,30,depth_duration_stimuli/002072_2014-06-24_21-48-06_260595134347_rgbf000115-resize_0/002072_2014-06-24_21-48-06_260595134347_rgbf000115-resize-original.jpg,250,4.702,10,5591,248,meters,jsons/v1_VE250_randls_26_rotated.json,2001940,2208364,61,Woman
30,998354,DepthScenes,duration_manipulation_targetAtFixation,jsons/v1_VE250_randls_26_rotated.json,http://54.235.29.9/FacialAge/BNav_EC2/DepthDuration/v2_depth_duration_MTurk/v2_DepthDuration_HTML.html#438,438,1366,625,1366,768,9-4-2022,11-17-1,31,depth_duration_stimuli/002660_2014-06-13_15-44-18_094959634447_rgbf001878-resize_2/002660_2014-06-13_15-44-18_094959634447_rgbf001878-resize_2-target.png,250,3.576,8,6235,249,meters,jsons/v1_VE250_randls_26_rotated.json,2001940,2208364,61,Woman
31,998354,DepthScenes,duration_manipulation_targetAtFixation,jsons/v1_VE250_randls_26_rotated.json,http://54.235.29.9/FacialAge/BNav_EC2/DepthDuration/v2_depth_duration_MTurk/v2_DepthDuration_HTML.html#438,438,1366,625,1366,768,9-4-2022,11-17-1,32,depth_duration_stimuli/002153_2014-06-25_21-27-18_260595134347_rgbf000038-resize_5/002153_2014-06-25_21-27-18_260595134347_rgbf000038-resize_5-target.png,250,2.505,10,5929,249,meters,jsons/v1_VE250_randls_26_rotated.json,2001940,2208364,61,Woman
32,998354,DepthScenes,duration_manipulation_targetAtFixation,jsons/v1_VE250_randls_26_rotated.json,http://54.235.29.9/FacialAge/BNav_EC2/DepthDuration/v2_depth_duration_MTurk/v2_DepthDuration_HTML.html#438,438,1366,625,1366,768,9-4-2022,11-17-1,33,depth_duration_stimuli/000677_2014-06-08_23-10-32_260595134347_rgbf000158-resize_6/000677_2014-06-08_23-10-32_260595134347_rgbf000158-resize_6-target.png,250,3.556,10,9825,250,meters,jsons/v1_VE250_randls_26_rotated.json,2001940,2208364,61,Woman
33,998354,DepthScenes,duration_manipulation_targetAtFixation,jsons/v1_VE250_randls_26_rotated.json,http://54.235.29.9/FacialAge/BNav_EC2/DepthDuration/v2_depth_duration_MTurk/v2_DepthDuration_HTML.html#438,438,1366,625,1366,768,9-4-2022,11-17-1,34,depth_duration_stimuli/001029_2014-06-08_13-17-57_260595134347_rgbf000065-resize_1/001029_2014-06-08_13-17-57_260595134347_rgbf000065-resize_1-target.png,250,3.0835,10,4964,250,meters,jsons/v1_VE250_randls_26_rotated.json,2001940,2208364,61,Woman
34,998354,DepthScenes,duration_manipulation_targetAtFixation,jsons/v1_VE250_randls_26_rotated.json,http://54.235.29.9/FacialAge/BNav_EC2/DepthDuration/v2_depth_duration_MTurk/v2_DepthDuration_HTML.html#438,438,1366,625,1366,768,9-4-2022,11-17-1,35,depth_duration_stimuli/000549_2014-06-08_22-10-24_260595134347_rgbf000247-resize_3/000549_2014-06-08_22-10-24_260595134347_rgbf000247-resize_3-target.png,250,1.841,8,9512,251,meters,jsons/v1_VE250_randls_26_rotated.json,2001940,2208364,61,Woman
35,998354,DepthScenes,duration_manipulation_targetAtFixation,jsons/v1_VE250_randls_26_rotated.json,http://54.235.29.9/FacialAge/BNav_EC2/DepthDuration/v2_depth_duration_MTurk/v2_DepthDuration_HTML.html#438,438,1366,625,1366,768,9-4-2022,11-17-1,36,depth_duration_stimuli/001055_2014-06-08_18-45-35_260595134347_rgbf000111-resize_4/001055_2014-06-08_18-45-35_260595134347_rgbf000111-resize_4-target.png,250,2.4290000000000003,10,6189,248,meters,jsons/v1_VE250_randls_26_rotated.json,2001940,2208364,61,Woman
36,998354,DepthScenes,duration_manipulation_targetAtFixation,jsons/v1_VE250_randls_26_rotated.json,http://54.235.29.9/FacialAge/BNav_EC2/DepthDuration/v2_depth_duration_MTurk/v2_DepthDuration_HTML.html#438,438,1366,625,1366,768,9-4-2022,11-17-1,37,depth_duration_stimuli/001450_2014-06-19_17-02-03_260595134347_rgbf000203-resize_4/001450_2014-06-19_17-02-03_260595134347_rgbf000203-resize_4-target.png,250,4.0106666666667,8,6264,250,meters,jsons/v1_VE250_randls_26_rotated.json,2001940,2208364,61,Woman
37,998354,DepthScenes,duration_manipulation_targetAtFixation,jsons/v1_VE250_randls_26_rotated.json,http://54.235.29.9/FacialAge/BNav_EC2/DepthDuration/v2_depth_duration_MTurk/v2_DepthDuration_HTML.html#438,438,1366,625,1366,768,9-4-2022,11-17-1,38,depth_duration_stimuli/001449_2014-06-19_17-01-27_260595134347_rgbf000116-resize_2/001449_2014-06-19_17-01-27_260595134347_rgbf000116-resize_2-target.png,250,3.452,8,5371,250,meters,jsons/v1_VE250_randls_26_rotated.json,2001940,2208364,61,Woman
38,998354,DepthScenes,duration_manipulation_targetAtFixation,jsons/v1_VE250_randls_26_rotated.json,http://54.235.29.9/FacialAge/BNav_EC2/DepthDuration/v2_depth_duration_MTurk/v2_DepthDuration_HTML.html#438,438,1366,625,1366,768,9-4-2022,11-17-1,39,depth_duration_stimuli/002467_2014-06-28_20-38-07_260595134347_rgbf000026-resize_2/002467_2014-06-28_20-38-07_260595134347_rgbf000026-resize_2-target.png,250,4.742,8,8513,250,meters,jsons/v1_VE250_randls_26_rotated.json,2001940,2208364,61,Woman
39,998354,DepthScenes,duration_manipulation_targetAtFixation,jsons/v1_VE250_randls_26_rotated.json,http://54.235.29.9/FacialAge/BNav_EC2/DepthDuration/v2_depth_duration_MTurk/v2_DepthDuration_HTML.html#438,438,1366,625,1366,768,9-4-2022,11-17-1,40,depth_duration_stimuli/002570_2014-06-24_13-59-54_094959634447_rgbf000059-resize_0/002570_2014-06-24_13-59-54_094959634447_rgbf000059-resize_0-target.png,250,4.037,12,5697,248,meters,jsons/v1_VE250_randls_26_rotated.json,2001940,2208364,61,Woman
40,998354,DepthScenes,duration_manipulation_targetAtFixation,jsons/v1_VE250_randls_26_rotated.json,http://54.235.29.9/FacialAge/BNav_EC2/DepthDuration/v2_depth_duration_MTurk/v2_DepthDuration_HTML.html#438,438,1366,625,1366,768,9-4-2022,11-17-1,41,depth_duration_stimuli/000137_2014-05-20_17-04-49_260595134347_rgbf000120-resize_1/000137_2014-05-20_17-04-49_260595134347_rgbf000120-resize_1-target.png,250,3.786,10,13505,249,meters,jsons/v1_VE250_randls_26_rotated.json,2001940,2208364,61,Woman
41,998354,DepthScenes,duration_manipulation_targetAtFixation,jsons/v1_VE250_randls_26_rotated.json,http://54.235.29.9/FacialAge/BNav_EC2/DepthDuration/v2_depth_duration_MTurk/v2_DepthDuration_HTML.html#438,438,1366,625,1366,768,9-4-2022,11-17-1,42,depth_duration_stimuli/000736_2014-06-08_18-24-15_260595134347_rgbf000206-resize_3/000736_2014-06-08_18-24-15_260595134347_rgbf000206-resize_3-target.png,250,3.515,10,6689,251,meters,jsons/v1_VE250_randls_26_rotated.json,2001940,2208364,61,Woman
42,998354,DepthScenes,duration_manipulation_targetAtFixation,jsons/v1_VE250_randls_26_rotated.json,http://54.235.29.9/FacialAge/BNav_EC2/DepthDuration/v2_depth_duration_MTurk/v2_DepthDuration_HTML.html#438,438,1366,625,1366,768,9-4-2022,11-17-1,43,depth_duration_stimuli/002136_2014-06-25_21-18-03_260595134347_rgbf000109-resize_3/002136_2014-06-25_21-18-03_260595134347_rgbf000109-resize_3-target.png,250,1.9569999999999999,8,8576,250,meters,jsons/v1_VE250_randls_26_rotated.json,2001940,2208364,61,Woman
43,998354,DepthScenes,duration_manipulation_targetAtFixation,jsons/v1_VE250_randls_26_rotated.json,http://54.235.29.9/FacialAge/BNav_EC2/DepthDuration/v2_depth_duration_MTurk/v2_DepthDuration_HTML.html#438,438,1366,625,1366,768,9-4-2022,11-17-1,44,depth_duration_stimuli/002964_2014-06-08_17-46-11_094959634447_rgbf000091-resize_4/002964_2014-06-08_17-46-11_094959634447_rgbf000091-resize_4-target.png,250,1.6909999999999998,8,5721,249,meters,jsons/v1_VE250_randls_26_rotated.json,2001940,2208364,61,Woman
44,998354,DepthScenes,duration_manipulation_targetAtFixation,jsons/v1_VE250_randls_26_rotated.json,http://54.235.29.9/FacialAge/BNav_EC2/DepthDuration/v2_depth_duration_MTurk/v2_DepthDuration_HTML.html#438,438,1366,625,1366,768,9-4-2022,11-17-1,45,depth_duration_stimuli/003079_2014-06-15_15-18-20_094959634447_rgbf000152-resize_8/003079_2014-06-15_15-18-20_094959634447_rgbf000152-resize_8-target.png,250,2.8775,8,10173,249,meters,jsons/v1_VE250_randls_26_rotated.json,2001940,2208364,61,Woman
45,998354,DepthScenes,duration_manipulation_targetAtFixation,jsons/v1_VE250_randls_26_rotated.json,http://54.235.29.9/FacialAge/BNav_EC2/DepthDuration/v2_depth_duration_MTurk/v2_DepthDuration_HTML.html#438,438,1366,625,1366,768,9-4-2022,11-17-1,46,depth_duration_stimuli/000506_2014-06-08_23-21-00_260595134347_rgbf000070-resize_7/000506_2014-06-08_23-21-00_260595134347_rgbf000070-resize_7-target.png,250,4.0585,10,6989,248,meters,jsons/v1_VE250_randls_26_rotated.json,2001940,2208364,61,Woman
46,998354,DepthScenes,duration_manipulation_targetAtFixation,jsons/v1_VE250_randls_26_rotated.json,http://54.235.29.9/FacialAge/BNav_EC2/DepthDuration/v2_depth_duration_MTurk/v2_DepthDuration_HTML.html#438,438,1366,625,1366,768,9-4-2022,11-17-1,47,depth_duration_stimuli/000502_2014-06-08_23-02-32_260595134347_rgbf000063-resize_4/000502_2014-06-08_23-02-32_260595134347_rgbf000063-resize_4-target.png,250,2.431,5,15714,249,meters,jsons/v1_VE250_randls_26_rotated.json,2001940,2208364,61,Woman
47,998354,DepthScenes,duration_manipulation_targetAtFixation,jsons/v1_VE250_randls_26_rotated.json,http://54.235.29.9/FacialAge/BNav_EC2/DepthDuration/v2_depth_duration_MTurk/v2_DepthDuration_HTML.html#438,438,1366,625,1366,768,9-4-2022,11-17-1,48,depth_duration_stimuli/001199_2014-06-17_16-03-48_260595134347_rgbf000077-resize_0/001199_2014-06-17_16-03-48_260595134347_rgbf000077-resize_0-target.png,250,3.4375,8,5172,249,meters,jsons/v1_VE250_randls_26_rotated.json,2001940,2208364,61,Woman
48,998354,DepthScenes,duration_manipulation_targetAtFixation,jsons/v1_VE250_randls_26_rotated.json,http://54.235.29.9/FacialAge/BNav_EC2/DepthDuration/v2_depth_duration_MTurk/v2_DepthDuration_HTML.html#438,438,1366,625,1366,768,9-4-2022,11-17-1,49,depth_duration_stimuli/001170_2014-06-17_15-43-44_260595134347_rgbf000096-resize_6/001170_2014-06-17_15-43-44_260595134347_rgbf000096-resize-original.jpg,250,1.1909999999999998,8,9945,250,meters,jsons/v1_VE250_randls_26_rotated.json,2001940,2208364,61,Woman
49,998354,DepthScenes,duration_manipulation_targetAtFixation,jsons/v1_VE250_randls_26_rotated.json,http://54.235.29.9/FacialAge/BNav_EC2/DepthDuration/v2_depth_duration_MTurk/v2_DepthDuration_HTML.html#438,438,1366,625,1366,768,9-4-2022,11-17-1,50,depth_duration_stimuli/002199_2014-06-28_18-33-56_260595134347_rgbf000074-resize_0/002199_2014-06-28_18-33-56_260595134347_rgbf000074-resize_0-target.png,250,1.996,8,6470,248,meters,jsons/v1_VE250_randls_26_rotated.json,2001940,2208364,61,Woman
50,998354,DepthScenes,duration_manipulation_targetAtFixation,jsons/v1_VE250_randls_26_rotated.json,http://54.235.29.9/FacialAge/BNav_EC2/DepthDuration/v2_depth_duration_MTurk/v2_DepthDuration_HTML.html#438,438,1366,625,1366,768,9-4-2022,11-17-1,51,depth_duration_stimuli/001056_2014-06-08_18-46-44_260595134347_rgbf000068-resize_0/001056_2014-06-08_18-46-44_260595134347_rgbf000068-resize_0-target.png,250,2.6625,8,4625,250,meters,jsons/v1_VE250_randls_26_rotated.json,2001940,2208364,61,Woman
51,998354,DepthScenes,duration_manipulation_targetAtFixation,jsons/v1_VE250_randls_26_rotated.json,http://54.235.29.9/FacialAge/BNav_EC2/DepthDuration/v2_depth_duration_MTurk/v2_DepthDuration_HTML.html#438,438,1366,625,1366,768,9-4-2022,11-17-1,52,depth_duration_stimuli/003081_2014-06-15_15-19-16_094959634447_rgbf000150-resize_1/003081_2014-06-15_15-19-16_094959634447_rgbf000150-resize_1-target.png,250,3.9125,10,10919,248,meters,jsons/v1_VE250_randls_26_rotated.json,2001940,2208364,61,Woman
52,998354,DepthScenes,duration_manipulation_targetAtFixation,jsons/v1_VE250_randls_26_rotated.json,http://54.235.29.9/FacialAge/BNav_EC2/DepthDuration/v2_depth_duration_MTurk/v2_DepthDuration_HTML.html#438,438,1366,625,1366,768,9-4-2022,11-17-1,53,depth_duration_stimuli/001417_2014-06-19_16-25-36_260595134347_rgbf000115-resize_5/001417_2014-06-19_16-25-36_260595134347_rgbf000115-resize_5-target.png,250,4.6255,10,16925,250,meters,jsons/v1_VE250_randls_26_rotated.json,2001940,2208364,61,Woman
53,998354,DepthScenes,duration_manipulation_targetAtFixation,jsons/v1_VE250_randls_26_rotated.json,http://54.235.29.9/FacialAge/BNav_EC2/DepthDuration/v2_depth_duration_MTurk/v2_DepthDuration_HTML.html#438,438,1366,625,1366,768,9-4-2022,11-17-1,54,depth_duration_stimuli/002209_2014-06-28_18-36-10_260595134347_rgbf000051-resize_1/002209_2014-06-28_18-36-10_260595134347_rgbf000051-resize_1-target.png,250,2.057,8,5589,250,meters,jsons/v1_VE250_randls_26_rotated.json,2001940,2208364,61,Woman
54,998354,DepthScenes,duration_manipulation_targetAtFixation,jsons/v1_VE250_randls_26_rotated.json,http://54.235.29.9/FacialAge/BNav_EC2/DepthDuration/v2_depth_duration_MTurk/v2_DepthDuration_HTML.html#438,438,1366,625,1366,768,9-4-2022,11-17-1,55,depth_duration_stimuli/002763_2014-06-22_19-13-10_094959634447_rgbf000075-resize_4/002763_2014-06-22_19-13-10_094959634447_rgbf000075-resize_4-target.png,250,1.68375,8,12515,248,meters,jsons/v1_VE250_randls_26_rotated.json,2001940,2208364,61,Woman
55,998354,DepthScenes,duration_manipulation_targetAtFixation,jsons/v1_VE250_randls_26_rotated.json,http://54.235.29.9/FacialAge/BNav_EC2/DepthDuration/v2_depth_duration_MTurk/v2_DepthDuration_HTML.html#438,438,1366,625,1366,768,9-4-2022,11-17-1,56,depth_duration_stimuli/002995_2014-06-15_12-31-26_094959634447_rgbf000150-resize_1/002995_2014-06-15_12-31-26_094959634447_rgbf000150-resize_1-target.png,250,3.8360000000000003,10,8959,248,meters,jsons/v1_VE250_randls_26_rotated.json,2001940,2208364,61,Woman
56,998354,DepthScenes,duration_manipulation_targetAtFixation,jsons/v1_VE250_randls_26_rotated.json,http://54.235.29.9/FacialAge/BNav_EC2/DepthDuration/v2_depth_duration_MTurk/v2_DepthDuration_HTML.html#438,438,1366,625,1366,768,9-4-2022,11-17-1,57,depth_duration_stimuli/002748_2014-06-22_19-07-22_094959634447_rgbf000078-resize_1/002748_2014-06-22_19-07-22_094959634447_rgbf000078-resize_1-target.png,250,4.6705,10,5437,250,meters,jsons/v1_VE250_randls_26_rotated.json,2001940,2208364,61,Woman
57,998354,DepthScenes,duration_manipulation_targetAtFixation,jsons/v1_VE250_randls_26_rotated.json,http://54.235.29.9/FacialAge/BNav_EC2/DepthDuration/v2_depth_duration_MTurk/v2_DepthDuration_HTML.html#438,438,1366,625,1366,768,9-4-2022,11-17-1,58,depth_duration_stimuli/001032_2014-06-08_13-23-17_260595134347_rgbf000021-resize_3/001032_2014-06-08_13-23-17_260595134347_rgbf000021-resize_3-target.png,250,3.2725,10,5586,250,meters,jsons/v1_VE250_randls_26_rotated.json,2001940,2208364,61,Woman
58,998354,DepthScenes,duration_manipulation_targetAtFixation,jsons/v1_VE250_randls_26_rotated.json,http://54.235.29.9/FacialAge/BNav_EC2/DepthDuration/v2_depth_duration_MTurk/v2_DepthDuration_HTML.html#438,438,1366,625,1366,768,9-4-2022,11-17-1,59,depth_duration_stimuli/001059_2014-06-08_21-53-27_260595134347_rgbf000061-resize_4/001059_2014-06-08_21-53-27_260595134347_rgbf000061-resize_4-target.png,250,2.4185,8,4537,248,meters,jsons/v1_VE250_randls_26_rotated.json,2001940,2208364,61,Woman
59,998354,DepthScenes,duration_manipulation_targetAtFixation,jsons/v1_VE250_randls_26_rotated.json,http://54.235.29.9/FacialAge/BNav_EC2/DepthDuration/v2_depth_duration_MTurk/v2_DepthDuration_HTML.html#438,438,1366,625,1366,768,9-4-2022,11-17-1,60,depth_duration_stimuli/001584_2014-06-20_11-07-43_260595134347_rgbf000002-resize_1/001584_2014-06-20_11-07-43_260595134347_rgbf000002-resize_1-target.png,250,3.53,8,6479,249,meters,jsons/v1_VE250_randls_26_rotated.json,2001940,2208364,61,Woman
60,998354,DepthScenes,duration_manipulation_targetAtFixation,jsons/v1_VE250_randls_26_rotated.json,http://54.235.29.9/FacialAge/BNav_EC2/DepthDuration/v2_depth_duration_MTurk/v2_DepthDuration_HTML.html#438,438,1366,625,1366,768,9-4-2022,11-17-1,61,depth_duration_stimuli/003621_2014-05-23_18-06-08_094959634447_rgbf000101-resize_1/003621_2014-05-23_18-06-08_094959634447_rgbf000101-resize_1-target.png,250,3.9835,10,5116,250,meters,jsons/v1_VE250_randls_26_rotated.json,2001940,2208364,61,Woman
61,998354,DepthScenes,duration_manipulation_targetAtFixation,jsons/v1_VE250_randls_26_rotated.json,http://54.235.29.9/FacialAge/BNav_EC2/DepthDuration/v2_depth_duration_MTurk/v2_DepthDuration_HTML.html#438,438,1366,625,1366,768,9-4-2022,11-17-1,62,depth_duration_stimuli/002568_2014-06-24_13-59-21_094959634447_rgbf000062-resize_4/002568_2014-06-24_13-59-21_094959634447_rgbf000062-resize_4-target.png,250,3.015,12,13847,250,meters,jsons/v1_VE250_randls_26_rotated.json,2001940,2208364,61,Woman
62,998354,DepthScenes,duration_manipulation_targetAtFixation,jsons/v1_VE250_randls_26_rotated.json,http://54.235.29.9/FacialAge/BNav_EC2/DepthDuration/v2_depth_duration_MTurk/v2_DepthDuration_HTML.html#438,438,1366,625,1366,768,9-4-2022,11-17-1,63,depth_duration_stimuli/003492_2014-05-21_15-50-55_094959634447_rgbf000828-resize_1/003492_2014-05-21_15-50-55_094959634447_rgbf000828-resize_1-target.png,250,4.06875,10,8968,250,meters,jsons/v1_VE250_randls_26_rotated.json,2001940,2208364,61,Woman
63,998354,DepthScenes,duration_manipulation_targetAtFixation,jsons/v1_VE250_randls_26_rotated.json,http://54.235.29.9/FacialAge/BNav_EC2/DepthDuration/v2_depth_duration_MTurk/v2_DepthDuration_HTML.html#438,438,1366,625,1366,768,9-4-2022,11-17-1,64,depth_duration_stimuli/001815_2014-06-26_20-52-55_260595134347_rgbf000020-resize_0/001815_2014-06-26_20-52-55_260595134347_rgbf000020-resize_0-target.png,250,3.3865,10,14893,250,meters,jsons/v1_VE250_randls_26_rotated.json,2001940,2208364,61,Woman
64,998354,DepthScenes,duration_manipulation_targetAtFixation,jsons/v1_VE250_randls_26_rotated.json,http://54.235.29.9/FacialAge/BNav_EC2/DepthDuration/v2_depth_duration_MTurk/v2_DepthDuration_HTML.html#438,438,1366,625,1366,768,9-4-2022,11-17-1,65,depth_duration_stimuli/001808_2014-06-26_20-50-58_260595134347_rgbf000029-resize_1/001808_2014-06-26_20-50-58_260595134347_rgbf000029-resize_1-target.png,250,4.249,12,7147,249,meters,jsons/v1_VE250_randls_26_rotated.json,2001940,2208364,61,Woman
65,998354,DepthScenes,duration_manipulation_targetAtFixation,jsons/v1_VE250_randls_26_rotated.json,http://54.235.29.9/FacialAge/BNav_EC2/DepthDuration/v2_depth_duration_MTurk/v2_DepthDuration_HTML.html#438,438,1366,625,1366,768,9-4-2022,11-17-1,66,depth_duration_stimuli/001540_2014-06-20_17-01-05_260595134347_rgbf000086-resize_2/001540_2014-06-20_17-01-05_260595134347_rgbf000086-resize-original.jpg,250,1.459,12,10180,249,meters,jsons/v1_VE250_randls_26_rotated.json,2001940,2208364,61,Woman
66,998354,DepthScenes,duration_manipulation_targetAtFixation,jsons/v1_VE250_randls_26_rotated.json,http://54.235.29.9/FacialAge/BNav_EC2/DepthDuration/v2_depth_duration_MTurk/v2_DepthDuration_HTML.html#438,438,1366,625,1366,768,9-4-2022,11-17-1,67,depth_duration_stimuli/003490_2014-05-21_15-50-11_094959634447_rgbf000101-resize_3/003490_2014-05-21_15-50-11_094959634447_rgbf000101-resize_3-target.png,250,3.6445,10,11803,250,meters,jsons/v1_VE250_randls_26_rotated.json,2001940,2208364,61,Woman
67,998354,DepthScenes,duration_manipulation_targetAtFixation,jsons/v1_VE250_randls_26_rotated.json,http://54.235.29.9/FacialAge/BNav_EC2/DepthDuration/v2_depth_duration_MTurk/v2_DepthDuration_HTML.html#438,438,1366,625,1366,768,9-4-2022,11-17-1,68,depth_duration_stimuli/001175_2014-06-17_15-45-55_260595134347_rgbf000129-resize_4/001175_2014-06-17_15-45-55_260595134347_rgbf000129-resize_4-target.png,250,4.255,12,10313,249,meters,jsons/v1_VE250_randls_26_rotated.json,2001940,2208364,61,Woman
68,998354,DepthScenes,duration_manipulation_targetAtFixation,jsons/v1_VE250_randls_26_rotated.json,http://54.235.29.9/FacialAge/BNav_EC2/DepthDuration/v2_depth_duration_MTurk/v2_DepthDuration_HTML.html#438,438,1366,625,1366,768,9-4-2022,11-17-1,69,depth_duration_stimuli/003083_2014-06-15_15-21-03_094959634447_rgbf000063-resize_1/003083_2014-06-15_15-21-03_094959634447_rgbf000063-resize_1-target.png,250,4.1405,8,21097,248,meters,jsons/v1_VE250_randls_26_rotated.json,2001940,2208364,61,Woman
69,998354,DepthScenes,duration_manipulation_targetAtFixation,jsons/v1_VE250_randls_26_rotated.json,http://54.235.29.9/FacialAge/BNav_EC2/DepthDuration/v2_depth_duration_MTurk/v2_DepthDuration_HTML.html#438,438,1366,625,1366,768,9-4-2022,11-17-1,70,depth_duration_stimuli/000486_2014-06-09_20-47-20_260595134347_rgbf000143-resize_2/000486_2014-06-09_20-47-20_260595134347_rgbf000143-resize_2-target.png,250,4.8325,10,12016,250,meters,jsons/v1_VE250_randls_26_rotated.json,2001940,2208364,61,Woman
70,998354,DepthScenes,duration_manipulation_targetAtFixation,jsons/v1_VE250_randls_26_rotated.json,http://54.235.29.9/FacialAge/BNav_EC2/DepthDuration/v2_depth_duration_MTurk/v2_DepthDuration_HTML.html#438,438,1366,625,1366,768,9-4-2022,11-17-1,71,depth_duration_stimuli/002639_2014-06-24_14-51-37_094959634447_rgbf000074-resize_4/002639_2014-06-24_14-51-37_094959634447_rgbf000074-resize_4-target.png,250,4.0375,10,19136,251,meters,jsons/v1_VE250_randls_26_rotated.json,2001940,2208364,61,Woman
71,998354,DepthScenes,duration_manipulation_targetAtFixation,jsons/v1_VE250_randls_26_rotated.json,http://54.235.29.9/FacialAge/BNav_EC2/DepthDuration/v2_depth_duration_MTurk/v2_DepthDuration_HTML.html#438,438,1366,625,1366,768,9-4-2022,11-17-1,72,depth_duration_stimuli/003292_2014-05-14_21-53-49_094959634447_rgbf000100-resize_2/003292_2014-05-14_21-53-49_094959634447_rgbf000100-resize_2-target.png,250,3.4815,10,13755,250,meters,jsons/v1_VE250_randls_26_rotated.json,2001940,2208364,61,Woman
72,998354,DepthScenes,duration_manipulation_targetAtFixation,jsons/v1_VE250_randls_26_rotated.json,http://54.235.29.9/FacialAge/BNav_EC2/DepthDuration/v2_depth_duration_MTurk/v2_DepthDuration_HTML.html#438,438,1366,625,1366,768,9-4-2022,11-17-1,73,depth_duration_stimuli/001650_2014-06-20_12-09-00_260595134347_rgbf000087-resize_3/001650_2014-06-20_12-09-00_260595134347_rgbf000087-resize_3-target.png,250,1.9505,10,5255,250,meters,jsons/v1_VE250_randls_26_rotated.json,2001940,2208364,61,Woman
73,998354,DepthScenes,duration_manipulation_targetAtFixation,jsons/v1_VE250_randls_26_rotated.json,http://54.235.29.9/FacialAge/BNav_EC2/DepthDuration/v2_depth_duration_MTurk/v2_DepthDuration_HTML.html#438,438,1366,625,1366,768,9-4-2022,11-17-1,74,depth_duration_stimuli/000682_2014-06-08_23-14-58_260595134347_rgbf000041-resize_5/000682_2014-06-08_23-14-58_260595134347_rgbf000041-resize_5-target.png,250,2.7239999999999998,12,16181,247,meters,jsons/v1_VE250_randls_26_rotated.json,2001940,2208364,61,Woman
74,998354,DepthScenes,duration_manipulation_targetAtFixation,jsons/v1_VE250_randls_26_rotated.json,http://54.235.29.9/FacialAge/BNav_EC2/DepthDuration/v2_depth_duration_MTurk/v2_DepthDuration_HTML.html#438,438,1366,625,1366,768,9-4-2022,11-17-1,75,depth_duration_stimuli/002657_2014-06-13_15-29-54_094959634447_rgbf000150-resize_1/002657_2014-06-13_15-29-54_094959634447_rgbf000150-resize_1-target.png,250,4.919,12,15291,249,meters,jsons/v1_VE250_randls_26_rotated.json,2001940,2208364,61,Woman
75,998354,DepthScenes,duration_manipulation_targetAtFixation,jsons/v1_VE250_randls_26_rotated.json,http://54.235.29.9/FacialAge/BNav_EC2/DepthDuration/v2_depth_duration_MTurk/v2_DepthDuration_HTML.html#438,438,1366,625,1366,768,9-4-2022,11-17-1,76,depth_duration_stimuli/002375_2014-06-28_20-13-44_260595134347_rgbf000032-resize_1/002375_2014-06-28_20-13-44_260595134347_rgbf000032-resize_1-target.png,250,4.0175,10,8870,250,meters,jsons/v1_VE250_randls_26_rotated.json,2001940,2208364,61,Woman
76,998354,DepthScenes,duration_manipulation_targetAtFixation,jsons/v1_VE250_randls_26_rotated.json,http://54.235.29.9/FacialAge/BNav_EC2/DepthDuration/v2_depth_duration_MTurk/v2_DepthDuration_HTML.html#438,438,1366,625,1366,768,9-4-2022,11-17-1,77,depth_duration_stimuli/002545_2014-06-24_13-38-53_094959634447_rgbf000080-resize_4/002545_2014-06-24_13-38-53_094959634447_rgbf000080-resize_4-target.png,250,1.9205,10,12632,250,meters,jsons/v1_VE250_randls_26_rotated.json,2001940,2208364,61,Woman
77,998354,DepthScenes,duration_manipulation_targetAtFixation,jsons/v1_VE250_randls_26_rotated.json,http://54.235.29.9/FacialAge/BNav_EC2/DepthDuration/v2_depth_duration_MTurk/v2_DepthDuration_HTML.html#438,438,1366,625,1366,768,9-4-2022,11-17-1,78,depth_duration_stimuli/001092_2014-06-15_17-34-58_260595134347_rgbf000171-resize_3/001092_2014-06-15_17-34-58_260595134347_rgbf000171-resize_3-target.png,250,2.6935,10,11728,251,meters,jsons/v1_VE250_randls_26_rotated.json,2001940,2208364,61,Woman
78,998354,DepthScenes,duration_manipulation_targetAtFixation,jsons/v1_VE250_randls_26_rotated.json,http://54.235.29.9/FacialAge/BNav_EC2/DepthDuration/v2_depth_duration_MTurk/v2_DepthDuration_HTML.html#438,438,1366,625,1366,768,9-4-2022,11-17-1,79,depth_duration_stimuli/002875_2014-06-01_15-19-00_094959634447_rgbf000151-resize_1/002875_2014-06-01_15-19-00_094959634447_rgbf000151-resize_1-target.png,250,1.9675,10,268198,249,meters,jsons/v1_VE250_randls_26_rotated.json,2001940,2208364,61,Woman
79,998354,DepthScenes,duration_manipulation_targetAtFixation,jsons/v1_VE250_randls_26_rotated.json,http://54.235.29.9/FacialAge/BNav_EC2/DepthDuration/v2_depth_duration_MTurk/v2_DepthDuration_HTML.html#438,438,1366,625,1366,768,9-4-2022,11-17-1,80,depth_duration_stimuli/001011_2014-06-08_23-18-54_260595134347_rgbf000044-resize_4/001011_2014-06-08_23-18-54_260595134347_rgbf000044-resize_4-target.png,250,2.4730000000000003,10,16069,251,meters,jsons/v1_VE250_randls_26_rotated.json,2001940,2208364,61,Woman
80,998354,DepthScenes,duration_manipulation_targetAtFixation,jsons/v1_VE250_randls_26_rotated.json,http://54.235.29.9/FacialAge/BNav_EC2/DepthDuration/v2_depth_duration_MTurk/v2_DepthDuration_HTML.html#438,438,1366,625,1366,768,9-4-2022,11-17-1,81,depth_duration_stimuli/002425_2014-06-28_20-27-29_260595134347_rgbf000031-resize_8/002425_2014-06-28_20-27-29_260595134347_rgbf000031-resize_8-target.png,250,3.8960000000000004,12,6775,249,meters,jsons/v1_VE250_randls_26_rotated.json,2001940,2208364,61,Woman
81,998354,DepthScenes,duration_manipulation_targetAtFixation,jsons/v1_VE250_randls_26_rotated.json,http://54.235.29.9/FacialAge/BNav_EC2/DepthDuration/v2_depth_duration_MTurk/v2_DepthDuration_HTML.html#438,438,1366,625,1366,768,9-4-2022,11-17-1,82,depth_duration_stimuli/000642_2014-06-08_16-59-25_260595134347_rgbf000098-resize_2/000642_2014-06-08_16-59-25_260595134347_rgbf000098-resize_2-target.png,250,2.8815,12,11674,251,meters,jsons/v1_VE250_randls_26_rotated.json,2001940,2208364,61,Woman
82,998354,DepthScenes,duration_manipulation_targetAtFixation,jsons/v1_VE250_randls_26_rotated.json,http://54.235.29.9/FacialAge/BNav_EC2/DepthDuration/v2_depth_duration_MTurk/v2_DepthDuration_HTML.html#438,438,1366,625,1366,768,9-4-2022,11-17-1,83,depth_duration_stimuli/002637_2014-06-24_14-51-13_094959634447_rgbf000066-resize_4/002637_2014-06-24_14-51-13_094959634447_rgbf000066-resize_4-target.png,250,1.9955,10,5590,249,meters,jsons/v1_VE250_randls_26_rotated.json,2001940,2208364,61,Woman
83,998354,DepthScenes,duration_manipulation_targetAtFixation,jsons/v1_VE250_randls_26_rotated.json,http://54.235.29.9/FacialAge/BNav_EC2/DepthDuration/v2_depth_duration_MTurk/v2_DepthDuration_HTML.html#438,438,1366,625,1366,768,9-4-2022,11-17-1,84,depth_duration_stimuli/003534_2014-05-22_15-06-10_094959634447_rgbf000102-resize_4/003534_2014-05-22_15-06-10_094959634447_rgbf000102-resize_4-target.png,250,1.426,12,23251,250,meters,jsons/v1_VE250_randls_26_rotated.json,2001940,2208364,61,Woman
84,998354,DepthScenes,duration_manipulation_targetAtFixation,jsons/v1_VE250_randls_26_rotated.json,http://54.235.29.9/FacialAge/BNav_EC2/DepthDuration/v2_depth_duration_MTurk/v2_DepthDuration_HTML.html#438,438,1366,625,1366,768,9-4-2022,11-17-1,85,depth_duration_stimuli/000483_2014-06-09_20-41-45_260595134347_rgbf000116-resize_4/000483_2014-06-09_20-41-45_260595134347_rgbf000116-resize_4-target.png,250,1.337,8,22524,250,meters,jsons/v1_VE250_randls_26_rotated.json,2001940,2208364,61,Woman
85,998354,DepthScenes,duration_manipulation_targetAtFixation,jsons/v1_VE250_randls_26_rotated.json,http://54.235.29.9/FacialAge/BNav_EC2/DepthDuration/v2_depth_duration_MTurk/v2_DepthDuration_HTML.html#438,438,1366,625,1366,768,9-4-2022,11-17-1,86,depth_duration_stimuli/000469_2014-06-09_19-42-10_260595134347_rgbf000081-resize_1/000469_2014-06-09_19-42-10_260595134347_rgbf000081-resize_1-target.png,250,1.652,8,22590,249,meters,jsons/v1_VE250_randls_26_rotated.json,2001940,2208364,61,Woman
86,998354,DepthScenes,duration_manipulation_targetAtFixation,jsons/v1_VE250_randls_26_rotated.json,http://54.235.29.9/FacialAge/BNav_EC2/DepthDuration/v2_depth_duration_MTurk/v2_DepthDuration_HTML.html#438,438,1366,625,1366,768,9-4-2022,11-17-1,87,depth_duration_stimuli/000734_2014-06-08_17-39-11_260595134347_rgbf000128-resize_2/000734_2014-06-08_17-39-11_260595134347_rgbf000128-resize_2-target.png,250,4.098,12,27341,265,meters,jsons/v1_VE250_randls_26_rotated.json,2001940,2208364,61,Woman
87,998354,DepthScenes,duration_manipulation_targetAtFixation,jsons/v1_VE250_randls_26_rotated.json,http://54.235.29.9/FacialAge/BNav_EC2/DepthDuration/v2_depth_duration_MTurk/v2_DepthDuration_HTML.html#438,438,1366,625,1366,768,9-4-2022,11-17-1,88,depth_duration_stimuli/000739_2014-06-08_18-45-58_260595134347_rgbf000068-resize_1/000739_2014-06-08_18-45-58_260595134347_rgbf000068-resize_1-target.png,250,3.534,12,25906,250,meters,jsons/v1_VE250_randls_26_rotated.json,2001940,2208364,61,Woman
88,998354,DepthScenes,duration_manipulation_targetAtFixation,jsons/v1_VE250_randls_26_rotated.json,http://54.235.29.9/FacialAge/BNav_EC2/DepthDuration/v2_depth_duration_MTurk/v2_DepthDuration_HTML.html#438,438,1366,625,1366,768,9-4-2022,11-17-1,89,depth_duration_stimuli/003129_2014-05-12_10-48-10_094959634447_rgbf000100-resize_0/003129_2014-05-12_10-48-10_094959634447_rgbf000100-resize_0-target.png,250,4.9305,8,30417,250,meters,jsons/v1_VE250_randls_26_rotated.json,2001940,2208364,61,Woman
89,998354,DepthScenes,duration_manipulation_targetAtFixation,jsons/v1_VE250_randls_26_rotated.json,http://54.235.29.9/FacialAge/BNav_EC2/DepthDuration/v2_depth_duration_MTurk/v2_DepthDuration_HTML.html#438,438,1366,625,1366,768,9-4-2022,11-17-1,90,depth_duration_stimuli/000414_2014-06-04_19-49-13_260595134347_rgbf000044-resize_0/000414_2014-06-04_19-49-13_260595134347_rgbf000044-resize_0-target.png,250,4.329,12,41587,248,meters,jsons/v1_VE250_randls_26_rotated.json,2001940,2208364,61,Woman
90,998354,DepthScenes,duration_manipulation_targetAtFixation,jsons/v1_VE250_randls_26_rotated.json,http://54.235.29.9/FacialAge/BNav_EC2/DepthDuration/v2_depth_duration_MTurk/v2_DepthDuration_HTML.html#438,438,1366,625,1366,768,9-4-2022,11-17-1,91,depth_duration_stimuli/002414_2014-06-28_20-24-58_260595134347_rgbf000067-resize_4/002414_2014-06-28_20-24-58_260595134347_rgbf000067-resize_4-target.png,250,4.363,8,12259,251,meters,jsons/v1_VE250_randls_26_rotated.json,2001940,2208364,61,Woman
91,998354,DepthScenes,duration_manipulation_targetAtFixation,jsons/v1_VE250_randls_26_rotated.json,http://54.235.29.9/FacialAge/BNav_EC2/DepthDuration/v2_depth_duration_MTurk/v2_DepthDuration_HTML.html#438,438,1366,625,1366,768,9-4-2022,11-17-1,92,depth_duration_stimuli/000773_2014-06-08_22-24-54_260595134347_rgbf000093-resize_1/000773_2014-06-08_22-24-54_260595134347_rgbf000093-resize_1-target.png,250,4.973,12,7335,249,meters,jsons/v1_VE250_randls_26_rotated.json,2001940,2208364,61,Woman
92,998354,DepthScenes,duration_manipulation_targetAtFixation,jsons/v1_VE250_randls_26_rotated.json,http://54.235.29.9/FacialAge/BNav_EC2/DepthDuration/v2_depth_duration_MTurk/v2_DepthDuration_HTML.html#438,438,1366,625,1366,768,9-4-2022,11-17-1,93,depth_duration_stimuli/003587_2014-05-23_16-48-02_094959634447_rgbf002384-resize_2/003587_2014-05-23_16-48-02_094959634447_rgbf002384-resize_2-target.png,250,1.357,12,11898,249,meters,jsons/v1_VE250_randls_26_rotated.json,2001940,2208364,61,Woman
93,998354,DepthScenes,duration_manipulation_targetAtFixation,jsons/v1_VE250_randls_26_rotated.json,http://54.235.29.9/FacialAge/BNav_EC2/DepthDuration/v2_depth_duration_MTurk/v2_DepthDuration_HTML.html#438,438,1366,625,1366,768,9-4-2022,11-17-1,94,depth_duration_stimuli/001167_2014-06-17_15-38-07_260595134347_rgbf000108-resize_0/001167_2014-06-17_15-38-07_260595134347_rgbf000108-resize_0-target.png,250,1.8505,10,5644,252,meters,jsons/v1_VE250_randls_26_rotated.json,2001940,2208364,61,Woman
94,998354,DepthScenes,duration_manipulation_targetAtFixation,jsons/v1_VE250_randls_26_rotated.json,http://54.235.29.9/FacialAge/BNav_EC2/DepthDuration/v2_depth_duration_MTurk/v2_DepthDuration_HTML.html#438,438,1366,625,1366,768,9-4-2022,11-17-1,95,depth_duration_stimuli/002949_2014-06-26_15-57-42_094959634447_rgbf000079-resize_1/002949_2014-06-26_15-57-42_094959634447_rgbf000079-resize_1-target.png,250,1.8915,10,14800,250,meters,jsons/v1_VE250_randls_26_rotated.json,2001940,2208364,61,Woman
95,998354,DepthScenes,duration_manipulation_targetAtFixation,jsons/v1_VE250_randls_26_rotated.json,http://54.235.29.9/FacialAge/BNav_EC2/DepthDuration/v2_depth_duration_MTurk/v2_DepthDuration_HTML.html#438,438,1366,625,1366,768,9-4-2022,11-17-1,96,depth_duration_stimuli/000522_2014-06-08_13-35-06_260595134347_rgbf000244-resize_1/000522_2014-06-08_13-35-06_260595134347_rgbf000244-resize_1-target.png,250,2.3715,12,6250,243,meters,jsons/v1_VE250_randls_26_rotated.json,2001940,2208364,61,Woman
96,998354,DepthScenes,duration_manipulation_targetAtFixation,jsons/v1_VE250_randls_26_rotated.json,http://54.235.29.9/FacialAge/BNav_EC2/DepthDuration/v2_depth_duration_MTurk/v2_DepthDuration_HTML.html#438,438,1366,625,1366,768,9-4-2022,11-17-1,97,depth_duration_stimuli/003495_2014-05-21_16-01-51_094959634447_rgbf000100-resize_3/003495_2014-05-21_16-01-51_094959634447_rgbf000100-resize_3-target.png,250,1.6255,8,9072,248,meters,jsons/v1_VE250_randls_26_rotated.json,2001940,2208364,61,Woman
97,998354,DepthScenes,duration_manipulation_targetAtFixation,jsons/v1_VE250_randls_26_rotated.json,http://54.235.29.9/FacialAge/BNav_EC2/DepthDuration/v2_depth_duration_MTurk/v2_DepthDuration_HTML.html#438,438,1366,625,1366,768,9-4-2022,11-17-1,98,depth_duration_stimuli/001244_2014-06-17_16-47-45_260595134347_rgbf000030-resize_4/001244_2014-06-17_16-47-45_260595134347_rgbf000030-resize_4-target.png,250,2.0425,10,5654,248,meters,jsons/v1_VE250_randls_26_rotated.json,2001940,2208364,61,Woman
98,998354,DepthScenes,duration_manipulation_targetAtFixation,jsons/v1_VE250_randls_26_rotated.json,http://54.235.29.9/FacialAge/BNav_EC2/DepthDuration/v2_depth_duration_MTurk/v2_DepthDuration_HTML.html#438,438,1366,625,1366,768,9-4-2022,11-17-1,99,depth_duration_stimuli/001222_2014-06-17_16-24-06_260595134347_rgbf000073-resize_0/001222_2014-06-17_16-24-06_260595134347_rgbf000073-resize-original.jpg,250,1.4385,12,11393,250,meters,jsons/v1_VE250_randls_26_rotated.json,2001940,2208364,61,Woman
99,998354,DepthScenes,duration_manipulation_targetAtFixation,jsons/v1_VE250_randls_26_rotated.json,http://54.235.29.9/FacialAge/BNav_EC2/DepthDuration/v2_depth_duration_MTurk/v2_DepthDuration_HTML.html#438,438,1366,625,1366,768,9-4-2022,11-17-1,100,depth_duration_stimuli/000742_2014-06-08_18-48-09_260595134347_rgbf000164-resize_4/000742_2014-06-08_18-48-09_260595134347_rgbf000164-resize_4-target.png,250,4.632,10,7492,250,meters,jsons/v1_VE250_randls_26_rotated.json,2001940,2208364,61,Woman
100,998354,DepthScenes,duration_manipulation_targetAtFixation,jsons/v1_VE250_randls_26_rotated.json,http://54.235.29.9/FacialAge/BNav_EC2/DepthDuration/v2_depth_duration_MTurk/v2_DepthDuration_HTML.html#438,438,1366,625,1366,768,9-4-2022,11-17-1,101,depth_duration_stimuli/001066_2014-06-08_22-03-20_260595134347_rgbf000066-resize_4/001066_2014-06-08_22-03-20_260595134347_rgbf000066-resize_4-target.png,250,4.2330000000000005,12,6829,247,meters,jsons/v1_VE250_randls_26_rotated.json,2001940,2208364,61,Woman
101,998354,DepthScenes,duration_manipulation_targetAtFixation,jsons/v1_VE250_randls_26_rotated.json,http://54.235.29.9/FacialAge/BNav_EC2/DepthDuration/v2_depth_duration_MTurk/v2_DepthDuration_HTML.html#438,438,1366,625,1366,768,9-4-2022,11-17-1,102,depth_duration_stimuli/001617_2014-06-20_11-35-32_260595134347_rgbf000066-resize_1/001617_2014-06-20_11-35-32_260595134347_rgbf000066-resize_1-target.png,250,3.7910000000000004,10,11536,248,meters,jsons/v1_VE250_randls_26_rotated.json,2001940,2208364,61,Woman
102,998354,DepthScenes,duration_manipulation_targetAtFixation,jsons/v1_VE250_randls_26_rotated.json,http://54.235.29.9/FacialAge/BNav_EC2/DepthDuration/v2_depth_duration_MTurk/v2_DepthDuration_HTML.html#438,438,1366,625,1366,768,9-4-2022,11-17-1,103,depth_duration_stimuli/001806_2014-06-26_20-50-20_260595134347_rgbf000091-resize_1/001806_2014-06-26_20-50-20_260595134347_rgbf000091-resize_1-target.png,250,2.7305,8,6619,249,meters,jsons/v1_VE250_randls_26_rotated.json,2001940,2208364,61,Woman
103,998354,DepthScenes,duration_manipulation_targetAtFixation,jsons/v1_VE250_randls_26_rotated.json,http://54.235.29.9/FacialAge/BNav_EC2/DepthDuration/v2_depth_duration_MTurk/v2_DepthDuration_HTML.html#438,438,1366,625,1366,768,9-4-2022,11-17-1,104,depth_duration_stimuli/001516_2014-06-20_16-25-09_260595134347_rgbf000076-resize_2/001516_2014-06-20_16-25-09_260595134347_rgbf000076-resize_2-target.png,250,1.7445,8,9509,251,meters,jsons/v1_VE250_randls_26_rotated.json,2001940,2208364,61,Woman
104,998354,DepthScenes,duration_manipulation_targetAtFixation,jsons/v1_VE250_randls_26_rotated.json,http://54.235.29.9/FacialAge/BNav_EC2/DepthDuration/v2_depth_duration_MTurk/v2_DepthDuration_HTML.html#438,438,1366,625,1366,768,9-4-2022,11-17-1,105,depth_duration_stimuli/002118_2014-06-25_20-32-08_260595134347_rgbf000078-resize_1/002118_2014-06-25_20-32-08_260595134347_rgbf000078-resize_1-target.png,250,2.6460000000000004,12,4598,250,meters,jsons/v1_VE250_randls_26_rotated.json,2001940,2208364,61,Woman
105,998354,DepthScenes,duration_manipulation_targetAtFixation,jsons/v1_VE250_randls_26_rotated.json,http://54.235.29.9/FacialAge/BNav_EC2/DepthDuration/v2_depth_duration_MTurk/v2_DepthDuration_HTML.html#438,438,1366,625,1366,768,9-4-2022,11-17-1,106,depth_duration_stimuli/001132_2014-06-17_14-48-54_260595134347_rgbf000100-resize_2/001132_2014-06-17_14-48-54_260595134347_rgbf000100-resize_2-target.png,250,3.753,10,8896,253,meters,jsons/v1_VE250_randls_26_rotated.json,2001940,2208364,61,Woman
106,998354,DepthScenes,duration_manipulation_targetAtFixation,jsons/v1_VE250_randls_26_rotated.json,http://54.235.29.9/FacialAge/BNav_EC2/DepthDuration/v2_depth_duration_MTurk/v2_DepthDuration_HTML.html#438,438,1366,625,1366,768,9-4-2022,11-17-1,107,depth_duration_stimuli/001133_2014-06-17_14-49-16_260595134347_rgbf000100-resize_0/001133_2014-06-17_14-49-16_260595134347_rgbf000100-resize_0-target.png,250,4.2115,10,6794,250,meters,jsons/v1_VE250_randls_26_rotated.json,2001940,2208364,61,Woman
107,998354,DepthScenes,duration_manipulation_targetAtFixation,jsons/v1_VE250_randls_26_rotated.json,http://54.235.29.9/FacialAge/BNav_EC2/DepthDuration/v2_depth_duration_MTurk/v2_DepthDuration_HTML.html#438,438,1366,625,1366,768,9-4-2022,11-17-1,108,depth_duration_stimuli/001392_2014-06-19_16-07-59_260595134347_rgbf000046-resize_1/001392_2014-06-19_16-07-59_260595134347_rgbf000046-resize_1-target.png,250,4.135,8,5823,249,meters,jsons/v1_VE250_randls_26_rotated.json,2001940,2208364,61,Woman
108,998354,DepthScenes,duration_manipulation_targetAtFixation,jsons/v1_VE250_randls_26_rotated.json,http://54.235.29.9/FacialAge/BNav_EC2/DepthDuration/v2_depth_duration_MTurk/v2_DepthDuration_HTML.html#438,438,1366,625,1366,768,9-4-2022,11-17-1,109,depth_duration_stimuli/001570_2014-06-20_17-21-09_260595134347_rgbf000135-resize_4/001570_2014-06-20_17-21-09_260595134347_rgbf000135-resize_4-target.png,250,4.467,12,5288,252,meters,jsons/v1_VE250_randls_26_rotated.json,2001940,2208364,61,Woman
109,998354,DepthScenes,duration_manipulation_targetAtFixation,jsons/v1_VE250_randls_26_rotated.json,http://54.235.29.9/FacialAge/BNav_EC2/DepthDuration/v2_depth_duration_MTurk/v2_DepthDuration_HTML.html#438,438,1366,625,1366,768,9-4-2022,11-17-1,110,depth_duration_stimuli/003010_2014-06-15_12-54-35_094959634447_rgbf000112-resize_0/003010_2014-06-15_12-54-35_094959634447_rgbf000112-resize_0-target.png,250,3.1185,15,10449,250,meters,jsons/v1_VE250_randls_26_rotated.json,2001940,2208364,61,Woman
110,998354,DepthScenes,duration_manipulation_targetAtFixation,jsons/v1_VE250_randls_26_rotated.json,http://54.235.29.9/FacialAge/BNav_EC2/DepthDuration/v2_depth_duration_MTurk/v2_DepthDuration_HTML.html#438,438,1366,625,1366,768,9-4-2022,11-17-1,111,depth_duration_stimuli/001810_2014-06-26_20-51-35_260595134347_rgbf000040-resize_3/001810_2014-06-26_20-51-35_260595134347_rgbf000040-resize_3-target.png,250,2.2525,10,5026,250,meters,jsons/v1_VE250_randls_26_rotated.json,2001940,2208364,61,Woman
111,998354,DepthScenes,duration_manipulation_targetAtFixation,jsons/v1_VE250_randls_26_rotated.json,http://54.235.29.9/FacialAge/BNav_EC2/DepthDuration/v2_depth_duration_MTurk/v2_DepthDuration_HTML.html#438,438,1366,625,1366,768,9-4-2022,11-17-1,112,depth_duration_stimuli/001235_2014-06-17_16-37-36_260595134347_rgbf000084-resize_4/001235_2014-06-17_16-37-36_260595134347_rgbf000084-resize_4-target.png,250,3.6605,12,16230,248,meters,jsons/v1_VE250_randls_26_rotated.json,2001940,2208364,61,Woman
112,998354,DepthScenes,duration_manipulation_targetAtFixation,jsons/v1_VE250_randls_26_rotated.json,http://54.235.29.9/FacialAge/BNav_EC2/DepthDuration/v2_depth_duration_MTurk/v2_DepthDuration_HTML.html#438,438,1366,625,1366,768,9-4-2022,11-17-1,113,depth_duration_stimuli/000788_2014-06-08_22-34-36_260595134347_rgbf000131-resize_1/000788_2014-06-08_22-34-36_260595134347_rgbf000131-resize_1-target.png,250,3.359,10,9528,250,meters,jsons/v1_VE250_randls_26_rotated.json,2001940,2208364,61,Woman
113,998354,DepthScenes,duration_manipulation_targetAtFixation,jsons/v1_VE250_randls_26_rotated.json,http://54.235.29.9/FacialAge/BNav_EC2/DepthDuration/v2_depth_duration_MTurk/v2_DepthDuration_HTML.html#438,438,1366,625,1366,768,9-4-2022,11-17-1,114,depth_duration_stimuli/000409_2014-06-04_19-23-33_260595134347_rgbf000067-resize_0/000409_2014-06-04_19-23-33_260595134347_rgbf000067-resize_0-target.png,250,3.7335,8,17101,241,meters,jsons/v1_VE250_randls_26_rotated.json,2001940,2208364,61,Woman
114,998354,DepthScenes,duration_manipulation_targetAtFixation,jsons/v1_VE250_randls_26_rotated.json,http://54.235.29.9/FacialAge/BNav_EC2/DepthDuration/v2_depth_duration_MTurk/v2_DepthDuration_HTML.html#438,438,1366,625,1366,768,9-4-2022,11-17-1,115,depth_duration_stimuli/002663_2014-06-13_15-50-26_094959634447_rgbf000075-resize_1/002663_2014-06-13_15-50-26_094959634447_rgbf000075-resize_1-target.png,250,4.7495,8,8014,249,meters,jsons/v1_VE250_randls_26_rotated.json,2001940,2208364,61,Woman
115,998354,DepthScenes,duration_manipulation_targetAtFixation,jsons/v1_VE250_randls_26_rotated.json,http://54.235.29.9/FacialAge/BNav_EC2/DepthDuration/v2_depth_duration_MTurk/v2_DepthDuration_HTML.html#438,438,1366,625,1366,768,9-4-2022,11-17-1,116,depth_duration_stimuli/003228_2014-05-14_13-42-35_094959634447_rgbf000101-resize_1/003228_2014-05-14_13-42-35_094959634447_rgbf000101-resize_1-target.png,250,1.9680000000000002,8,13545,249,meters,jsons/v1_VE250_randls_26_rotated.json,2001940,2208364,61,Woman
116,998354,DepthScenes,duration_manipulation_targetAtFixation,jsons/v1_VE250_randls_26_rotated.json,http://54.235.29.9/FacialAge/BNav_EC2/DepthDuration/v2_depth_duration_MTurk/v2_DepthDuration_HTML.html#438,438,1366,625,1366,768,9-4-2022,11-17-1,117,depth_duration_stimuli/002600_2014-06-24_14-27-04_094959634447_rgbf000074-resize_2/002600_2014-06-24_14-27-04_094959634447_rgbf000074-resize_2-target.png,250,2.7575,10,5205,251,meters,jsons/v1_VE250_randls_26_rotated.json,2001940,2208364,61,Woman
117,998354,DepthScenes,duration_manipulation_targetAtFixation,jsons/v1_VE250_randls_26_rotated.json,http://54.235.29.9/FacialAge/BNav_EC2/DepthDuration/v2_depth_duration_MTurk/v2_DepthDuration_HTML.html#438,438,1366,625,1366,768,9-4-2022,11-17-1,118,depth_duration_stimuli/000103_2014-05-14_22-01-17_260595134347_rgbf000152-resize_5/000103_2014-05-14_22-01-17_260595134347_rgbf000152-resize_5-target.png,250,1.993,10,11338,250,meters,jsons/v1_VE250_randls_26_rotated.json,2001940,2208364,61,Woman
118,998354,DepthScenes,duration_manipulation_targetAtFixation,jsons/v1_VE250_randls_26_rotated.json,http://54.235.29.9/FacialAge/BNav_EC2/DepthDuration/v2_depth_duration_MTurk/v2_DepthDuration_HTML.html#438,438,1366,625,1366,768,9-4-2022,11-17-1,119,depth_duration_stimuli/001555_2014-06-20_17-12-10_260595134347_rgbf000065-resize_4/001555_2014-06-20_17-12-10_260595134347_rgbf000065-resize_4-target.png,250,1.633,8,5988,250,meters,jsons/v1_VE250_randls_26_rotated.json,2001940,2208364,61,Woman
119,998354,DepthScenes,duration_manipulation_targetAtFixation,jsons/v1_VE250_randls_26_rotated.json,http://54.235.29.9/FacialAge/BNav_EC2/DepthDuration/v2_depth_duration_MTurk/v2_DepthDuration_HTML.html#438,438,1366,625,1366,768,9-4-2022,11-17-1,120,depth_duration_stimuli/000787_2014-06-08_22-33-53_260595134347_rgbf000175-resize_1/000787_2014-06-08_22-33-53_260595134347_rgbf000175-resize-original.jpg,250,4.784,8,17661,249,meters,jsons/v1_VE250_randls_26_rotated.json,2001940,2208364,61,Woman
120,998354,DepthScenes,duration_manipulation_targetAtFixation,jsons/v1_VE250_randls_26_rotated.json,http://54.235.29.9/FacialAge/BNav_EC2/DepthDuration/v2_depth_duration_MTurk/v2_DepthDuration_HTML.html#438,438,1366,625,1366,768,9-4-2022,11-17-1,121,depth_duration_stimuli/000943_2014-06-09_19-31-07_260595134347_rgbf000128-resize_1/000943_2014-06-09_19-31-07_260595134347_rgbf000128-resize_1-target.png,250,1.9765,8,7890,249,meters,jsons/v1_VE250_randls_26_rotated.json,2001940,2208364,61,Woman
121,998354,DepthScenes,duration_manipulation_targetAtFixation,jsons/v1_VE250_randls_26_rotated.json,http://54.235.29.9/FacialAge/BNav_EC2/DepthDuration/v2_depth_duration_MTurk/v2_DepthDuration_HTML.html#438,438,1366,625,1366,768,9-4-2022,11-17-1,122,depth_duration_stimuli/003070_2014-06-15_14-58-27_094959634447_rgbf000150-resize_3/003070_2014-06-15_14-58-27_094959634447_rgbf000150-resize_3-target.png,250,2.9415,10,5581,250,meters,jsons/v1_VE250_randls_26_rotated.json,2001940,2208364,61,Woman
122,998354,DepthScenes,duration_manipulation_targetAtFixation,jsons/v1_VE250_randls_26_rotated.json,http://54.235.29.9/FacialAge/BNav_EC2/DepthDuration/v2_depth_duration_MTurk/v2_DepthDuration_HTML.html#438,438,1366,625,1366,768,9-4-2022,11-17-1,123,depth_duration_stimuli/002750_2014-06-22_19-08-03_094959634447_rgbf000094-resize_4/002750_2014-06-22_19-08-03_094959634447_rgbf000094-resize_4-target.png,250,2.354,10,12910,250,meters,jsons/v1_VE250_randls_26_rotated.json,2001940,2208364,61,Woman
123,998354,DepthScenes,duration_manipulation_targetAtFixation,jsons/v1_VE250_randls_26_rotated.json,http://54.235.29.9/FacialAge/BNav_EC2/DepthDuration/v2_depth_duration_MTurk/v2_DepthDuration_HTML.html#438,438,1366,625,1366,768,9-4-2022,11-17-1,124,depth_duration_stimuli/002549_2014-06-24_13-41-39_094959634447_rgbf000022-resize_3/002549_2014-06-24_13-41-39_094959634447_rgbf000022-resize_3-target.png,250,1.476,8,4535,248,meters,jsons/v1_VE250_randls_26_rotated.json,2001940,2208364,61,Woman
124,998354,DepthScenes,duration_manipulation_targetAtFixation,jsons/v1_VE250_randls_26_rotated.json,http://54.235.29.9/FacialAge/BNav_EC2/DepthDuration/v2_depth_duration_MTurk/v2_DepthDuration_HTML.html#438,438,1366,625,1366,768,9-4-2022,11-17-1,125,depth_duration_stimuli/002344_2014-06-28_20-06-29_260595134347_rgbf000030-resize_1/002344_2014-06-28_20-06-29_260595134347_rgbf000030-resize_1-target.png,250,1.5795,10,10095,248,meters,jsons/v1_VE250_randls_26_rotated.json,2001940,2208364,61,Woman
125,998354,DepthScenes,duration_manipulation_targetAtFixation,jsons/v1_VE250_randls_26_rotated.json,http://54.235.29.9/FacialAge/BNav_EC2/DepthDuration/v2_depth_duration_MTurk/v2_DepthDuration_HTML.html#438,438,1366,625,1366,768,9-4-2022,11-17-1,126,depth_duration_stimuli/002725_2014-06-22_11-47-51_094959634447_rgbf000070-resize_1/002725_2014-06-22_11-47-51_094959634447_rgbf000070-resize_1-target.png,250,2.195,12,6318,249,meters,jsons/v1_VE250_randls_26_rotated.json,2001940,2208364,61,Woman
126,998354,DepthScenes,duration_manipulation_targetAtFixation,jsons/v1_VE250_randls_26_rotated.json,http://54.235.29.9/FacialAge/BNav_EC2/DepthDuration/v2_depth_duration_MTurk/v2_DepthDuration_HTML.html#438,438,1366,625,1366,768,9-4-2022,11-17-1,127,depth_duration_stimuli/002805_2014-06-22_19-54-03_094959634447_rgbf000079-resize_1/002805_2014-06-22_19-54-03_094959634447_rgbf000079-resize_1-target.png,250,3.1439999999999997,10,6918,249,meters,jsons/v1_VE250_randls_26_rotated.json,2001940,2208364,61,Woman
127,998354,DepthScenes,duration_manipulation_targetAtFixation,jsons/v1_VE250_randls_26_rotated.json,http://54.235.29.9/FacialAge/BNav_EC2/DepthDuration/v2_depth_duration_MTurk/v2_DepthDuration_HTML.html#438,438,1366,625,1366,768,9-4-2022,11-17-1,128,depth_duration_stimuli/000906_2014-06-08_13-35-43_260595134347_rgbf000155-resize_1/000906_2014-06-08_13-35-43_260595134347_rgbf000155-resize_1-target.png,250,2.8489999999999998,12,5146,250,meters,jsons/v1_VE250_randls_26_rotated.json,2001940,2208364,61,Woman
128,998354,DepthScenes,duration_manipulation_targetAtFixation,jsons/v1_VE250_randls_26_rotated.json,http://54.235.29.9/FacialAge/BNav_EC2/DepthDuration/v2_depth_duration_MTurk/v2_DepthDuration_HTML.html#438,438,1366,625,1366,768,9-4-2022,11-17-1,129,depth_duration_stimuli/000709_2014-06-08_13-51-55_260595134347_rgbf000068-resize_3/000709_2014-06-08_13-51-55_260595134347_rgbf000068-resize_3-target.png,250,1.8030000000000002,10,13621,249,meters,jsons/v1_VE250_randls_26_rotated.json,2001940,2208364,61,Woman
129,998354,DepthScenes,duration_manipulation_targetAtFixation,jsons/v1_VE250_randls_26_rotated.json,http://54.235.29.9/FacialAge/BNav_EC2/DepthDuration/v2_depth_duration_MTurk/v2_DepthDuration_HTML.html#438,438,1366,625,1366,768,9-4-2022,11-17-1,130,depth_duration_stimuli/002057_2014-06-24_21-00-13_260595134347_rgbf000120-resize_1/002057_2014-06-24_21-00-13_260595134347_rgbf000120-resize_1-target.png,250,2.967,8,17263,248,meters,jsons/v1_VE250_randls_26_rotated.json,2001940,2208364,61,Woman
130,998354,DepthScenes,duration_manipulation_targetAtFixation,jsons/v1_VE250_randls_26_rotated.json,http://54.235.29.9/FacialAge/BNav_EC2/DepthDuration/v2_depth_duration_MTurk/v2_DepthDuration_HTML.html#438,438,1366,625,1366,768,9-4-2022,11-17-1,131,depth_duration_stimuli/000749_2014-06-08_21-55-06_260595134347_rgbf000070-resize_2/000749_2014-06-08_21-55-06_260595134347_rgbf000070-resize_2-target.png,250,2.331,12,11242,248,meters,jsons/v1_VE250_randls_26_rotated.json,2001940,2208364,61,Woman
131,998354,DepthScenes,duration_manipulation_targetAtFixation,jsons/v1_VE250_randls_26_rotated.json,http://54.235.29.9/FacialAge/BNav_EC2/DepthDuration/v2_depth_duration_MTurk/v2_DepthDuration_HTML.html#438,438,1366,625,1366,768,9-4-2022,11-17-1,132,depth_duration_stimuli/002788_2014-06-22_19-36-03_094959634447_rgbf000088-resize_2/002788_2014-06-22_19-36-03_094959634447_rgbf000088-resize_2-target.png,250,1.6465,12,5192,251,meters,jsons/v1_VE250_randls_26_rotated.json,2001940,2208364,61,Woman
132,998354,DepthScenes,duration_manipulation_targetAtFixation,jsons/v1_VE250_randls_26_rotated.json,http://54.235.29.9/FacialAge/BNav_EC2/DepthDuration/v2_depth_duration_MTurk/v2_DepthDuration_HTML.html#438,438,1366,625,1366,768,9-4-2022,11-17-1,133,depth_duration_stimuli/000780_2014-06-08_22-28-29_260595134347_rgbf000126-resize_1/000780_2014-06-08_22-28-29_260595134347_rgbf000126-resize_1-target.png,250,3.3825,8,11902,250,meters,jsons/v1_VE250_randls_26_rotated.json,2001940,2208364,61,Woman
133,998354,DepthScenes,duration_manipulation_targetAtFixation,jsons/v1_VE250_randls_26_rotated.json,http://54.235.29.9/FacialAge/BNav_EC2/DepthDuration/v2_depth_duration_MTurk/v2_DepthDuration_HTML.html#438,438,1366,625,1366,768,9-4-2022,11-17-1,134,depth_duration_stimuli/002445_2014-06-28_20-32-16_260595134347_rgbf000029-resize_4/002445_2014-06-28_20-32-16_260595134347_rgbf000029-resize_4-target.png,250,2.5315,8,7459,249,meters,jsons/v1_VE250_randls_26_rotated.json,2001940,2208364,61,Woman
134,998354,DepthScenes,duration_manipulation_targetAtFixation,jsons/v1_VE250_randls_26_rotated.json,http://54.235.29.9/FacialAge/BNav_EC2/DepthDuration/v2_depth_duration_MTurk/v2_DepthDuration_HTML.html#438,438,1366,625,1366,768,9-4-2022,11-17-1,135,depth_duration_stimuli/000375_2014-06-08_11-17-29_260595134347_rgbf000133-resize_2/000375_2014-06-08_11-17-29_260595134347_rgbf000133-resize-original.jpg,250,4.718,10,7834,248,meters,jsons/v1_VE250_randls_26_rotated.json,2001940,2208364,61,Woman
135,998354,DepthScenes,duration_manipulation_targetAtFixation,jsons/v1_VE250_randls_26_rotated.json,http://54.235.29.9/FacialAge/BNav_EC2/DepthDuration/v2_depth_duration_MTurk/v2_DepthDuration_HTML.html#438,438,1366,625,1366,768,9-4-2022,11-17-1,136,depth_duration_stimuli/000556_2014-06-09_22-42-56_260595134347_rgbf000214-resize_1/000556_2014-06-09_22-42-56_260595134347_rgbf000214-resize_1-target.png,250,4.8415,8,5428,250,meters,jsons/v1_VE250_randls_26_rotated.json,2001940,2208364,61,Woman
136,998354,DepthScenes,duration_manipulation_targetAtFixation,jsons/v1_VE250_randls_26_rotated.json,http://54.235.29.9/FacialAge/BNav_EC2/DepthDuration/v2_depth_duration_MTurk/v2_DepthDuration_HTML.html#438,438,1366,625,1366,768,9-4-2022,11-17-1,137,depth_duration_stimuli/001158_2014-06-17_15-32-16_260595134347_rgbf000138-resize_2/001158_2014-06-17_15-32-16_260595134347_rgbf000138-resize_2-target.png,250,4.5315,10,4155,248,meters,jsons/v1_VE250_randls_26_rotated.json,2001940,2208364,61,Woman
137,998354,DepthScenes,duration_manipulation_targetAtFixation,jsons/v1_VE250_randls_26_rotated.json,http://54.235.29.9/FacialAge/BNav_EC2/DepthDuration/v2_depth_duration_MTurk/v2_DepthDuration_HTML.html#438,438,1366,625,1366,768,9-4-2022,11-17-1,138,depth_duration_stimuli/000665_2014-06-09_20-42-35_260595134347_rgbf000110-resize_1/000665_2014-06-09_20-42-35_260595134347_rgbf000110-resize_1-target.png,250,3.057,10,6855,249,meters,jsons/v1_VE250_randls_26_rotated.json,2001940,2208364,61,Woman
138,998354,DepthScenes,duration_manipulation_targetAtFixation,jsons/v1_VE250_randls_26_rotated.json,http://54.235.29.9/FacialAge/BNav_EC2/DepthDuration/v2_depth_duration_MTurk/v2_DepthDuration_HTML.html#438,438,1366,625,1366,768,9-4-2022,11-17-1,139,depth_duration_stimuli/001150_2014-06-17_15-27-34_260595134347_rgbf000108-resize_2/001150_2014-06-17_15-27-34_260595134347_rgbf000108-resize_2-target.png,250,4.0325,12,11627,249,meters,jsons/v1_VE250_randls_26_rotated.json,2001940,2208364,61,Woman
139,998354,DepthScenes,duration_manipulation_targetAtFixation,jsons/v1_VE250_randls_26_rotated.json,http://54.235.29.9/FacialAge/BNav_EC2/DepthDuration/v2_depth_duration_MTurk/v2_DepthDuration_HTML.html#438,438,1366,625,1366,768,9-4-2022,11-17-1,140,depth_duration_stimuli/001100_2014-06-15_17-46-26_260595134347_rgbf000225-resize_2/001100_2014-06-15_17-46-26_260595134347_rgbf000225-resize_2-target.png,250,2.24,12,10735,250,meters,jsons/v1_VE250_randls_26_rotated.json,2001940,2208364,61,Woman
140,998354,DepthScenes,duration_manipulation_targetAtFixation,jsons/v1_VE250_randls_26_rotated.json,http://54.235.29.9/FacialAge/BNav_EC2/DepthDuration/v2_depth_duration_MTurk/v2_DepthDuration_HTML.html#438,438,1366,625,1366,768,9-4-2022,11-17-1,141,depth_duration_stimuli/002784_2014-06-22_19-26-30_094959634447_rgbf000083-resize_3/002784_2014-06-22_19-26-30_094959634447_rgbf000083-resize_3-target.png,250,1.8046666666667,8,14455,249,meters,jsons/v1_VE250_randls_26_rotated.json,2001940,2208364,61,Woman
141,998354,DepthScenes,duration_manipulation_targetAtFixation,jsons/v1_VE250_randls_26_rotated.json,http://54.235.29.9/FacialAge/BNav_EC2/DepthDuration/v2_depth_duration_MTurk/v2_DepthDuration_HTML.html#438,438,1366,625,1366,768,9-4-2022,11-17-1,142,depth_duration_stimuli/002678_2014-06-13_16-15-32_094959634447_rgbf000151-resize_6/002678_2014-06-13_16-15-32_094959634447_rgbf000151-resize_6-target.png,250,2.1830000000000003,8,17219,247,meters,jsons/v1_VE250_randls_26_rotated.json,2001940,2208364,61,Woman
142,998354,DepthScenes,duration_manipulation_targetAtFixation,jsons/v1_VE250_randls_26_rotated.json,http://54.235.29.9/FacialAge/BNav_EC2/DepthDuration/v2_depth_duration_MTurk/v2_DepthDuration_HTML.html#438,438,1366,625,1366,768,9-4-2022,11-17-1,143,depth_duration_stimuli/000368_2014-06-09_15-53-01_260595134347_rgbf000155-resize_2/000368_2014-06-09_15-53-01_260595134347_rgbf000155-resize_2-target.png,250,2.4859999999999998,10,6494,249,meters,jsons/v1_VE250_randls_26_rotated.json,2001940,2208364,61,Woman
143,998354,DepthScenes,duration_manipulation_targetAtFixation,jsons/v1_VE250_randls_26_rotated.json,http://54.235.29.9/FacialAge/BNav_EC2/DepthDuration/v2_depth_duration_MTurk/v2_DepthDuration_HTML.html#438,438,1366,625,1366,768,9-4-2022,11-17-1,144,depth_duration_stimuli/002758_2014-06-22_19-11-20_094959634447_rgbf000128-resize_1/002758_2014-06-22_19-11-20_094959634447_rgbf000128-resize_1-target.png,250,2.555,8,11558,251,meters,jsons/v1_VE250_randls_26_rotated.json,2001940,2208364,61,Woman
144,998354,DepthScenes,duration_manipulation_targetAtFixation,jsons/v1_VE250_randls_26_rotated.json,http://54.235.29.9/FacialAge/BNav_EC2/DepthDuration/v2_depth_duration_MTurk/v2_DepthDuration_HTML.html#438,438,1366,625,1366,768,9-4-2022,11-17-1,145,depth_duration_stimuli/002630_2014-06-24_14-47-50_094959634447_rgbf000055-resize_1/002630_2014-06-24_14-47-50_094959634447_rgbf000055-resize_1-target.png,250,3.0095,8,16460,267,meters,jsons/v1_VE250_randls_26_rotated.json,2001940,2208364,61,Woman
145,998354,DepthScenes,duration_manipulation_targetAtFixation,jsons/v1_VE250_randls_26_rotated.json,http://54.235.29.9/FacialAge/BNav_EC2/DepthDuration/v2_depth_duration_MTurk/v2_DepthDuration_HTML.html#438,438,1366,625,1366,768,9-4-2022,11-17-1,146,depth_duration_stimuli/000457_2014-06-08_16-52-43_260595134347_rgbf000199-resize_1/000457_2014-06-08_16-52-43_260595134347_rgbf000199-resize_1-target.png,250,3.6489999999999996,8,14869,250,meters,jsons/v1_VE250_randls_26_rotated.json,2001940,2208364,61,Woman
146,998354,DepthScenes,duration_manipulation_targetAtFixation,jsons/v1_VE250_randls_26_rotated.json,http://54.235.29.9/FacialAge/BNav_EC2/DepthDuration/v2_depth_duration_MTurk/v2_DepthDuration_HTML.html#438,438,1366,625,1366,768,9-4-2022,11-17-1,147,depth_duration_stimuli/000929_2014-06-09_16-33-19_260595134347_rgbf000139-resize_0/000929_2014-06-09_16-33-19_260595134347_rgbf000139-resize_0-target.png,250,2.8680000000000003,10,5478,250,meters,jsons/v1_VE250_randls_26_rotated.json,2001940,2208364,61,Woman
147,998354,DepthScenes,duration_manipulation_targetAtFixation,jsons/v1_VE250_randls_26_rotated.json,http://54.235.29.9/FacialAge/BNav_EC2/DepthDuration/v2_depth_duration_MTurk/v2_DepthDuration_HTML.html#438,438,1366,625,1366,768,9-4-2022,11-17-1,148,depth_duration_stimuli/002953_2014-06-08_17-32-18_094959634447_rgbf000059-resize_5/002953_2014-06-08_17-32-18_094959634447_rgbf000059-resize_5-target.png,250,1.551,10,8094,250,meters,jsons/v1_VE250_randls_26_rotated.json,2001940,2208364,61,Woman
148,998354,DepthScenes,duration_manipulation_targetAtFixation,jsons/v1_VE250_randls_26_rotated.json,http://54.235.29.9/FacialAge/BNav_EC2/DepthDuration/v2_depth_duration_MTurk/v2_DepthDuration_HTML.html#438,438,1366,625,1366,768,9-4-2022,11-17-1,149,depth_duration_stimuli/000878_2014-06-08_22-52-45_260595134347_rgbf000045-resize_2/000878_2014-06-08_22-52-45_260595134347_rgbf000045-resize_2-target.png,250,2.092,12,6851,249,meters,jsons/v1_VE250_randls_26_rotated.json,2001940,2208364,61,Woman
149,998354,DepthScenes,duration_manipulation_targetAtFixation,jsons/v1_VE250_randls_26_rotated.json,http://54.235.29.9/FacialAge/BNav_EC2/DepthDuration/v2_depth_duration_MTurk/v2_DepthDuration_HTML.html#438,438,1366,625,1366,768,9-4-2022,11-17-1,150,depth_duration_stimuli/000191_2014-05-12_17-07-38_260595134347_rgbf000199-resize_0/000191_2014-05-12_17-07-38_260595134347_rgbf000199-resize_0-target.png,250,3.7995,12,7390,250,meters,jsons/v1_VE250_randls_26_rotated.json,2001940,2208364,61,Woman
150,998354,DepthScenes,duration_manipulation_targetAtFixation,jsons/v1_VE250_randls_26_rotated.json,http://54.235.29.9/FacialAge/BNav_EC2/DepthDuration/v2_depth_duration_MTurk/v2_DepthDuration_HTML.html#438,438,1366,625,1366,768,9-4-2022,11-17-1,151,depth_duration_stimuli/000493_2014-06-09_21-01-18_260595134347_rgbf000196-resize_3/000493_2014-06-09_21-01-18_260595134347_rgbf000196-resize_3-target.png,250,3.44,12,7413,248,meters,jsons/v1_VE250_randls_26_rotated.json,2001940,2208364,61,Woman
151,998354,DepthScenes,duration_manipulation_targetAtFixation,jsons/v1_VE250_randls_26_rotated.json,http://54.235.29.9/FacialAge/BNav_EC2/DepthDuration/v2_depth_duration_MTurk/v2_DepthDuration_HTML.html#438,438,1366,625,1366,768,9-4-2022,11-17-1,152,depth_duration_stimuli/000569_2014-06-09_22-51-47_260595134347_rgbf000141-resize_3/000569_2014-06-09_22-51-47_260595134347_rgbf000141-resize-original.jpg,250,4.512,12,10478,250,meters,jsons/v1_VE250_randls_26_rotated.json,2001940,2208364,61,Woman
152,998354,DepthScenes,duration_manipulation_targetAtFixation,jsons/v1_VE250_randls_26_rotated.json,http://54.235.29.9/FacialAge/BNav_EC2/DepthDuration/v2_depth_duration_MTurk/v2_DepthDuration_HTML.html#438,438,1366,625,1366,768,9-4-2022,11-17-1,153,depth_duration_stimuli/002444_2014-06-28_20-32-08_260595134347_rgbf000027-resize_0/002444_2014-06-28_20-32-08_260595134347_rgbf000027-resize_0-target.png,250,4.388999999999999,12,8010,250,meters,jsons/v1_VE250_randls_26_rotated.json,2001940,2208364,61,Woman
153,998354,DepthScenes,duration_manipulation_targetAtFixation,jsons/v1_VE250_randls_26_rotated.json,http://54.235.29.9/FacialAge/BNav_EC2/DepthDuration/v2_depth_duration_MTurk/v2_DepthDuration_HTML.html#438,438,1366,625,1366,768,9-4-2022,11-17-1,154,depth_duration_stimuli/000436_2014-06-09_22-25-11_260595134347_rgbf000137-resize_1/000436_2014-06-09_22-25-11_260595134347_rgbf000137-resize_1-target.png,250,4.0705,8,6125,249,meters,jsons/v1_VE250_randls_26_rotated.json,2001940,2208364,61,Woman
154,998354,DepthScenes,duration_manipulation_targetAtFixation,jsons/v1_VE250_randls_26_rotated.json,http://54.235.29.9/FacialAge/BNav_EC2/DepthDuration/v2_depth_duration_MTurk/v2_DepthDuration_HTML.html#438,438,1366,625,1366,768,9-4-2022,11-17-1,155,depth_duration_stimuli/000927_2014-06-09_16-32-30_260595134347_rgbf000123-resize_3/000927_2014-06-09_16-32-30_260595134347_rgbf000123-resize_3-target.png,250,2.6785,8,18140,249,meters,jsons/v1_VE250_randls_26_rotated.json,2001940,2208364,61,Woman
155,998354,DepthScenes,duration_manipulation_targetAtFixation,jsons/v1_VE250_randls_26_rotated.json,http://54.235.29.9/FacialAge/BNav_EC2/DepthDuration/v2_depth_duration_MTurk/v2_DepthDuration_HTML.html#438,438,1366,625,1366,768,9-4-2022,11-17-1,156,depth_duration_stimuli/001110_2014-06-15_17-25-28_260595134347_rgbf000150-resize_1/001110_2014-06-15_17-25-28_260595134347_rgbf000150-resize_1-target.png,250,1.7115,10,4869,250,meters,jsons/v1_VE250_randls_26_rotated.json,2001940,2208364,61,Woman
156,998354,DepthScenes,duration_manipulation_targetAtFixation,jsons/v1_VE250_randls_26_rotated.json,http://54.235.29.9/FacialAge/BNav_EC2/DepthDuration/v2_depth_duration_MTurk/v2_DepthDuration_HTML.html#438,438,1366,625,1366,768,9-4-2022,11-17-1,157,depth_duration_stimuli/003048_2014-06-15_13-49-43_094959634447_rgbf000150-resize_1/003048_2014-06-15_13-49-43_094959634447_rgbf000150-resize_1-target.png,250,4.0035,10,18833,250,meters,jsons/v1_VE250_randls_26_rotated.json,2001940,2208364,61,Woman
157,998354,DepthScenes,duration_manipulation_targetAtFixation,jsons/v1_VE250_randls_26_rotated.json,http://54.235.29.9/FacialAge/BNav_EC2/DepthDuration/v2_depth_duration_MTurk/v2_DepthDuration_HTML.html#438,438,1366,625,1366,768,9-4-2022,11-17-1,158,depth_duration_stimuli/002043_2014-06-24_20-29-38_260595134347_rgbf000039-resize_4/002043_2014-06-24_20-29-38_260595134347_rgbf000039-resize_4-target.png,250,2.8435,10,6595,249,meters,jsons/v1_VE250_randls_26_rotated.json,2001940,2208364,61,Woman
158,998354,DepthScenes,duration_manipulation_targetAtFixation,jsons/v1_VE250_randls_26_rotated.json,http://54.235.29.9/FacialAge/BNav_EC2/DepthDuration/v2_depth_duration_MTurk/v2_DepthDuration_HTML.html#438,438,1366,625,1366,768,9-4-2022,11-17-1,159,depth_duration_stimuli/000866_2014-06-09_20-45-42_260595134347_rgbf000139-resize_1/000866_2014-06-09_20-45-42_260595134347_rgbf000139-resize_1-target.png,250,3.2155,10,8556,249,meters,jsons/v1_VE250_randls_26_rotated.json,2001940,2208364,61,Woman
159,998354,DepthScenes,duration_manipulation_targetAtFixation,jsons/v1_VE250_randls_26_rotated.json,http://54.235.29.9/FacialAge/BNav_EC2/DepthDuration/v2_depth_duration_MTurk/v2_DepthDuration_HTML.html#438,438,1366,625,1366,768,9-4-2022,11-17-1,160,depth_duration_stimuli/002989_2014-06-15_12-25-03_094959634447_rgbf000150-resize_3/002989_2014-06-15_12-25-03_094959634447_rgbf000150-resize_3-target.png,250,4.1975,10,6720,247,meters,jsons/v1_VE250_randls_26_rotated.json,2001940,2208364,61,Woman
160,998354,DepthScenes,duration_manipulation_targetAtFixation,jsons/v1_VE250_randls_26_rotated.json,http://54.235.29.9/FacialAge/BNav_EC2/DepthDuration/v2_depth_duration_MTurk/v2_DepthDuration_HTML.html#438,438,1366,625,1366,768,9-4-2022,11-17-1,161,depth_duration_stimuli/000691_2014-06-08_13-08-50_260595134347_rgbf000132-resize_3/000691_2014-06-08_13-08-50_260595134347_rgbf000132-resize_3-target.png,250,4.1530000000000005,12,6665,249,meters,jsons/v1_VE250_randls_26_rotated.json,2001940,2208364,61,Woman
161,998354,DepthScenes,duration_manipulation_targetAtFixation,jsons/v1_VE250_randls_26_rotated.json,http://54.235.29.9/FacialAge/BNav_EC2/DepthDuration/v2_depth_duration_MTurk/v2_DepthDuration_HTML.html#438,438,1366,625,1366,768,9-4-2022,11-17-1,162,depth_duration_stimuli/002213_2014-06-28_18-37-58_260595134347_rgbf000055-resize_1/002213_2014-06-28_18-37-58_260595134347_rgbf000055-resize_1-target.png,250,3.62,10,4334,250,meters,jsons/v1_VE250_randls_26_rotated.json,2001940,2208364,61,Woman
162,998354,DepthScenes,duration_manipulation_targetAtFixation,jsons/v1_VE250_randls_26_rotated.json,http://54.235.29.9/FacialAge/BNav_EC2/DepthDuration/v2_depth_duration_MTurk/v2_DepthDuration_HTML.html#438,438,1366,625,1366,768,9-4-2022,11-17-1,163,depth_duration_stimuli/001214_2014-06-17_16-13-55_260595134347_rgbf000111-resize_0/001214_2014-06-17_16-13-55_260595134347_rgbf000111-resize_0-target.png,250,2.6505,8,8298,248,meters,jsons/v1_VE250_randls_26_rotated.json,2001940,2208364,61,Woman
163,998354,DepthScenes,duration_manipulation_targetAtFixation,jsons/v1_VE250_randls_26_rotated.json,http://54.235.29.9/FacialAge/BNav_EC2/DepthDuration/v2_depth_duration_MTurk/v2_DepthDuration_HTML.html#438,438,1366,625,1366,768,9-4-2022,11-17-1,164,depth_duration_stimuli/000810_2014-06-08_17-20-01_260595134347_rgbf000105-resize_0/000810_2014-06-08_17-20-01_260595134347_rgbf000105-resize_0-target.png,250,1.4865,12,6250,251,meters,jsons/v1_VE250_randls_26_rotated.json,2001940,2208364,61,Woman
