,subjID,experimentName,versionName,sequenceName,url,selected_row,windowWidth,windowHeight,screenWidth,screenHeight,startDate,startTime,trial,stimulus,duration,actual_depth,depth_estimate,trial_RT,log_sceneDuration,unitSelection,seq_filepath,experimentTime,totalTime,age,gender
0,998883,DepthScenes,duration_manipulation_targetAtFixation,jsons/VE125_randls_6.json,http://54.235.29.9/FacialAge/BNav_EC2/DepthDuration/v2_depth_duration_MTurk/v2_DepthDuration_HTML.html#91,91,500,273,1366,768,9-4-2022,23-19-14,1,depth_duration_stimuli/002663_2014-06-13_15-50-26_094959634447_rgbf000075-resize_1/002663_2014-06-13_15-50-26_094959634447_rgbf000075-resize_1-target.png,125,4.7495,0,2238,131,meters,jsons/VE125_randls_6.json,391945,812411,35,Man
1,998883,DepthScenes,duration_manipulation_targetAtFixation,jsons/VE125_randls_6.json,http://54.235.29.9/FacialAge/BNav_EC2/DepthDuration/v2_depth_duration_MTurk/v2_DepthDuration_HTML.html#91,91,500,273,1366,768,9-4-2022,23-19-14,2,depth_duration_stimuli/000409_2014-06-04_19-23-33_260595134347_rgbf000067-resize_0/000409_2014-06-04_19-23-33_260595134347_rgbf000067-resize_0-target.png,125,3.7335,0,3968,124,meters,jsons/VE125_randls_6.json,391945,812411,35,Man
2,998883,DepthScenes,duration_manipulation_targetAtFixation,jsons/VE125_randls_6.json,http://54.235.29.9/FacialAge/BNav_EC2/DepthDuration/v2_depth_duration_MTurk/v2_DepthDuration_HTML.html#91,91,500,273,1366,768,9-4-2022,23-19-14,3,depth_duration_stimuli/002905_2014-06-03_18-04-43_094959634447_rgbf000151-resize_2/002905_2014-06-03_18-04-43_094959634447_rgbf000151-resize_2-target.png,125,2.0295,0,10404,119,meters,jsons/VE125_randls_6.json,391945,812411,35,Man
3,998883,DepthScenes,duration_manipulation_targetAtFixation,jsons/VE125_randls_6.json,http://54.235.29.9/FacialAge/BNav_EC2/DepthDuration/v2_depth_duration_MTurk/v2_DepthDuration_HTML.html#91,91,500,273,1366,768,9-4-2022,23-19-14,4,depth_duration_stimuli/003423_2014-05-21_10-23-26_094959634447_rgbf002665-resize_2/003423_2014-05-21_10-23-26_094959634447_rgbf002665-resize_2-target.png,125,3.2575,0,3489,125,meters,jsons/VE125_randls_6.json,391945,812411,35,Man
4,998883,DepthScenes,duration_manipulation_targetAtFixation,jsons/VE125_randls_6.json,http://54.235.29.9/FacialAge/BNav_EC2/DepthDuration/v2_depth_duration_MTurk/v2_DepthDuration_HTML.html#91,91,500,273,1366,768,9-4-2022,23-19-14,5,depth_duration_stimuli/000642_2014-06-08_16-59-25_260595134347_rgbf000098-resize_2/000642_2014-06-08_16-59-25_260595134347_rgbf000098-resize_2-target.png,125,2.8815,0,1278,118,meters,jsons/VE125_randls_6.json,391945,812411,35,Man
5,998883,DepthScenes,duration_manipulation_targetAtFixation,jsons/VE125_randls_6.json,http://54.235.29.9/FacialAge/BNav_EC2/DepthDuration/v2_depth_duration_MTurk/v2_DepthDuration_HTML.html#91,91,500,273,1366,768,9-4-2022,23-19-14,6,depth_duration_stimuli/002425_2014-06-28_20-27-29_260595134347_rgbf000031-resize_8/002425_2014-06-28_20-27-29_260595134347_rgbf000031-resize_8-target.png,125,3.8960000000000004,0,1073,128,meters,jsons/VE125_randls_6.json,391945,812411,35,Man
6,998883,DepthScenes,duration_manipulation_targetAtFixation,jsons/VE125_randls_6.json,http://54.235.29.9/FacialAge/BNav_EC2/DepthDuration/v2_depth_duration_MTurk/v2_DepthDuration_HTML.html#91,91,500,273,1366,768,9-4-2022,23-19-14,7,depth_duration_stimuli/001449_2014-06-19_17-01-27_260595134347_rgbf000116-resize_2/001449_2014-06-19_17-01-27_260595134347_rgbf000116-resize_2-target.png,125,3.452,0,3837,129,meters,jsons/VE125_randls_6.json,391945,812411,35,Man
7,998883,DepthScenes,duration_manipulation_targetAtFixation,jsons/VE125_randls_6.json,http://54.235.29.9/FacialAge/BNav_EC2/DepthDuration/v2_depth_duration_MTurk/v2_DepthDuration_HTML.html#91,91,500,273,1366,768,9-4-2022,23-19-14,8,depth_duration_stimuli/001450_2014-06-19_17-02-03_260595134347_rgbf000203-resize_4/001450_2014-06-19_17-02-03_260595134347_rgbf000203-resize_4-target.png,125,4.0106666666667,0,1207,128,meters,jsons/VE125_randls_6.json,391945,812411,35,Man
8,998883,DepthScenes,duration_manipulation_targetAtFixation,jsons/VE125_randls_6.json,http://54.235.29.9/FacialAge/BNav_EC2/DepthDuration/v2_depth_duration_MTurk/v2_DepthDuration_HTML.html#91,91,500,273,1366,768,9-4-2022,23-19-14,9,depth_duration_stimuli/002272_2014-06-28_18-53-56_260595134347_rgbf000067-resize_2/002272_2014-06-28_18-53-56_260595134347_rgbf000067-resize_2-target.png,125,1.138,0,1245,128,meters,jsons/VE125_randls_6.json,391945,812411,35,Man
9,998883,DepthScenes,duration_manipulation_targetAtFixation,jsons/VE125_randls_6.json,http://54.235.29.9/FacialAge/BNav_EC2/DepthDuration/v2_depth_duration_MTurk/v2_DepthDuration_HTML.html#91,91,500,273,1366,768,9-4-2022,23-19-14,10,depth_duration_stimuli/001571_2014-06-20_17-21-32_260595134347_rgbf000089-resize_1/001571_2014-06-20_17-21-32_260595134347_rgbf000089-resize_1-target.png,125,1.86,0,1207,128,meters,jsons/VE125_randls_6.json,391945,812411,35,Man
10,998883,DepthScenes,duration_manipulation_targetAtFixation,jsons/VE125_randls_6.json,http://54.235.29.9/FacialAge/BNav_EC2/DepthDuration/v2_depth_duration_MTurk/v2_DepthDuration_HTML.html#91,91,500,273,1366,768,9-4-2022,23-19-14,11,depth_duration_stimuli/002630_2014-06-24_14-47-50_094959634447_rgbf000055-resize_1/002630_2014-06-24_14-47-50_094959634447_rgbf000055-resize_1-target.png,125,3.0095,0,1102,128,meters,jsons/VE125_randls_6.json,391945,812411,35,Man
11,998883,DepthScenes,duration_manipulation_targetAtFixation,jsons/VE125_randls_6.json,http://54.235.29.9/FacialAge/BNav_EC2/DepthDuration/v2_depth_duration_MTurk/v2_DepthDuration_HTML.html#91,91,500,273,1366,768,9-4-2022,23-19-14,12,depth_duration_stimuli/002758_2014-06-22_19-11-20_094959634447_rgbf000128-resize_1/002758_2014-06-22_19-11-20_094959634447_rgbf000128-resize_1-target.png,125,2.555,0,1076,119,meters,jsons/VE125_randls_6.json,391945,812411,35,Man
12,998883,DepthScenes,duration_manipulation_targetAtFixation,jsons/VE125_randls_6.json,http://54.235.29.9/FacialAge/BNav_EC2/DepthDuration/v2_depth_duration_MTurk/v2_DepthDuration_HTML.html#91,91,500,273,1366,768,9-4-2022,23-19-14,13,depth_duration_stimuli/000569_2014-06-09_22-51-47_260595134347_rgbf000141-resize_3/000569_2014-06-09_22-51-47_260595134347_rgbf000141-resize-original.jpg,125,4.512,0,1175,127,meters,jsons/VE125_randls_6.json,391945,812411,35,Man
13,998883,DepthScenes,duration_manipulation_targetAtFixation,jsons/VE125_randls_6.json,http://54.235.29.9/FacialAge/BNav_EC2/DepthDuration/v2_depth_duration_MTurk/v2_DepthDuration_HTML.html#91,91,500,273,1366,768,9-4-2022,23-19-14,14,depth_duration_stimuli/002784_2014-06-22_19-26-30_094959634447_rgbf000083-resize_3/002784_2014-06-22_19-26-30_094959634447_rgbf000083-resize_3-target.png,125,1.8046666666667,0,1125,129,meters,jsons/VE125_randls_6.json,391945,812411,35,Man
14,998883,DepthScenes,duration_manipulation_targetAtFixation,jsons/VE125_randls_6.json,http://54.235.29.9/FacialAge/BNav_EC2/DepthDuration/v2_depth_duration_MTurk/v2_DepthDuration_HTML.html#91,91,500,273,1366,768,9-4-2022,23-19-14,15,depth_duration_stimuli/001100_2014-06-15_17-46-26_260595134347_rgbf000225-resize_2/001100_2014-06-15_17-46-26_260595134347_rgbf000225-resize_2-target.png,125,2.24,0,1136,129,meters,jsons/VE125_randls_6.json,391945,812411,35,Man
15,998883,DepthScenes,duration_manipulation_targetAtFixation,jsons/VE125_randls_6.json,http://54.235.29.9/FacialAge/BNav_EC2/DepthDuration/v2_depth_duration_MTurk/v2_DepthDuration_HTML.html#91,91,500,273,1366,768,9-4-2022,23-19-14,16,depth_duration_stimuli/002988_2014-06-15_12-24-20_094959634447_rgbf000150-resize_1/002988_2014-06-15_12-24-20_094959634447_rgbf000150-resize_1-target.png,125,4.7669999999999995,0,1117,129,meters,jsons/VE125_randls_6.json,391945,812411,35,Man
16,998883,DepthScenes,duration_manipulation_targetAtFixation,jsons/VE125_randls_6.json,http://54.235.29.9/FacialAge/BNav_EC2/DepthDuration/v2_depth_duration_MTurk/v2_DepthDuration_HTML.html#91,91,500,273,1366,768,9-4-2022,23-19-14,17,depth_duration_stimuli/001052_2014-06-08_18-24-54_260595134347_rgbf000130-resize_1/001052_2014-06-08_18-24-54_260595134347_rgbf000130-resize_1-target.png,125,4.1045,0,1115,129,meters,jsons/VE125_randls_6.json,391945,812411,35,Man
17,998883,DepthScenes,duration_manipulation_targetAtFixation,jsons/VE125_randls_6.json,http://54.235.29.9/FacialAge/BNav_EC2/DepthDuration/v2_depth_duration_MTurk/v2_DepthDuration_HTML.html#91,91,500,273,1366,768,9-4-2022,23-19-14,18,depth_duration_stimuli/002748_2014-06-22_19-07-22_094959634447_rgbf000078-resize_1/002748_2014-06-22_19-07-22_094959634447_rgbf000078-resize_1-target.png,125,4.6705,0,1112,129,meters,jsons/VE125_randls_6.json,391945,812411,35,Man
18,998883,DepthScenes,duration_manipulation_targetAtFixation,jsons/VE125_randls_6.json,http://54.235.29.9/FacialAge/BNav_EC2/DepthDuration/v2_depth_duration_MTurk/v2_DepthDuration_HTML.html#91,91,500,273,1366,768,9-4-2022,23-19-14,19,depth_duration_stimuli/002995_2014-06-15_12-31-26_094959634447_rgbf000150-resize_1/002995_2014-06-15_12-31-26_094959634447_rgbf000150-resize_1-target.png,125,3.8360000000000003,0,1087,119,meters,jsons/VE125_randls_6.json,391945,812411,35,Man
19,998883,DepthScenes,duration_manipulation_targetAtFixation,jsons/VE125_randls_6.json,http://54.235.29.9/FacialAge/BNav_EC2/DepthDuration/v2_depth_duration_MTurk/v2_DepthDuration_HTML.html#91,91,500,273,1366,768,9-4-2022,23-19-14,20,depth_duration_stimuli/002213_2014-06-28_18-37-58_260595134347_rgbf000055-resize_1/002213_2014-06-28_18-37-58_260595134347_rgbf000055-resize_1-target.png,125,3.62,0,1121,124,meters,jsons/VE125_randls_6.json,391945,812411,35,Man
20,998883,DepthScenes,duration_manipulation_targetAtFixation,jsons/VE125_randls_6.json,http://54.235.29.9/FacialAge/BNav_EC2/DepthDuration/v2_depth_duration_MTurk/v2_DepthDuration_HTML.html#91,91,500,273,1366,768,9-4-2022,23-19-14,21,depth_duration_stimuli/000691_2014-06-08_13-08-50_260595134347_rgbf000132-resize_3/000691_2014-06-08_13-08-50_260595134347_rgbf000132-resize_3-target.png,125,4.1530000000000005,0,1080,119,meters,jsons/VE125_randls_6.json,391945,812411,35,Man
21,998883,DepthScenes,duration_manipulation_targetAtFixation,jsons/VE125_randls_6.json,http://54.235.29.9/FacialAge/BNav_EC2/DepthDuration/v2_depth_duration_MTurk/v2_DepthDuration_HTML.html#91,91,500,273,1366,768,9-4-2022,23-19-14,22,depth_duration_stimuli/003492_2014-05-21_15-50-55_094959634447_rgbf000828-resize_1/003492_2014-05-21_15-50-55_094959634447_rgbf000828-resize_1-target.png,125,4.06875,0,1154,119,meters,jsons/VE125_randls_6.json,391945,812411,35,Man
22,998883,DepthScenes,duration_manipulation_targetAtFixation,jsons/VE125_randls_6.json,http://54.235.29.9/FacialAge/BNav_EC2/DepthDuration/v2_depth_duration_MTurk/v2_DepthDuration_HTML.html#91,91,500,273,1366,768,9-4-2022,23-19-14,23,depth_duration_stimuli/002568_2014-06-24_13-59-21_094959634447_rgbf000062-resize_4/002568_2014-06-24_13-59-21_094959634447_rgbf000062-resize_4-target.png,125,3.015,0,1098,118,meters,jsons/VE125_randls_6.json,391945,812411,35,Man
23,998883,DepthScenes,duration_manipulation_targetAtFixation,jsons/VE125_randls_6.json,http://54.235.29.9/FacialAge/BNav_EC2/DepthDuration/v2_depth_duration_MTurk/v2_DepthDuration_HTML.html#91,91,500,273,1366,768,9-4-2022,23-19-14,24,depth_duration_stimuli/001011_2014-06-08_23-18-54_260595134347_rgbf000044-resize_4/001011_2014-06-08_23-18-54_260595134347_rgbf000044-resize_4-target.png,125,2.4730000000000003,0,3172,119,meters,jsons/VE125_randls_6.json,391945,812411,35,Man
24,998883,DepthScenes,duration_manipulation_targetAtFixation,jsons/VE125_randls_6.json,http://54.235.29.9/FacialAge/BNav_EC2/DepthDuration/v2_depth_duration_MTurk/v2_DepthDuration_HTML.html#91,91,500,273,1366,768,9-4-2022,23-19-14,25,depth_duration_stimuli/002875_2014-06-01_15-19-00_094959634447_rgbf000151-resize_1/002875_2014-06-01_15-19-00_094959634447_rgbf000151-resize_1-target.png,125,1.9675,0,1791,125,meters,jsons/VE125_randls_6.json,391945,812411,35,Man
25,998883,DepthScenes,duration_manipulation_targetAtFixation,jsons/VE125_randls_6.json,http://54.235.29.9/FacialAge/BNav_EC2/DepthDuration/v2_depth_duration_MTurk/v2_DepthDuration_HTML.html#91,91,500,273,1366,768,9-4-2022,23-19-14,26,depth_duration_stimuli/002964_2014-06-08_17-46-11_094959634447_rgbf000091-resize_4/002964_2014-06-08_17-46-11_094959634447_rgbf000091-resize_4-target.png,125,1.6909999999999998,0,1196,118,meters,jsons/VE125_randls_6.json,391945,812411,35,Man
26,998883,DepthScenes,duration_manipulation_targetAtFixation,jsons/VE125_randls_6.json,http://54.235.29.9/FacialAge/BNav_EC2/DepthDuration/v2_depth_duration_MTurk/v2_DepthDuration_HTML.html#91,91,500,273,1366,768,9-4-2022,23-19-14,27,depth_duration_stimuli/002136_2014-06-25_21-18-03_260595134347_rgbf000109-resize_3/002136_2014-06-25_21-18-03_260595134347_rgbf000109-resize_3-target.png,125,1.9569999999999999,0,1157,128,meters,jsons/VE125_randls_6.json,391945,812411,35,Man
27,998883,DepthScenes,duration_manipulation_targetAtFixation,jsons/VE125_randls_6.json,http://54.235.29.9/FacialAge/BNav_EC2/DepthDuration/v2_depth_duration_MTurk/v2_DepthDuration_HTML.html#91,91,500,273,1366,768,9-4-2022,23-19-14,28,depth_duration_stimuli/001555_2014-06-20_17-12-10_260595134347_rgbf000065-resize_4/001555_2014-06-20_17-12-10_260595134347_rgbf000065-resize_4-target.png,125,1.633,0,1175,129,meters,jsons/VE125_randls_6.json,391945,812411,35,Man
28,998883,DepthScenes,duration_manipulation_targetAtFixation,jsons/VE125_randls_6.json,http://54.235.29.9/FacialAge/BNav_EC2/DepthDuration/v2_depth_duration_MTurk/v2_DepthDuration_HTML.html#91,91,500,273,1366,768,9-4-2022,23-19-14,29,depth_duration_stimuli/000103_2014-05-14_22-01-17_260595134347_rgbf000152-resize_5/000103_2014-05-14_22-01-17_260595134347_rgbf000152-resize_5-target.png,125,1.993,0,1137,129,meters,jsons/VE125_randls_6.json,391945,812411,35,Man
29,998883,DepthScenes,duration_manipulation_targetAtFixation,jsons/VE125_randls_6.json,http://54.235.29.9/FacialAge/BNav_EC2/DepthDuration/v2_depth_duration_MTurk/v2_DepthDuration_HTML.html#91,91,500,273,1366,768,9-4-2022,23-19-14,30,depth_duration_stimuli/000375_2014-06-08_11-17-29_260595134347_rgbf000133-resize_2/000375_2014-06-08_11-17-29_260595134347_rgbf000133-resize-original.jpg,125,4.718,0,1285,129,meters,jsons/VE125_randls_6.json,391945,812411,35,Man
30,998883,DepthScenes,duration_manipulation_targetAtFixation,jsons/VE125_randls_6.json,http://54.235.29.9/FacialAge/BNav_EC2/DepthDuration/v2_depth_duration_MTurk/v2_DepthDuration_HTML.html#91,91,500,273,1366,768,9-4-2022,23-19-14,31,depth_duration_stimuli/001175_2014-06-17_15-45-55_260595134347_rgbf000129-resize_4/001175_2014-06-17_15-45-55_260595134347_rgbf000129-resize_4-target.png,125,4.255,0,1028,129,meters,jsons/VE125_randls_6.json,391945,812411,35,Man
31,998883,DepthScenes,duration_manipulation_targetAtFixation,jsons/VE125_randls_6.json,http://54.235.29.9/FacialAge/BNav_EC2/DepthDuration/v2_depth_duration_MTurk/v2_DepthDuration_HTML.html#91,91,500,273,1366,768,9-4-2022,23-19-14,32,depth_duration_stimuli/003490_2014-05-21_15-50-11_094959634447_rgbf000101-resize_3/003490_2014-05-21_15-50-11_094959634447_rgbf000101-resize_3-target.png,125,3.6445,0,1079,119,meters,jsons/VE125_randls_6.json,391945,812411,35,Man
32,998883,DepthScenes,duration_manipulation_targetAtFixation,jsons/VE125_randls_6.json,http://54.235.29.9/FacialAge/BNav_EC2/DepthDuration/v2_depth_duration_MTurk/v2_DepthDuration_HTML.html#91,91,500,273,1366,768,9-4-2022,23-19-14,33,depth_duration_stimuli/003534_2014-05-22_15-06-10_094959634447_rgbf000102-resize_4/003534_2014-05-22_15-06-10_094959634447_rgbf000102-resize_4-target.png,125,1.426,0,1095,127,meters,jsons/VE125_randls_6.json,391945,812411,35,Man
33,998883,DepthScenes,duration_manipulation_targetAtFixation,jsons/VE125_randls_6.json,http://54.235.29.9/FacialAge/BNav_EC2/DepthDuration/v2_depth_duration_MTurk/v2_DepthDuration_HTML.html#91,91,500,273,1366,768,9-4-2022,23-19-14,34,depth_duration_stimuli/002637_2014-06-24_14-51-13_094959634447_rgbf000066-resize_4/002637_2014-06-24_14-51-13_094959634447_rgbf000066-resize_4-target.png,125,1.9955,0,1133,130,meters,jsons/VE125_randls_6.json,391945,812411,35,Man
34,998883,DepthScenes,duration_manipulation_targetAtFixation,jsons/VE125_randls_6.json,http://54.235.29.9/FacialAge/BNav_EC2/DepthDuration/v2_depth_duration_MTurk/v2_DepthDuration_HTML.html#91,91,500,273,1366,768,9-4-2022,23-19-14,35,depth_duration_stimuli/001110_2014-06-15_17-25-28_260595134347_rgbf000150-resize_1/001110_2014-06-15_17-25-28_260595134347_rgbf000150-resize_1-target.png,125,1.7115,0,1021,118,meters,jsons/VE125_randls_6.json,391945,812411,35,Man
35,998883,DepthScenes,duration_manipulation_targetAtFixation,jsons/VE125_randls_6.json,http://54.235.29.9/FacialAge/BNav_EC2/DepthDuration/v2_depth_duration_MTurk/v2_DepthDuration_HTML.html#91,91,500,273,1366,768,9-4-2022,23-19-14,36,depth_duration_stimuli/000927_2014-06-09_16-32-30_260595134347_rgbf000123-resize_3/000927_2014-06-09_16-32-30_260595134347_rgbf000123-resize_3-target.png,125,2.6785,0,10211,116,meters,jsons/VE125_randls_6.json,391945,812411,35,Man
36,998883,DepthScenes,duration_manipulation_targetAtFixation,jsons/VE125_randls_6.json,http://54.235.29.9/FacialAge/BNav_EC2/DepthDuration/v2_depth_duration_MTurk/v2_DepthDuration_HTML.html#91,91,500,273,1366,768,9-4-2022,23-19-14,37,depth_duration_stimuli/001810_2014-06-26_20-51-35_260595134347_rgbf000040-resize_3/001810_2014-06-26_20-51-35_260595134347_rgbf000040-resize_3-target.png,125,2.2525,0,4575,116,meters,jsons/VE125_randls_6.json,391945,812411,35,Man
37,998883,DepthScenes,duration_manipulation_targetAtFixation,jsons/VE125_randls_6.json,http://54.235.29.9/FacialAge/BNav_EC2/DepthDuration/v2_depth_duration_MTurk/v2_DepthDuration_HTML.html#91,91,500,273,1366,768,9-4-2022,23-19-14,38,depth_duration_stimuli/003010_2014-06-15_12-54-35_094959634447_rgbf000112-resize_0/003010_2014-06-15_12-54-35_094959634447_rgbf000112-resize_0-target.png,125,3.1185,0,3189,120,meters,jsons/VE125_randls_6.json,391945,812411,35,Man
38,998883,DepthScenes,duration_manipulation_targetAtFixation,jsons/VE125_randls_6.json,http://54.235.29.9/FacialAge/BNav_EC2/DepthDuration/v2_depth_duration_MTurk/v2_DepthDuration_HTML.html#91,91,500,273,1366,768,9-4-2022,23-19-14,39,depth_duration_stimuli/002445_2014-06-28_20-32-16_260595134347_rgbf000029-resize_4/002445_2014-06-28_20-32-16_260595134347_rgbf000029-resize_4-target.png,125,2.5315,0,3800,119,meters,jsons/VE125_randls_6.json,391945,812411,35,Man
39,998883,DepthScenes,duration_manipulation_targetAtFixation,jsons/VE125_randls_6.json,http://54.235.29.9/FacialAge/BNav_EC2/DepthDuration/v2_depth_duration_MTurk/v2_DepthDuration_HTML.html#91,91,500,273,1366,768,9-4-2022,23-19-14,40,depth_duration_stimuli/000780_2014-06-08_22-28-29_260595134347_rgbf000126-resize_1/000780_2014-06-08_22-28-29_260595134347_rgbf000126-resize_1-target.png,125,3.3825,0,1053,113,meters,jsons/VE125_randls_6.json,391945,812411,35,Man
40,998883,DepthScenes,duration_manipulation_targetAtFixation,jsons/VE125_randls_6.json,http://54.235.29.9/FacialAge/BNav_EC2/DepthDuration/v2_depth_duration_MTurk/v2_DepthDuration_HTML.html#91,91,500,273,1366,768,9-4-2022,23-19-14,41,depth_duration_stimuli/002763_2014-06-22_19-13-10_094959634447_rgbf000075-resize_4/002763_2014-06-22_19-13-10_094959634447_rgbf000075-resize_4-target.png,125,1.68375,0,38975,130,meters,jsons/VE125_randls_6.json,391945,812411,35,Man
41,998883,DepthScenes,duration_manipulation_targetAtFixation,jsons/VE125_randls_6.json,http://54.235.29.9/FacialAge/BNav_EC2/DepthDuration/v2_depth_duration_MTurk/v2_DepthDuration_HTML.html#91,91,500,273,1366,768,9-4-2022,23-19-14,42,depth_duration_stimuli/002209_2014-06-28_18-36-10_260595134347_rgbf000051-resize_1/002209_2014-06-28_18-36-10_260595134347_rgbf000051-resize_1-target.png,125,2.057,0,1111,119,meters,jsons/VE125_randls_6.json,391945,812411,35,Man
42,998883,DepthScenes,duration_manipulation_targetAtFixation,jsons/VE125_randls_6.json,http://54.235.29.9/FacialAge/BNav_EC2/DepthDuration/v2_depth_duration_MTurk/v2_DepthDuration_HTML.html#91,91,500,273,1366,768,9-4-2022,23-19-14,43,depth_duration_stimuli/000009_2014-05-26_14-32-05_260595134347_rgbf000034-resize_3/000009_2014-05-26_14-32-05_260595134347_rgbf000034-resize_3-target.png,125,3.8715,0,1098,119,meters,jsons/VE125_randls_6.json,391945,812411,35,Man
43,998883,DepthScenes,duration_manipulation_targetAtFixation,jsons/VE125_randls_6.json,http://54.235.29.9/FacialAge/BNav_EC2/DepthDuration/v2_depth_duration_MTurk/v2_DepthDuration_HTML.html#91,91,500,273,1366,768,9-4-2022,23-19-14,44,depth_duration_stimuli/001828_2014-06-26_21-40-03_260595134347_rgbf000024-resize_0/001828_2014-06-26_21-40-03_260595134347_rgbf000024-resize_0-target.png,125,4.8260000000000005,0,1085,128,meters,jsons/VE125_randls_6.json,391945,812411,35,Man
44,998883,DepthScenes,duration_manipulation_targetAtFixation,jsons/VE125_randls_6.json,http://54.235.29.9/FacialAge/BNav_EC2/DepthDuration/v2_depth_duration_MTurk/v2_DepthDuration_HTML.html#91,91,500,273,1366,768,9-4-2022,23-19-14,45,depth_duration_stimuli/000787_2014-06-08_22-33-53_260595134347_rgbf000175-resize_1/000787_2014-06-08_22-33-53_260595134347_rgbf000175-resize-original.jpg,125,4.784,0,1110,128,meters,jsons/VE125_randls_6.json,391945,812411,35,Man
45,998883,DepthScenes,duration_manipulation_targetAtFixation,jsons/VE125_randls_6.json,http://54.235.29.9/FacialAge/BNav_EC2/DepthDuration/v2_depth_duration_MTurk/v2_DepthDuration_HTML.html#91,91,500,273,1366,768,9-4-2022,23-19-14,46,depth_duration_stimuli/000917_2014-06-09_22-45-29_260595134347_rgbf000149-resize_3/000917_2014-06-09_22-45-29_260595134347_rgbf000149-resize_3-target.png,125,4.1865,0,1065,118,meters,jsons/VE125_randls_6.json,391945,812411,35,Man
46,998883,DepthScenes,duration_manipulation_targetAtFixation,jsons/VE125_randls_6.json,http://54.235.29.9/FacialAge/BNav_EC2/DepthDuration/v2_depth_duration_MTurk/v2_DepthDuration_HTML.html#91,91,500,273,1366,768,9-4-2022,23-19-14,47,depth_duration_stimuli/002323_2014-06-28_20-01-54_260595134347_rgbf000051-resize_4/002323_2014-06-28_20-01-54_260595134347_rgbf000051-resize_4-target.png,125,3.7310000000000003,0,1119,127,meters,jsons/VE125_randls_6.json,391945,812411,35,Man
47,998883,DepthScenes,duration_manipulation_targetAtFixation,jsons/VE125_randls_6.json,http://54.235.29.9/FacialAge/BNav_EC2/DepthDuration/v2_depth_duration_MTurk/v2_DepthDuration_HTML.html#91,91,500,273,1366,768,9-4-2022,23-19-14,48,depth_duration_stimuli/001570_2014-06-20_17-21-09_260595134347_rgbf000135-resize_4/001570_2014-06-20_17-21-09_260595134347_rgbf000135-resize_4-target.png,125,4.467,0,1062,119,meters,jsons/VE125_randls_6.json,391945,812411,35,Man
48,998883,DepthScenes,duration_manipulation_targetAtFixation,jsons/VE125_randls_6.json,http://54.235.29.9/FacialAge/BNav_EC2/DepthDuration/v2_depth_duration_MTurk/v2_DepthDuration_HTML.html#91,91,500,273,1366,768,9-4-2022,23-19-14,49,depth_duration_stimuli/001392_2014-06-19_16-07-59_260595134347_rgbf000046-resize_1/001392_2014-06-19_16-07-59_260595134347_rgbf000046-resize_1-target.png,125,4.135,0,1065,114,meters,jsons/VE125_randls_6.json,391945,812411,35,Man
49,998883,DepthScenes,duration_manipulation_targetAtFixation,jsons/VE125_randls_6.json,http://54.235.29.9/FacialAge/BNav_EC2/DepthDuration/v2_depth_duration_MTurk/v2_DepthDuration_HTML.html#91,91,500,273,1366,768,9-4-2022,23-19-14,50,depth_duration_stimuli/000788_2014-06-08_22-34-36_260595134347_rgbf000131-resize_1/000788_2014-06-08_22-34-36_260595134347_rgbf000131-resize_1-target.png,125,3.359,0,1109,118,meters,jsons/VE125_randls_6.json,391945,812411,35,Man
50,998883,DepthScenes,duration_manipulation_targetAtFixation,jsons/VE125_randls_6.json,http://54.235.29.9/FacialAge/BNav_EC2/DepthDuration/v2_depth_duration_MTurk/v2_DepthDuration_HTML.html#91,91,500,273,1366,768,9-4-2022,23-19-14,51,depth_duration_stimuli/001235_2014-06-17_16-37-36_260595134347_rgbf000084-resize_4/001235_2014-06-17_16-37-36_260595134347_rgbf000084-resize_4-target.png,125,3.6605,0,1104,128,meters,jsons/VE125_randls_6.json,391945,812411,35,Man
51,998883,DepthScenes,duration_manipulation_targetAtFixation,jsons/VE125_randls_6.json,http://54.235.29.9/FacialAge/BNav_EC2/DepthDuration/v2_depth_duration_MTurk/v2_DepthDuration_HTML.html#91,91,500,273,1366,768,9-4-2022,23-19-14,52,depth_duration_stimuli/000739_2014-06-08_18-45-58_260595134347_rgbf000068-resize_1/000739_2014-06-08_18-45-58_260595134347_rgbf000068-resize_1-target.png,125,3.534,0,1139,128,meters,jsons/VE125_randls_6.json,391945,812411,35,Man
52,998883,DepthScenes,duration_manipulation_targetAtFixation,jsons/VE125_randls_6.json,http://54.235.29.9/FacialAge/BNav_EC2/DepthDuration/v2_depth_duration_MTurk/v2_DepthDuration_HTML.html#91,91,500,273,1366,768,9-4-2022,23-19-14,53,depth_duration_stimuli/000734_2014-06-08_17-39-11_260595134347_rgbf000128-resize_2/000734_2014-06-08_17-39-11_260595134347_rgbf000128-resize_2-target.png,125,4.098,0,1126,118,meters,jsons/VE125_randls_6.json,391945,812411,35,Man
53,998883,DepthScenes,duration_manipulation_targetAtFixation,jsons/VE125_randls_6.json,http://54.235.29.9/FacialAge/BNav_EC2/DepthDuration/v2_depth_duration_MTurk/v2_DepthDuration_HTML.html#91,91,500,273,1366,768,9-4-2022,23-19-14,54,depth_duration_stimuli/000736_2014-06-08_18-24-15_260595134347_rgbf000206-resize_3/000736_2014-06-08_18-24-15_260595134347_rgbf000206-resize_3-target.png,125,3.515,0,1132,129,meters,jsons/VE125_randls_6.json,391945,812411,35,Man
54,998883,DepthScenes,duration_manipulation_targetAtFixation,jsons/VE125_randls_6.json,http://54.235.29.9/FacialAge/BNav_EC2/DepthDuration/v2_depth_duration_MTurk/v2_DepthDuration_HTML.html#91,91,500,273,1366,768,9-4-2022,23-19-14,55,depth_duration_stimuli/000137_2014-05-20_17-04-49_260595134347_rgbf000120-resize_1/000137_2014-05-20_17-04-49_260595134347_rgbf000120-resize_1-target.png,125,3.786,0,1105,119,meters,jsons/VE125_randls_6.json,391945,812411,35,Man
55,998883,DepthScenes,duration_manipulation_targetAtFixation,jsons/VE125_randls_6.json,http://54.235.29.9/FacialAge/BNav_EC2/DepthDuration/v2_depth_duration_MTurk/v2_DepthDuration_HTML.html#91,91,500,273,1366,768,9-4-2022,23-19-14,56,depth_duration_stimuli/001244_2014-06-17_16-47-45_260595134347_rgbf000030-resize_4/001244_2014-06-17_16-47-45_260595134347_rgbf000030-resize_4-target.png,125,2.0425,0,1124,128,meters,jsons/VE125_randls_6.json,391945,812411,35,Man
56,998883,DepthScenes,duration_manipulation_targetAtFixation,jsons/VE125_randls_6.json,http://54.235.29.9/FacialAge/BNav_EC2/DepthDuration/v2_depth_duration_MTurk/v2_DepthDuration_HTML.html#91,91,500,273,1366,768,9-4-2022,23-19-14,57,depth_duration_stimuli/003495_2014-05-21_16-01-51_094959634447_rgbf000100-resize_3/003495_2014-05-21_16-01-51_094959634447_rgbf000100-resize_3-target.png,125,1.6255,0,1158,129,meters,jsons/VE125_randls_6.json,391945,812411,35,Man
57,998883,DepthScenes,duration_manipulation_targetAtFixation,jsons/VE125_randls_6.json,http://54.235.29.9/FacialAge/BNav_EC2/DepthDuration/v2_depth_duration_MTurk/v2_DepthDuration_HTML.html#91,91,500,273,1366,768,9-4-2022,23-19-14,58,depth_duration_stimuli/002039_2014-06-24_20-22-38_260595134347_rgbf000084-resize_1/002039_2014-06-24_20-22-38_260595134347_rgbf000084-resize_1-target.png,125,4.408,0,1208,128,meters,jsons/VE125_randls_6.json,391945,812411,35,Man
58,998883,DepthScenes,duration_manipulation_targetAtFixation,jsons/VE125_randls_6.json,http://54.235.29.9/FacialAge/BNav_EC2/DepthDuration/v2_depth_duration_MTurk/v2_DepthDuration_HTML.html#91,91,500,273,1366,768,9-4-2022,23-19-14,59,depth_duration_stimuli/002103_2014-06-25_20-00-40_260595134347_rgbf000049-resize_0/002103_2014-06-25_20-00-40_260595134347_rgbf000049-resize_0-target.png,125,4.105,0,1151,119,meters,jsons/VE125_randls_6.json,391945,812411,35,Man
59,998883,DepthScenes,duration_manipulation_targetAtFixation,jsons/VE125_randls_6.json,http://54.235.29.9/FacialAge/BNav_EC2/DepthDuration/v2_depth_duration_MTurk/v2_DepthDuration_HTML.html#91,91,500,273,1366,768,9-4-2022,23-19-14,60,depth_duration_stimuli/003070_2014-06-15_14-58-27_094959634447_rgbf000150-resize_3/003070_2014-06-15_14-58-27_094959634447_rgbf000150-resize_3-target.png,125,2.9415,0,1167,119,meters,jsons/VE125_randls_6.json,391945,812411,35,Man
60,998883,DepthScenes,duration_manipulation_targetAtFixation,jsons/VE125_randls_6.json,http://54.235.29.9/FacialAge/BNav_EC2/DepthDuration/v2_depth_duration_MTurk/v2_DepthDuration_HTML.html#91,91,500,273,1366,768,9-4-2022,23-19-14,61,depth_duration_stimuli/000943_2014-06-09_19-31-07_260595134347_rgbf000128-resize_1/000943_2014-06-09_19-31-07_260595134347_rgbf000128-resize_1-target.png,125,1.9765,0,1129,128,meters,jsons/VE125_randls_6.json,391945,812411,35,Man
61,998883,DepthScenes,duration_manipulation_targetAtFixation,jsons/VE125_randls_6.json,http://54.235.29.9/FacialAge/BNav_EC2/DepthDuration/v2_depth_duration_MTurk/v2_DepthDuration_HTML.html#91,91,500,273,1366,768,9-4-2022,23-19-14,62,depth_duration_stimuli/001150_2014-06-17_15-27-34_260595134347_rgbf000108-resize_2/001150_2014-06-17_15-27-34_260595134347_rgbf000108-resize_2-target.png,125,4.0325,0,1165,117,meters,jsons/VE125_randls_6.json,391945,812411,35,Man
62,998883,DepthScenes,duration_manipulation_targetAtFixation,jsons/VE125_randls_6.json,http://54.235.29.9/FacialAge/BNav_EC2/DepthDuration/v2_depth_duration_MTurk/v2_DepthDuration_HTML.html#91,91,500,273,1366,768,9-4-2022,23-19-14,63,depth_duration_stimuli/000665_2014-06-09_20-42-35_260595134347_rgbf000110-resize_1/000665_2014-06-09_20-42-35_260595134347_rgbf000110-resize_1-target.png,125,3.057,0,1140,129,meters,jsons/VE125_randls_6.json,391945,812411,35,Man
63,998883,DepthScenes,duration_manipulation_targetAtFixation,jsons/VE125_randls_6.json,http://54.235.29.9/FacialAge/BNav_EC2/DepthDuration/v2_depth_duration_MTurk/v2_DepthDuration_HTML.html#91,91,500,273,1366,768,9-4-2022,23-19-14,64,depth_duration_stimuli/000414_2014-06-04_19-49-13_260595134347_rgbf000044-resize_0/000414_2014-06-04_19-49-13_260595134347_rgbf000044-resize_0-target.png,125,4.329,0,1165,119,meters,jsons/VE125_randls_6.json,391945,812411,35,Man
64,998883,DepthScenes,duration_manipulation_targetAtFixation,jsons/VE125_randls_6.json,http://54.235.29.9/FacialAge/BNav_EC2/DepthDuration/v2_depth_duration_MTurk/v2_DepthDuration_HTML.html#91,91,500,273,1366,768,9-4-2022,23-19-14,65,depth_duration_stimuli/003129_2014-05-12_10-48-10_094959634447_rgbf000100-resize_0/003129_2014-05-12_10-48-10_094959634447_rgbf000100-resize_0-target.png,125,4.9305,0,1147,129,meters,jsons/VE125_randls_6.json,391945,812411,35,Man
65,998883,DepthScenes,duration_manipulation_targetAtFixation,jsons/VE125_randls_6.json,http://54.235.29.9/FacialAge/BNav_EC2/DepthDuration/v2_depth_duration_MTurk/v2_DepthDuration_HTML.html#91,91,500,273,1366,768,9-4-2022,23-19-14,66,depth_duration_stimuli/001222_2014-06-17_16-24-06_260595134347_rgbf000073-resize_0/001222_2014-06-17_16-24-06_260595134347_rgbf000073-resize-original.jpg,125,1.4385,0,1142,128,meters,jsons/VE125_randls_6.json,391945,812411,35,Man
66,998883,DepthScenes,duration_manipulation_targetAtFixation,jsons/VE125_randls_6.json,http://54.235.29.9/FacialAge/BNav_EC2/DepthDuration/v2_depth_duration_MTurk/v2_DepthDuration_HTML.html#91,91,500,273,1366,768,9-4-2022,23-19-14,67,depth_duration_stimuli/000368_2014-06-09_15-53-01_260595134347_rgbf000155-resize_2/000368_2014-06-09_15-53-01_260595134347_rgbf000155-resize_2-target.png,125,2.4859999999999998,0,25178,126,meters,jsons/VE125_randls_6.json,391945,812411,35,Man
67,998883,DepthScenes,duration_manipulation_targetAtFixation,jsons/VE125_randls_6.json,http://54.235.29.9/FacialAge/BNav_EC2/DepthDuration/v2_depth_duration_MTurk/v2_DepthDuration_HTML.html#91,91,500,273,1366,768,9-4-2022,23-19-14,68,depth_duration_stimuli/002678_2014-06-13_16-15-32_094959634447_rgbf000151-resize_6/002678_2014-06-13_16-15-32_094959634447_rgbf000151-resize_6-target.png,125,2.1830000000000003,0,1163,119,meters,jsons/VE125_randls_6.json,391945,812411,35,Man
68,998883,DepthScenes,duration_manipulation_targetAtFixation,jsons/VE125_randls_6.json,http://54.235.29.9/FacialAge/BNav_EC2/DepthDuration/v2_depth_duration_MTurk/v2_DepthDuration_HTML.html#91,91,500,273,1366,768,9-4-2022,23-19-14,69,depth_duration_stimuli/002043_2014-06-24_20-29-38_260595134347_rgbf000039-resize_4/002043_2014-06-24_20-29-38_260595134347_rgbf000039-resize_4-target.png,125,2.8435,0,1167,118,meters,jsons/VE125_randls_6.json,391945,812411,35,Man
69,998883,DepthScenes,duration_manipulation_targetAtFixation,jsons/VE125_randls_6.json,http://54.235.29.9/FacialAge/BNav_EC2/DepthDuration/v2_depth_duration_MTurk/v2_DepthDuration_HTML.html#91,91,500,273,1366,768,9-4-2022,23-19-14,70,depth_duration_stimuli/003048_2014-06-15_13-49-43_094959634447_rgbf000150-resize_1/003048_2014-06-15_13-49-43_094959634447_rgbf000150-resize_1-target.png,125,4.0035,0,1608,119,meters,jsons/VE125_randls_6.json,391945,812411,35,Man
70,998883,DepthScenes,duration_manipulation_targetAtFixation,jsons/VE125_randls_6.json,http://54.235.29.9/FacialAge/BNav_EC2/DepthDuration/v2_depth_duration_MTurk/v2_DepthDuration_HTML.html#91,91,500,273,1366,768,9-4-2022,23-19-14,71,depth_duration_stimuli/000810_2014-06-08_17-20-01_260595134347_rgbf000105-resize_0/000810_2014-06-08_17-20-01_260595134347_rgbf000105-resize_0-target.png,125,1.4865,0,1236,128,meters,jsons/VE125_randls_6.json,391945,812411,35,Man
71,998883,DepthScenes,duration_manipulation_targetAtFixation,jsons/VE125_randls_6.json,http://54.235.29.9/FacialAge/BNav_EC2/DepthDuration/v2_depth_duration_MTurk/v2_DepthDuration_HTML.html#91,91,500,273,1366,768,9-4-2022,23-19-14,72,depth_duration_stimuli/001214_2014-06-17_16-13-55_260595134347_rgbf000111-resize_0/001214_2014-06-17_16-13-55_260595134347_rgbf000111-resize_0-target.png,125,2.6505,0,1126,128,meters,jsons/VE125_randls_6.json,391945,812411,35,Man
72,998883,DepthScenes,duration_manipulation_targetAtFixation,jsons/VE125_randls_6.json,http://54.235.29.9/FacialAge/BNav_EC2/DepthDuration/v2_depth_duration_MTurk/v2_DepthDuration_HTML.html#91,91,500,273,1366,768,9-4-2022,23-19-14,73,depth_duration_stimuli/001029_2014-06-08_13-17-57_260595134347_rgbf000065-resize_1/001029_2014-06-08_13-17-57_260595134347_rgbf000065-resize_1-target.png,125,3.0835,0,1065,129,meters,jsons/VE125_randls_6.json,391945,812411,35,Man
73,998883,DepthScenes,duration_manipulation_targetAtFixation,jsons/VE125_randls_6.json,http://54.235.29.9/FacialAge/BNav_EC2/DepthDuration/v2_depth_duration_MTurk/v2_DepthDuration_HTML.html#91,91,500,273,1366,768,9-4-2022,23-19-14,74,depth_duration_stimuli/000677_2014-06-08_23-10-32_260595134347_rgbf000158-resize_6/000677_2014-06-08_23-10-32_260595134347_rgbf000158-resize_6-target.png,125,3.556,0,1075,128,meters,jsons/VE125_randls_6.json,391945,812411,35,Man
74,998883,DepthScenes,duration_manipulation_targetAtFixation,jsons/VE125_randls_6.json,http://54.235.29.9/FacialAge/BNav_EC2/DepthDuration/v2_depth_duration_MTurk/v2_DepthDuration_HTML.html#91,91,500,273,1366,768,9-4-2022,23-19-14,75,depth_duration_stimuli/000506_2014-06-08_23-21-00_260595134347_rgbf000070-resize_7/000506_2014-06-08_23-21-00_260595134347_rgbf000070-resize_7-target.png,125,4.0585,0,1094,128,meters,jsons/VE125_randls_6.json,391945,812411,35,Man
75,998883,DepthScenes,duration_manipulation_targetAtFixation,jsons/VE125_randls_6.json,http://54.235.29.9/FacialAge/BNav_EC2/DepthDuration/v2_depth_duration_MTurk/v2_DepthDuration_HTML.html#91,91,500,273,1366,768,9-4-2022,23-19-14,76,depth_duration_stimuli/003079_2014-06-15_15-18-20_094959634447_rgbf000152-resize_8/003079_2014-06-15_15-18-20_094959634447_rgbf000152-resize_8-target.png,125,2.8775,0,1062,129,meters,jsons/VE125_randls_6.json,391945,812411,35,Man
76,998883,DepthScenes,duration_manipulation_targetAtFixation,jsons/VE125_randls_6.json,http://54.235.29.9/FacialAge/BNav_EC2/DepthDuration/v2_depth_duration_MTurk/v2_DepthDuration_HTML.html#91,91,500,273,1366,768,9-4-2022,23-19-14,77,depth_duration_stimuli/001417_2014-06-19_16-25-36_260595134347_rgbf000115-resize_5/001417_2014-06-19_16-25-36_260595134347_rgbf000115-resize_5-target.png,125,4.6255,0,1025,119,meters,jsons/VE125_randls_6.json,391945,812411,35,Man
77,998883,DepthScenes,duration_manipulation_targetAtFixation,jsons/VE125_randls_6.json,http://54.235.29.9/FacialAge/BNav_EC2/DepthDuration/v2_depth_duration_MTurk/v2_DepthDuration_HTML.html#91,91,500,273,1366,768,9-4-2022,23-19-14,78,depth_duration_stimuli/003081_2014-06-15_15-19-16_094959634447_rgbf000150-resize_1/003081_2014-06-15_15-19-16_094959634447_rgbf000150-resize_1-target.png,125,3.9125,0,1070,129,meters,jsons/VE125_randls_6.json,391945,812411,35,Man
78,998883,DepthScenes,duration_manipulation_targetAtFixation,jsons/VE125_randls_6.json,http://54.235.29.9/FacialAge/BNav_EC2/DepthDuration/v2_depth_duration_MTurk/v2_DepthDuration_HTML.html#91,91,500,273,1366,768,9-4-2022,23-19-14,79,depth_duration_stimuli/003621_2014-05-23_18-06-08_094959634447_rgbf000101-resize_1/003621_2014-05-23_18-06-08_094959634447_rgbf000101-resize_1-target.png,125,3.9835,0,1067,118,meters,jsons/VE125_randls_6.json,391945,812411,35,Man
79,998883,DepthScenes,duration_manipulation_targetAtFixation,jsons/VE125_randls_6.json,http://54.235.29.9/FacialAge/BNav_EC2/DepthDuration/v2_depth_duration_MTurk/v2_DepthDuration_HTML.html#91,91,500,273,1366,768,9-4-2022,23-19-14,80,depth_duration_stimuli/001584_2014-06-20_11-07-43_260595134347_rgbf000002-resize_1/001584_2014-06-20_11-07-43_260595134347_rgbf000002-resize_1-target.png,125,3.53,0,1077,128,meters,jsons/VE125_randls_6.json,391945,812411,35,Man
80,998883,DepthScenes,duration_manipulation_targetAtFixation,jsons/VE125_randls_6.json,http://54.235.29.9/FacialAge/BNav_EC2/DepthDuration/v2_depth_duration_MTurk/v2_DepthDuration_HTML.html#91,91,500,273,1366,768,9-4-2022,23-19-14,81,depth_duration_stimuli/002375_2014-06-28_20-13-44_260595134347_rgbf000032-resize_1/002375_2014-06-28_20-13-44_260595134347_rgbf000032-resize_1-target.png,125,4.0175,0,1051,125,meters,jsons/VE125_randls_6.json,391945,812411,35,Man
81,998883,DepthScenes,duration_manipulation_targetAtFixation,jsons/VE125_randls_6.json,http://54.235.29.9/FacialAge/BNav_EC2/DepthDuration/v2_depth_duration_MTurk/v2_DepthDuration_HTML.html#91,91,500,273,1366,768,9-4-2022,23-19-14,82,depth_duration_stimuli/002657_2014-06-13_15-29-54_094959634447_rgbf000150-resize_1/002657_2014-06-13_15-29-54_094959634447_rgbf000150-resize_1-target.png,125,4.919,0,1055,129,meters,jsons/VE125_randls_6.json,391945,812411,35,Man
82,998883,DepthScenes,duration_manipulation_targetAtFixation,jsons/VE125_randls_6.json,http://54.235.29.9/FacialAge/BNav_EC2/DepthDuration/v2_depth_duration_MTurk/v2_DepthDuration_HTML.html#91,91,500,273,1366,768,9-4-2022,23-19-14,83,depth_duration_stimuli/002509_2014-06-24_13-19-22_094959634447_rgbf000077-resize_0/002509_2014-06-24_13-19-22_094959634447_rgbf000077-resize_0-target.png,125,1.3065,0,1064,129,meters,jsons/VE125_randls_6.json,391945,812411,35,Man
83,998883,DepthScenes,duration_manipulation_targetAtFixation,jsons/VE125_randls_6.json,http://54.235.29.9/FacialAge/BNav_EC2/DepthDuration/v2_depth_duration_MTurk/v2_DepthDuration_HTML.html#91,91,500,273,1366,768,9-4-2022,23-19-14,84,depth_duration_stimuli/003338_2014-05-20_11-01-23_094959634447_rgbf000051-resize_6/003338_2014-05-20_11-01-23_094959634447_rgbf000051-resize_6-target.png,125,1.693,0,1043,129,meters,jsons/VE125_randls_6.json,391945,812411,35,Man
84,998883,DepthScenes,duration_manipulation_targetAtFixation,jsons/VE125_randls_6.json,http://54.235.29.9/FacialAge/BNav_EC2/DepthDuration/v2_depth_duration_MTurk/v2_DepthDuration_HTML.html#91,91,500,273,1366,768,9-4-2022,23-19-14,85,depth_duration_stimuli/002549_2014-06-24_13-41-39_094959634447_rgbf000022-resize_3/002549_2014-06-24_13-41-39_094959634447_rgbf000022-resize_3-target.png,125,1.476,0,1052,118,meters,jsons/VE125_randls_6.json,391945,812411,35,Man
85,998883,DepthScenes,duration_manipulation_targetAtFixation,jsons/VE125_randls_6.json,http://54.235.29.9/FacialAge/BNav_EC2/DepthDuration/v2_depth_duration_MTurk/v2_DepthDuration_HTML.html#91,91,500,273,1366,768,9-4-2022,23-19-14,86,depth_duration_stimuli/002750_2014-06-22_19-08-03_094959634447_rgbf000094-resize_4/002750_2014-06-22_19-08-03_094959634447_rgbf000094-resize_4-target.png,125,2.354,0,1061,118,meters,jsons/VE125_randls_6.json,391945,812411,35,Man
86,998883,DepthScenes,duration_manipulation_targetAtFixation,jsons/VE125_randls_6.json,http://54.235.29.9/FacialAge/BNav_EC2/DepthDuration/v2_depth_duration_MTurk/v2_DepthDuration_HTML.html#91,91,500,273,1366,768,9-4-2022,23-19-14,87,depth_duration_stimuli/002057_2014-06-24_21-00-13_260595134347_rgbf000120-resize_1/002057_2014-06-24_21-00-13_260595134347_rgbf000120-resize_1-target.png,125,2.967,0,1094,119,meters,jsons/VE125_randls_6.json,391945,812411,35,Man
87,998883,DepthScenes,duration_manipulation_targetAtFixation,jsons/VE125_randls_6.json,http://54.235.29.9/FacialAge/BNav_EC2/DepthDuration/v2_depth_duration_MTurk/v2_DepthDuration_HTML.html#91,91,500,273,1366,768,9-4-2022,23-19-14,88,depth_duration_stimuli/000709_2014-06-08_13-51-55_260595134347_rgbf000068-resize_3/000709_2014-06-08_13-51-55_260595134347_rgbf000068-resize_3-target.png,125,1.8030000000000002,0,1105,130,meters,jsons/VE125_randls_6.json,391945,812411,35,Man
88,998883,DepthScenes,duration_manipulation_targetAtFixation,jsons/VE125_randls_6.json,http://54.235.29.9/FacialAge/BNav_EC2/DepthDuration/v2_depth_duration_MTurk/v2_DepthDuration_HTML.html#91,91,500,273,1366,768,9-4-2022,23-19-14,89,depth_duration_stimuli/000773_2014-06-08_22-24-54_260595134347_rgbf000093-resize_1/000773_2014-06-08_22-24-54_260595134347_rgbf000093-resize_1-target.png,125,4.973,0,1100,129,meters,jsons/VE125_randls_6.json,391945,812411,35,Man
89,998883,DepthScenes,duration_manipulation_targetAtFixation,jsons/VE125_randls_6.json,http://54.235.29.9/FacialAge/BNav_EC2/DepthDuration/v2_depth_duration_MTurk/v2_DepthDuration_HTML.html#91,91,500,273,1366,768,9-4-2022,23-19-14,90,depth_duration_stimuli/002414_2014-06-28_20-24-58_260595134347_rgbf000067-resize_4/002414_2014-06-28_20-24-58_260595134347_rgbf000067-resize_4-target.png,125,4.363,0,1079,118,meters,jsons/VE125_randls_6.json,391945,812411,35,Man
90,998883,DepthScenes,duration_manipulation_targetAtFixation,jsons/VE125_randls_6.json,http://54.235.29.9/FacialAge/BNav_EC2/DepthDuration/v2_depth_duration_MTurk/v2_DepthDuration_HTML.html#91,91,500,273,1366,768,9-4-2022,23-19-14,91,depth_duration_stimuli/000906_2014-06-08_13-35-43_260595134347_rgbf000155-resize_1/000906_2014-06-08_13-35-43_260595134347_rgbf000155-resize_1-target.png,125,2.8489999999999998,0,1047,118,meters,jsons/VE125_randls_6.json,391945,812411,35,Man
91,998883,DepthScenes,duration_manipulation_targetAtFixation,jsons/VE125_randls_6.json,http://54.235.29.9/FacialAge/BNav_EC2/DepthDuration/v2_depth_duration_MTurk/v2_DepthDuration_HTML.html#91,91,500,273,1366,768,9-4-2022,23-19-14,92,depth_duration_stimuli/002805_2014-06-22_19-54-03_094959634447_rgbf000079-resize_1/002805_2014-06-22_19-54-03_094959634447_rgbf000079-resize_1-target.png,125,3.1439999999999997,0,1066,130,meters,jsons/VE125_randls_6.json,391945,812411,35,Man
92,998883,DepthScenes,duration_manipulation_targetAtFixation,jsons/VE125_randls_6.json,http://54.235.29.9/FacialAge/BNav_EC2/DepthDuration/v2_depth_duration_MTurk/v2_DepthDuration_HTML.html#91,91,500,273,1366,768,9-4-2022,23-19-14,93,depth_duration_stimuli/002570_2014-06-24_13-59-54_094959634447_rgbf000059-resize_0/002570_2014-06-24_13-59-54_094959634447_rgbf000059-resize_0-target.png,125,4.037,0,1093,129,meters,jsons/VE125_randls_6.json,391945,812411,35,Man
93,998883,DepthScenes,duration_manipulation_targetAtFixation,jsons/VE125_randls_6.json,http://54.235.29.9/FacialAge/BNav_EC2/DepthDuration/v2_depth_duration_MTurk/v2_DepthDuration_HTML.html#91,91,500,273,1366,768,9-4-2022,23-19-14,94,depth_duration_stimuli/002467_2014-06-28_20-38-07_260595134347_rgbf000026-resize_2/002467_2014-06-28_20-38-07_260595134347_rgbf000026-resize_2-target.png,125,4.742,0,1079,118,meters,jsons/VE125_randls_6.json,391945,812411,35,Man
94,998883,DepthScenes,duration_manipulation_targetAtFixation,jsons/VE125_randls_6.json,http://54.235.29.9/FacialAge/BNav_EC2/DepthDuration/v2_depth_duration_MTurk/v2_DepthDuration_HTML.html#91,91,500,273,1366,768,9-4-2022,23-19-14,95,depth_duration_stimuli/001806_2014-06-26_20-50-20_260595134347_rgbf000091-resize_1/001806_2014-06-26_20-50-20_260595134347_rgbf000091-resize_1-target.png,125,2.7305,0,1082,118,meters,jsons/VE125_randls_6.json,391945,812411,35,Man
95,998883,DepthScenes,duration_manipulation_targetAtFixation,jsons/VE125_randls_6.json,http://54.235.29.9/FacialAge/BNav_EC2/DepthDuration/v2_depth_duration_MTurk/v2_DepthDuration_HTML.html#91,91,500,273,1366,768,9-4-2022,23-19-14,96,depth_duration_stimuli/001617_2014-06-20_11-35-32_260595134347_rgbf000066-resize_1/001617_2014-06-20_11-35-32_260595134347_rgbf000066-resize_1-target.png,125,3.7910000000000004,0,1488,118,meters,jsons/VE125_randls_6.json,391945,812411,35,Man
96,998883,DepthScenes,duration_manipulation_targetAtFixation,jsons/VE125_randls_6.json,http://54.235.29.9/FacialAge/BNav_EC2/DepthDuration/v2_depth_duration_MTurk/v2_DepthDuration_HTML.html#91,91,500,273,1366,768,9-4-2022,23-19-14,97,depth_duration_stimuli/002153_2014-06-25_21-27-18_260595134347_rgbf000038-resize_5/002153_2014-06-25_21-27-18_260595134347_rgbf000038-resize_5-target.png,125,2.505,0,1036,129,meters,jsons/VE125_randls_6.json,391945,812411,35,Man
97,998883,DepthScenes,duration_manipulation_targetAtFixation,jsons/VE125_randls_6.json,http://54.235.29.9/FacialAge/BNav_EC2/DepthDuration/v2_depth_duration_MTurk/v2_DepthDuration_HTML.html#91,91,500,273,1366,768,9-4-2022,23-19-14,98,depth_duration_stimuli/002660_2014-06-13_15-44-18_094959634447_rgbf001878-resize_2/002660_2014-06-13_15-44-18_094959634447_rgbf001878-resize_2-target.png,125,3.576,0,1044,129,meters,jsons/VE125_randls_6.json,391945,812411,35,Man
98,998883,DepthScenes,duration_manipulation_targetAtFixation,jsons/VE125_randls_6.json,http://54.235.29.9/FacialAge/BNav_EC2/DepthDuration/v2_depth_duration_MTurk/v2_DepthDuration_HTML.html#91,91,500,273,1366,768,9-4-2022,23-19-14,99,depth_duration_stimuli/001540_2014-06-20_17-01-05_260595134347_rgbf000086-resize_2/001540_2014-06-20_17-01-05_260595134347_rgbf000086-resize-original.jpg,125,1.459,0,21878,133,meters,jsons/VE125_randls_6.json,391945,812411,35,Man
99,998883,DepthScenes,duration_manipulation_targetAtFixation,jsons/VE125_randls_6.json,http://54.235.29.9/FacialAge/BNav_EC2/DepthDuration/v2_depth_duration_MTurk/v2_DepthDuration_HTML.html#91,91,500,273,1366,768,9-4-2022,23-19-14,100,depth_duration_stimuli/001055_2014-06-08_18-45-35_260595134347_rgbf000111-resize_4/001055_2014-06-08_18-45-35_260595134347_rgbf000111-resize_4-target.png,125,2.4290000000000003,0,1032,128,meters,jsons/VE125_randls_6.json,391945,812411,35,Man
100,998883,DepthScenes,duration_manipulation_targetAtFixation,jsons/VE125_randls_6.json,http://54.235.29.9/FacialAge/BNav_EC2/DepthDuration/v2_depth_duration_MTurk/v2_DepthDuration_HTML.html#91,91,500,273,1366,768,9-4-2022,23-19-14,101,depth_duration_stimuli/000549_2014-06-08_22-10-24_260595134347_rgbf000247-resize_3/000549_2014-06-08_22-10-24_260595134347_rgbf000247-resize_3-target.png,125,1.841,0,1652,118,meters,jsons/VE125_randls_6.json,391945,812411,35,Man
101,998883,DepthScenes,duration_manipulation_targetAtFixation,jsons/VE125_randls_6.json,http://54.235.29.9/FacialAge/BNav_EC2/DepthDuration/v2_depth_duration_MTurk/v2_DepthDuration_HTML.html#91,91,500,273,1366,768,9-4-2022,23-19-14,102,depth_duration_stimuli/000470_2014-06-09_19-42-40_260595134347_rgbf000094-resize_1/000470_2014-06-09_19-42-40_260595134347_rgbf000094-resize_1-target.png,125,1.831,0,1454,119,meters,jsons/VE125_randls_6.json,391945,812411,35,Man
102,998883,DepthScenes,duration_manipulation_targetAtFixation,jsons/VE125_randls_6.json,http://54.235.29.9/FacialAge/BNav_EC2/DepthDuration/v2_depth_duration_MTurk/v2_DepthDuration_HTML.html#91,91,500,273,1366,768,9-4-2022,23-19-14,103,depth_duration_stimuli/000109_2014-05-14_23-41-52_260595134347_rgbf000035-resize_9/000109_2014-05-14_23-41-52_260595134347_rgbf000035-resize_9-target.png,125,1.3545,0,1279,120,meters,jsons/VE125_randls_6.json,391945,812411,35,Man
103,998883,DepthScenes,duration_manipulation_targetAtFixation,jsons/VE125_randls_6.json,http://54.235.29.9/FacialAge/BNav_EC2/DepthDuration/v2_depth_duration_MTurk/v2_DepthDuration_HTML.html#91,91,500,273,1366,768,9-4-2022,23-19-14,104,depth_duration_stimuli/000469_2014-06-09_19-42-10_260595134347_rgbf000081-resize_1/000469_2014-06-09_19-42-10_260595134347_rgbf000081-resize_1-target.png,125,1.652,0,1111,119,meters,jsons/VE125_randls_6.json,391945,812411,35,Man
104,998883,DepthScenes,duration_manipulation_targetAtFixation,jsons/VE125_randls_6.json,http://54.235.29.9/FacialAge/BNav_EC2/DepthDuration/v2_depth_duration_MTurk/v2_DepthDuration_HTML.html#91,91,500,273,1366,768,9-4-2022,23-19-14,105,depth_duration_stimuli/000483_2014-06-09_20-41-45_260595134347_rgbf000116-resize_4/000483_2014-06-09_20-41-45_260595134347_rgbf000116-resize_4-target.png,125,1.337,0,1561,118,meters,jsons/VE125_randls_6.json,391945,812411,35,Man
105,998883,DepthScenes,duration_manipulation_targetAtFixation,jsons/VE125_randls_6.json,http://54.235.29.9/FacialAge/BNav_EC2/DepthDuration/v2_depth_duration_MTurk/v2_DepthDuration_HTML.html#91,91,500,273,1366,768,9-4-2022,23-19-14,106,depth_duration_stimuli/001164_2014-06-17_15-35-46_260595134347_rgbf000085-resize_3/001164_2014-06-17_15-35-46_260595134347_rgbf000085-resize_3-target.png,125,2.354,0,1122,119,meters,jsons/VE125_randls_6.json,391945,812411,35,Man
106,998883,DepthScenes,duration_manipulation_targetAtFixation,jsons/VE125_randls_6.json,http://54.235.29.9/FacialAge/BNav_EC2/DepthDuration/v2_depth_duration_MTurk/v2_DepthDuration_HTML.html#91,91,500,273,1366,768,9-4-2022,23-19-14,107,depth_duration_stimuli/001136_2014-06-17_15-19-41_260595134347_rgbf000076-resize_3/001136_2014-06-17_15-19-41_260595134347_rgbf000076-resize_3-target.png,125,1.8655,0,1141,117,meters,jsons/VE125_randls_6.json,391945,812411,35,Man
107,998883,DepthScenes,duration_manipulation_targetAtFixation,jsons/VE125_randls_6.json,http://54.235.29.9/FacialAge/BNav_EC2/DepthDuration/v2_depth_duration_MTurk/v2_DepthDuration_HTML.html#91,91,500,273,1366,768,9-4-2022,23-19-14,108,depth_duration_stimuli/003292_2014-05-14_21-53-49_094959634447_rgbf000100-resize_2/003292_2014-05-14_21-53-49_094959634447_rgbf000100-resize_2-target.png,125,3.4815,0,1163,119,meters,jsons/VE125_randls_6.json,391945,812411,35,Man
108,998883,DepthScenes,duration_manipulation_targetAtFixation,jsons/VE125_randls_6.json,http://54.235.29.9/FacialAge/BNav_EC2/DepthDuration/v2_depth_duration_MTurk/v2_DepthDuration_HTML.html#91,91,500,273,1366,768,9-4-2022,23-19-14,109,depth_duration_stimuli/002639_2014-06-24_14-51-37_094959634447_rgbf000074-resize_4/002639_2014-06-24_14-51-37_094959634447_rgbf000074-resize_4-target.png,125,4.0375,0,1172,129,meters,jsons/VE125_randls_6.json,391945,812411,35,Man
109,998883,DepthScenes,duration_manipulation_targetAtFixation,jsons/VE125_randls_6.json,http://54.235.29.9/FacialAge/BNav_EC2/DepthDuration/v2_depth_duration_MTurk/v2_DepthDuration_HTML.html#91,91,500,273,1366,768,9-4-2022,23-19-14,110,depth_duration_stimuli/002725_2014-06-22_11-47-51_094959634447_rgbf000070-resize_1/002725_2014-06-22_11-47-51_094959634447_rgbf000070-resize_1-target.png,125,2.195,0,1184,119,meters,jsons/VE125_randls_6.json,391945,812411,35,Man
110,998883,DepthScenes,duration_manipulation_targetAtFixation,jsons/VE125_randls_6.json,http://54.235.29.9/FacialAge/BNav_EC2/DepthDuration/v2_depth_duration_MTurk/v2_DepthDuration_HTML.html#91,91,500,273,1366,768,9-4-2022,23-19-14,111,depth_duration_stimuli/002344_2014-06-28_20-06-29_260595134347_rgbf000030-resize_1/002344_2014-06-28_20-06-29_260595134347_rgbf000030-resize_1-target.png,125,1.5795,0,1158,129,meters,jsons/VE125_randls_6.json,391945,812411,35,Man
111,998883,DepthScenes,duration_manipulation_targetAtFixation,jsons/VE125_randls_6.json,http://54.235.29.9/FacialAge/BNav_EC2/DepthDuration/v2_depth_duration_MTurk/v2_DepthDuration_HTML.html#91,91,500,273,1366,768,9-4-2022,23-19-14,112,depth_duration_stimuli/000929_2014-06-09_16-33-19_260595134347_rgbf000139-resize_0/000929_2014-06-09_16-33-19_260595134347_rgbf000139-resize_0-target.png,125,2.8680000000000003,0,1252,128,meters,jsons/VE125_randls_6.json,391945,812411,35,Man
112,998883,DepthScenes,duration_manipulation_targetAtFixation,jsons/VE125_randls_6.json,http://54.235.29.9/FacialAge/BNav_EC2/DepthDuration/v2_depth_duration_MTurk/v2_DepthDuration_HTML.html#91,91,500,273,1366,768,9-4-2022,23-19-14,113,depth_duration_stimuli/000457_2014-06-08_16-52-43_260595134347_rgbf000199-resize_1/000457_2014-06-08_16-52-43_260595134347_rgbf000199-resize_1-target.png,125,3.6489999999999996,0,2971,118,meters,jsons/VE125_randls_6.json,391945,812411,35,Man
113,998883,DepthScenes,duration_manipulation_targetAtFixation,jsons/VE125_randls_6.json,http://54.235.29.9/FacialAge/BNav_EC2/DepthDuration/v2_depth_duration_MTurk/v2_DepthDuration_HTML.html#91,91,500,273,1366,768,9-4-2022,23-19-14,114,depth_duration_stimuli/002279_2014-06-28_18-55-32_260595134347_rgbf000040-resize_5/002279_2014-06-28_18-55-32_260595134347_rgbf000040-resize_5-target.png,125,1.5043333333333,0,1185,119,meters,jsons/VE125_randls_6.json,391945,812411,35,Man
114,998883,DepthScenes,duration_manipulation_targetAtFixation,jsons/VE125_randls_6.json,http://54.235.29.9/FacialAge/BNav_EC2/DepthDuration/v2_depth_duration_MTurk/v2_DepthDuration_HTML.html#91,91,500,273,1366,768,9-4-2022,23-19-14,115,depth_duration_stimuli/000635_2014-06-08_16-38-42_260595134347_rgbf000106-resize_1/000635_2014-06-08_16-38-42_260595134347_rgbf000106-resize_1-target.png,125,2.074,0,1167,129,meters,jsons/VE125_randls_6.json,391945,812411,35,Man
115,998883,DepthScenes,duration_manipulation_targetAtFixation,jsons/VE125_randls_6.json,http://54.235.29.9/FacialAge/BNav_EC2/DepthDuration/v2_depth_duration_MTurk/v2_DepthDuration_HTML.html#91,91,500,273,1366,768,9-4-2022,23-19-14,116,depth_duration_stimuli/001170_2014-06-17_15-43-44_260595134347_rgbf000096-resize_6/001170_2014-06-17_15-43-44_260595134347_rgbf000096-resize-original.jpg,125,1.1909999999999998,0,1154,128,meters,jsons/VE125_randls_6.json,391945,812411,35,Man
116,998883,DepthScenes,duration_manipulation_targetAtFixation,jsons/VE125_randls_6.json,http://54.235.29.9/FacialAge/BNav_EC2/DepthDuration/v2_depth_duration_MTurk/v2_DepthDuration_HTML.html#91,91,500,273,1366,768,9-4-2022,23-19-14,117,depth_duration_stimuli/000692_2014-06-08_13-09-42_260595134347_rgbf000199-resize_2/000692_2014-06-08_13-09-42_260595134347_rgbf000199-resize_2-target.png,125,3.661,0,1101,128,meters,jsons/VE125_randls_6.json,391945,812411,35,Man
117,998883,DepthScenes,duration_manipulation_targetAtFixation,jsons/VE125_randls_6.json,http://54.235.29.9/FacialAge/BNav_EC2/DepthDuration/v2_depth_duration_MTurk/v2_DepthDuration_HTML.html#91,91,500,273,1366,768,9-4-2022,23-19-14,118,depth_duration_stimuli/001094_2014-06-15_17-36-00_260595134347_rgbf000205-resize_0/001094_2014-06-15_17-36-00_260595134347_rgbf000205-resize_0-target.png,125,4.2175,0,1105,119,meters,jsons/VE125_randls_6.json,391945,812411,35,Man
118,998883,DepthScenes,duration_manipulation_targetAtFixation,jsons/VE125_randls_6.json,http://54.235.29.9/FacialAge/BNav_EC2/DepthDuration/v2_depth_duration_MTurk/v2_DepthDuration_HTML.html#91,91,500,273,1366,768,9-4-2022,23-19-14,119,depth_duration_stimuli/001199_2014-06-17_16-03-48_260595134347_rgbf000077-resize_0/001199_2014-06-17_16-03-48_260595134347_rgbf000077-resize_0-target.png,125,3.4375,0,1138,129,meters,jsons/VE125_randls_6.json,391945,812411,35,Man
119,998883,DepthScenes,duration_manipulation_targetAtFixation,jsons/VE125_randls_6.json,http://54.235.29.9/FacialAge/BNav_EC2/DepthDuration/v2_depth_duration_MTurk/v2_DepthDuration_HTML.html#91,91,500,273,1366,768,9-4-2022,23-19-14,120,depth_duration_stimuli/000502_2014-06-08_23-02-32_260595134347_rgbf000063-resize_4/000502_2014-06-08_23-02-32_260595134347_rgbf000063-resize_4-target.png,125,2.431,0,1171,119,meters,jsons/VE125_randls_6.json,391945,812411,35,Man
120,998883,DepthScenes,duration_manipulation_targetAtFixation,jsons/VE125_randls_6.json,http://54.235.29.9/FacialAge/BNav_EC2/DepthDuration/v2_depth_duration_MTurk/v2_DepthDuration_HTML.html#91,91,500,273,1366,768,9-4-2022,23-19-14,121,depth_duration_stimuli/002788_2014-06-22_19-36-03_094959634447_rgbf000088-resize_2/002788_2014-06-22_19-36-03_094959634447_rgbf000088-resize_2-target.png,125,1.6465,0,1167,118,meters,jsons/VE125_randls_6.json,391945,812411,35,Man
121,998883,DepthScenes,duration_manipulation_targetAtFixation,jsons/VE125_randls_6.json,http://54.235.29.9/FacialAge/BNav_EC2/DepthDuration/v2_depth_duration_MTurk/v2_DepthDuration_HTML.html#91,91,500,273,1366,768,9-4-2022,23-19-14,122,depth_duration_stimuli/000749_2014-06-08_21-55-06_260595134347_rgbf000070-resize_2/000749_2014-06-08_21-55-06_260595134347_rgbf000070-resize_2-target.png,125,2.331,0,1121,128,meters,jsons/VE125_randls_6.json,391945,812411,35,Man
122,998883,DepthScenes,duration_manipulation_targetAtFixation,jsons/VE125_randls_6.json,http://54.235.29.9/FacialAge/BNav_EC2/DepthDuration/v2_depth_duration_MTurk/v2_DepthDuration_HTML.html#91,91,500,273,1366,768,9-4-2022,23-19-14,123,depth_duration_stimuli/001092_2014-06-15_17-34-58_260595134347_rgbf000171-resize_3/001092_2014-06-15_17-34-58_260595134347_rgbf000171-resize_3-target.png,125,2.6935,0,1175,118,meters,jsons/VE125_randls_6.json,391945,812411,35,Man
123,998883,DepthScenes,duration_manipulation_targetAtFixation,jsons/VE125_randls_6.json,http://54.235.29.9/FacialAge/BNav_EC2/DepthDuration/v2_depth_duration_MTurk/v2_DepthDuration_HTML.html#91,91,500,273,1366,768,9-4-2022,23-19-14,124,depth_duration_stimuli/002545_2014-06-24_13-38-53_094959634447_rgbf000080-resize_4/002545_2014-06-24_13-38-53_094959634447_rgbf000080-resize_4-target.png,125,1.9205,0,1195,128,meters,jsons/VE125_randls_6.json,391945,812411,35,Man
124,998883,DepthScenes,duration_manipulation_targetAtFixation,jsons/VE125_randls_6.json,http://54.235.29.9/FacialAge/BNav_EC2/DepthDuration/v2_depth_duration_MTurk/v2_DepthDuration_HTML.html#91,91,500,273,1366,768,9-4-2022,23-19-14,125,depth_duration_stimuli/002989_2014-06-15_12-25-03_094959634447_rgbf000150-resize_3/002989_2014-06-15_12-25-03_094959634447_rgbf000150-resize_3-target.png,125,4.1975,0,1119,129,meters,jsons/VE125_randls_6.json,391945,812411,35,Man
125,998883,DepthScenes,duration_manipulation_targetAtFixation,jsons/VE125_randls_6.json,http://54.235.29.9/FacialAge/BNav_EC2/DepthDuration/v2_depth_duration_MTurk/v2_DepthDuration_HTML.html#91,91,500,273,1366,768,9-4-2022,23-19-14,126,depth_duration_stimuli/000866_2014-06-09_20-45-42_260595134347_rgbf000139-resize_1/000866_2014-06-09_20-45-42_260595134347_rgbf000139-resize_1-target.png,125,3.2155,0,1152,118,meters,jsons/VE125_randls_6.json,391945,812411,35,Man
126,998883,DepthScenes,duration_manipulation_targetAtFixation,jsons/VE125_randls_6.json,http://54.235.29.9/FacialAge/BNav_EC2/DepthDuration/v2_depth_duration_MTurk/v2_DepthDuration_HTML.html#91,91,500,273,1366,768,9-4-2022,23-19-14,127,depth_duration_stimuli/000878_2014-06-08_22-52-45_260595134347_rgbf000045-resize_2/000878_2014-06-08_22-52-45_260595134347_rgbf000045-resize_2-target.png,125,2.092,0,1120,119,meters,jsons/VE125_randls_6.json,391945,812411,35,Man
127,998883,DepthScenes,duration_manipulation_targetAtFixation,jsons/VE125_randls_6.json,http://54.235.29.9/FacialAge/BNav_EC2/DepthDuration/v2_depth_duration_MTurk/v2_DepthDuration_HTML.html#91,91,500,273,1366,768,9-4-2022,23-19-14,128,depth_duration_stimuli/002953_2014-06-08_17-32-18_094959634447_rgbf000059-resize_5/002953_2014-06-08_17-32-18_094959634447_rgbf000059-resize_5-target.png,125,1.551,0,1145,118,meters,jsons/VE125_randls_6.json,391945,812411,35,Man
128,998883,DepthScenes,duration_manipulation_targetAtFixation,jsons/VE125_randls_6.json,http://54.235.29.9/FacialAge/BNav_EC2/DepthDuration/v2_depth_duration_MTurk/v2_DepthDuration_HTML.html#91,91,500,273,1366,768,9-4-2022,23-19-14,129,depth_duration_stimuli/000447_2014-06-08_16-15-46_260595134347_rgbf000130-resize_1/000447_2014-06-08_16-15-46_260595134347_rgbf000130-resize_1-target.png,125,4.479,0,1612,129,meters,jsons/VE125_randls_6.json,391945,812411,35,Man
129,998883,DepthScenes,duration_manipulation_targetAtFixation,jsons/VE125_randls_6.json,http://54.235.29.9/FacialAge/BNav_EC2/DepthDuration/v2_depth_duration_MTurk/v2_DepthDuration_HTML.html#91,91,500,273,1366,768,9-4-2022,23-19-14,130,depth_duration_stimuli/001447_2014-06-19_17-00-32_260595134347_rgbf000082-resize_5/001447_2014-06-19_17-00-32_260595134347_rgbf000082-resize_5-target.png,125,4.13775,0,1124,119,meters,jsons/VE125_randls_6.json,391945,812411,35,Man
130,998883,DepthScenes,duration_manipulation_targetAtFixation,jsons/VE125_randls_6.json,http://54.235.29.9/FacialAge/BNav_EC2/DepthDuration/v2_depth_duration_MTurk/v2_DepthDuration_HTML.html#91,91,500,273,1366,768,9-4-2022,23-19-14,131,depth_duration_stimuli/000493_2014-06-09_21-01-18_260595134347_rgbf000196-resize_3/000493_2014-06-09_21-01-18_260595134347_rgbf000196-resize_3-target.png,125,3.44,0,1326,128,meters,jsons/VE125_randls_6.json,391945,812411,35,Man
131,998883,DepthScenes,duration_manipulation_targetAtFixation,jsons/VE125_randls_6.json,http://54.235.29.9/FacialAge/BNav_EC2/DepthDuration/v2_depth_duration_MTurk/v2_DepthDuration_HTML.html#91,91,500,273,1366,768,9-4-2022,23-19-14,132,depth_duration_stimuli/000191_2014-05-12_17-07-38_260595134347_rgbf000199-resize_0/000191_2014-05-12_17-07-38_260595134347_rgbf000199-resize_0-target.png,125,3.7995,0,1187,128,meters,jsons/VE125_randls_6.json,391945,812411,35,Man
132,998883,DepthScenes,duration_manipulation_targetAtFixation,jsons/VE125_randls_6.json,http://54.235.29.9/FacialAge/BNav_EC2/DepthDuration/v2_depth_duration_MTurk/v2_DepthDuration_HTML.html#91,91,500,273,1366,768,9-4-2022,23-19-14,133,depth_duration_stimuli/001059_2014-06-08_21-53-27_260595134347_rgbf000061-resize_4/001059_2014-06-08_21-53-27_260595134347_rgbf000061-resize_4-target.png,125,2.4185,0,1057,128,meters,jsons/VE125_randls_6.json,391945,812411,35,Man
133,998883,DepthScenes,duration_manipulation_targetAtFixation,jsons/VE125_randls_6.json,http://54.235.29.9/FacialAge/BNav_EC2/DepthDuration/v2_depth_duration_MTurk/v2_DepthDuration_HTML.html#91,91,500,273,1366,768,9-4-2022,23-19-14,134,depth_duration_stimuli/001032_2014-06-08_13-23-17_260595134347_rgbf000021-resize_3/001032_2014-06-08_13-23-17_260595134347_rgbf000021-resize_3-target.png,125,3.2725,0,1105,128,meters,jsons/VE125_randls_6.json,391945,812411,35,Man
134,998883,DepthScenes,duration_manipulation_targetAtFixation,jsons/VE125_randls_6.json,http://54.235.29.9/FacialAge/BNav_EC2/DepthDuration/v2_depth_duration_MTurk/v2_DepthDuration_HTML.html#91,91,500,273,1366,768,9-4-2022,23-19-14,135,depth_duration_stimuli/002072_2014-06-24_21-48-06_260595134347_rgbf000115-resize_0/002072_2014-06-24_21-48-06_260595134347_rgbf000115-resize-original.jpg,125,4.702,0,1046,127,meters,jsons/VE125_randls_6.json,391945,812411,35,Man
135,998883,DepthScenes,duration_manipulation_targetAtFixation,jsons/VE125_randls_6.json,http://54.235.29.9/FacialAge/BNav_EC2/DepthDuration/v2_depth_duration_MTurk/v2_DepthDuration_HTML.html#91,91,500,273,1366,768,9-4-2022,23-19-14,136,depth_duration_stimuli/001066_2014-06-08_22-03-20_260595134347_rgbf000066-resize_4/001066_2014-06-08_22-03-20_260595134347_rgbf000066-resize_4-target.png,125,4.2330000000000005,0,1105,128,meters,jsons/VE125_randls_6.json,391945,812411,35,Man
136,998883,DepthScenes,duration_manipulation_targetAtFixation,jsons/VE125_randls_6.json,http://54.235.29.9/FacialAge/BNav_EC2/DepthDuration/v2_depth_duration_MTurk/v2_DepthDuration_HTML.html#91,91,500,273,1366,768,9-4-2022,23-19-14,137,depth_duration_stimuli/000742_2014-06-08_18-48-09_260595134347_rgbf000164-resize_4/000742_2014-06-08_18-48-09_260595134347_rgbf000164-resize_4-target.png,125,4.632,0,1069,129,meters,jsons/VE125_randls_6.json,391945,812411,35,Man
137,998883,DepthScenes,duration_manipulation_targetAtFixation,jsons/VE125_randls_6.json,http://54.235.29.9/FacialAge/BNav_EC2/DepthDuration/v2_depth_duration_MTurk/v2_DepthDuration_HTML.html#91,91,500,273,1366,768,9-4-2022,23-19-14,138,depth_duration_stimuli/001056_2014-06-08_18-46-44_260595134347_rgbf000068-resize_0/001056_2014-06-08_18-46-44_260595134347_rgbf000068-resize_0-target.png,125,2.6625,0,1035,119,meters,jsons/VE125_randls_6.json,391945,812411,35,Man
138,998883,DepthScenes,duration_manipulation_targetAtFixation,jsons/VE125_randls_6.json,http://54.235.29.9/FacialAge/BNav_EC2/DepthDuration/v2_depth_duration_MTurk/v2_DepthDuration_HTML.html#91,91,500,273,1366,768,9-4-2022,23-19-14,139,depth_duration_stimuli/002199_2014-06-28_18-33-56_260595134347_rgbf000074-resize_0/002199_2014-06-28_18-33-56_260595134347_rgbf000074-resize_0-target.png,125,1.996,0,1055,128,meters,jsons/VE125_randls_6.json,391945,812411,35,Man
139,998883,DepthScenes,duration_manipulation_targetAtFixation,jsons/VE125_randls_6.json,http://54.235.29.9/FacialAge/BNav_EC2/DepthDuration/v2_depth_duration_MTurk/v2_DepthDuration_HTML.html#91,91,500,273,1366,768,9-4-2022,23-19-14,140,depth_duration_stimuli/000436_2014-06-09_22-25-11_260595134347_rgbf000137-resize_1/000436_2014-06-09_22-25-11_260595134347_rgbf000137-resize_1-target.png,125,4.0705,0,1038,129,meters,jsons/VE125_randls_6.json,391945,812411,35,Man
140,998883,DepthScenes,duration_manipulation_targetAtFixation,jsons/VE125_randls_6.json,http://54.235.29.9/FacialAge/BNav_EC2/DepthDuration/v2_depth_duration_MTurk/v2_DepthDuration_HTML.html#91,91,500,273,1366,768,9-4-2022,23-19-14,141,depth_duration_stimuli/002444_2014-06-28_20-32-08_260595134347_rgbf000027-resize_0/002444_2014-06-28_20-32-08_260595134347_rgbf000027-resize_0-target.png,125,4.388999999999999,0,1019,118,meters,jsons/VE125_randls_6.json,391945,812411,35,Man
141,998883,DepthScenes,duration_manipulation_targetAtFixation,jsons/VE125_randls_6.json,http://54.235.29.9/FacialAge/BNav_EC2/DepthDuration/v2_depth_duration_MTurk/v2_DepthDuration_HTML.html#91,91,500,273,1366,768,9-4-2022,23-19-14,142,depth_duration_stimuli/001158_2014-06-17_15-32-16_260595134347_rgbf000138-resize_2/001158_2014-06-17_15-32-16_260595134347_rgbf000138-resize_2-target.png,125,4.5315,0,1092,118,meters,jsons/VE125_randls_6.json,391945,812411,35,Man
142,998883,DepthScenes,duration_manipulation_targetAtFixation,jsons/VE125_randls_6.json,http://54.235.29.9/FacialAge/BNav_EC2/DepthDuration/v2_depth_duration_MTurk/v2_DepthDuration_HTML.html#91,91,500,273,1366,768,9-4-2022,23-19-14,143,depth_duration_stimuli/000556_2014-06-09_22-42-56_260595134347_rgbf000214-resize_1/000556_2014-06-09_22-42-56_260595134347_rgbf000214-resize_1-target.png,125,4.8415,0,1040,118,meters,jsons/VE125_randls_6.json,391945,812411,35,Man
143,998883,DepthScenes,duration_manipulation_targetAtFixation,jsons/VE125_randls_6.json,http://54.235.29.9/FacialAge/BNav_EC2/DepthDuration/v2_depth_duration_MTurk/v2_DepthDuration_HTML.html#91,91,500,273,1366,768,9-4-2022,23-19-14,144,depth_duration_stimuli/001808_2014-06-26_20-50-58_260595134347_rgbf000029-resize_1/001808_2014-06-26_20-50-58_260595134347_rgbf000029-resize_1-target.png,125,4.249,0,1074,118,meters,jsons/VE125_randls_6.json,391945,812411,35,Man
144,998883,DepthScenes,duration_manipulation_targetAtFixation,jsons/VE125_randls_6.json,http://54.235.29.9/FacialAge/BNav_EC2/DepthDuration/v2_depth_duration_MTurk/v2_DepthDuration_HTML.html#91,91,500,273,1366,768,9-4-2022,23-19-14,145,depth_duration_stimuli/001815_2014-06-26_20-52-55_260595134347_rgbf000020-resize_0/001815_2014-06-26_20-52-55_260595134347_rgbf000020-resize_0-target.png,125,3.3865,0,1099,119,meters,jsons/VE125_randls_6.json,391945,812411,35,Man
145,998883,DepthScenes,duration_manipulation_targetAtFixation,jsons/VE125_randls_6.json,http://54.235.29.9/FacialAge/BNav_EC2/DepthDuration/v2_depth_duration_MTurk/v2_DepthDuration_HTML.html#91,91,500,273,1366,768,9-4-2022,23-19-14,146,depth_duration_stimuli/001498_2014-06-19_17-45-14_260595134347_rgbf000129-resize_4/001498_2014-06-19_17-45-14_260595134347_rgbf000129-resize-original.jpg,125,1.4075,0,1091,117,meters,jsons/VE125_randls_6.json,391945,812411,35,Man
146,998883,DepthScenes,duration_manipulation_targetAtFixation,jsons/VE125_randls_6.json,http://54.235.29.9/FacialAge/BNav_EC2/DepthDuration/v2_depth_duration_MTurk/v2_DepthDuration_HTML.html#91,91,500,273,1366,768,9-4-2022,23-19-14,147,depth_duration_stimuli/000682_2014-06-08_23-14-58_260595134347_rgbf000041-resize_5/000682_2014-06-08_23-14-58_260595134347_rgbf000041-resize_5-target.png,125,2.7239999999999998,0,1088,118,meters,jsons/VE125_randls_6.json,391945,812411,35,Man
147,998883,DepthScenes,duration_manipulation_targetAtFixation,jsons/VE125_randls_6.json,http://54.235.29.9/FacialAge/BNav_EC2/DepthDuration/v2_depth_duration_MTurk/v2_DepthDuration_HTML.html#91,91,500,273,1366,768,9-4-2022,23-19-14,148,depth_duration_stimuli/001650_2014-06-20_12-09-00_260595134347_rgbf000087-resize_3/001650_2014-06-20_12-09-00_260595134347_rgbf000087-resize_3-target.png,125,1.9505,0,1122,117,meters,jsons/VE125_randls_6.json,391945,812411,35,Man
148,998883,DepthScenes,duration_manipulation_targetAtFixation,jsons/VE125_randls_6.json,http://54.235.29.9/FacialAge/BNav_EC2/DepthDuration/v2_depth_duration_MTurk/v2_DepthDuration_HTML.html#91,91,500,273,1366,768,9-4-2022,23-19-14,149,depth_duration_stimuli/000758_2014-06-08_22-05-08_260595134347_rgbf000085-resize_0/000758_2014-06-08_22-05-08_260595134347_rgbf000085-resize_0-target.png,125,3.3810000000000002,0,1067,117,meters,jsons/VE125_randls_6.json,391945,812411,35,Man
149,998883,DepthScenes,duration_manipulation_targetAtFixation,jsons/VE125_randls_6.json,http://54.235.29.9/FacialAge/BNav_EC2/DepthDuration/v2_depth_duration_MTurk/v2_DepthDuration_HTML.html#91,91,500,273,1366,768,9-4-2022,23-19-14,150,depth_duration_stimuli/000854_2014-06-09_19-43-13_260595134347_rgbf000066-resize_0/000854_2014-06-09_19-43-13_260595134347_rgbf000066-resize_0-target.png,125,3.068,0,1067,128,meters,jsons/VE125_randls_6.json,391945,812411,35,Man
150,998883,DepthScenes,duration_manipulation_targetAtFixation,jsons/VE125_randls_6.json,http://54.235.29.9/FacialAge/BNav_EC2/DepthDuration/v2_depth_duration_MTurk/v2_DepthDuration_HTML.html#91,91,500,273,1366,768,9-4-2022,23-19-14,151,depth_duration_stimuli/002600_2014-06-24_14-27-04_094959634447_rgbf000074-resize_2/002600_2014-06-24_14-27-04_094959634447_rgbf000074-resize_2-target.png,125,2.7575,0,1037,129,meters,jsons/VE125_randls_6.json,391945,812411,35,Man
151,998883,DepthScenes,duration_manipulation_targetAtFixation,jsons/VE125_randls_6.json,http://54.235.29.9/FacialAge/BNav_EC2/DepthDuration/v2_depth_duration_MTurk/v2_DepthDuration_HTML.html#91,91,500,273,1366,768,9-4-2022,23-19-14,152,depth_duration_stimuli/003228_2014-05-14_13-42-35_094959634447_rgbf000101-resize_1/003228_2014-05-14_13-42-35_094959634447_rgbf000101-resize_1-target.png,125,1.9680000000000002,0,1097,117,meters,jsons/VE125_randls_6.json,391945,812411,35,Man
152,998883,DepthScenes,duration_manipulation_targetAtFixation,jsons/VE125_randls_6.json,http://54.235.29.9/FacialAge/BNav_EC2/DepthDuration/v2_depth_duration_MTurk/v2_DepthDuration_HTML.html#91,91,500,273,1366,768,9-4-2022,23-19-14,153,depth_duration_stimuli/001016_2014-06-09_16-16-10_260595134347_rgbf000112-resize_5/001016_2014-06-09_16-16-10_260595134347_rgbf000112-resize_5-target.png,125,1.6565,0,1103,128,meters,jsons/VE125_randls_6.json,391945,812411,35,Man
153,998883,DepthScenes,duration_manipulation_targetAtFixation,jsons/VE125_randls_6.json,http://54.235.29.9/FacialAge/BNav_EC2/DepthDuration/v2_depth_duration_MTurk/v2_DepthDuration_HTML.html#91,91,500,273,1366,768,9-4-2022,23-19-14,154,depth_duration_stimuli/002340_2014-06-28_20-05-46_260595134347_rgbf000113-resize_0/002340_2014-06-28_20-05-46_260595134347_rgbf000113-resize_0-target.png,125,2.4735,0,1104,119,meters,jsons/VE125_randls_6.json,391945,812411,35,Man
154,998883,DepthScenes,duration_manipulation_targetAtFixation,jsons/VE125_randls_6.json,http://54.235.29.9/FacialAge/BNav_EC2/DepthDuration/v2_depth_duration_MTurk/v2_DepthDuration_HTML.html#91,91,500,273,1366,768,9-4-2022,23-19-14,155,depth_duration_stimuli/002118_2014-06-25_20-32-08_260595134347_rgbf000078-resize_1/002118_2014-06-25_20-32-08_260595134347_rgbf000078-resize_1-target.png,125,2.6460000000000004,0,1121,128,meters,jsons/VE125_randls_6.json,391945,812411,35,Man
155,998883,DepthScenes,duration_manipulation_targetAtFixation,jsons/VE125_randls_6.json,http://54.235.29.9/FacialAge/BNav_EC2/DepthDuration/v2_depth_duration_MTurk/v2_DepthDuration_HTML.html#91,91,500,273,1366,768,9-4-2022,23-19-14,156,depth_duration_stimuli/001516_2014-06-20_16-25-09_260595134347_rgbf000076-resize_2/001516_2014-06-20_16-25-09_260595134347_rgbf000076-resize_2-target.png,125,1.7445,0,1123,119,meters,jsons/VE125_randls_6.json,391945,812411,35,Man
156,998883,DepthScenes,duration_manipulation_targetAtFixation,jsons/VE125_randls_6.json,http://54.235.29.9/FacialAge/BNav_EC2/DepthDuration/v2_depth_duration_MTurk/v2_DepthDuration_HTML.html#91,91,500,273,1366,768,9-4-2022,23-19-14,157,depth_duration_stimuli/001167_2014-06-17_15-38-07_260595134347_rgbf000108-resize_0/001167_2014-06-17_15-38-07_260595134347_rgbf000108-resize_0-target.png,125,1.8505,0,1103,119,meters,jsons/VE125_randls_6.json,391945,812411,35,Man
157,998883,DepthScenes,duration_manipulation_targetAtFixation,jsons/VE125_randls_6.json,http://54.235.29.9/FacialAge/BNav_EC2/DepthDuration/v2_depth_duration_MTurk/v2_DepthDuration_HTML.html#91,91,500,273,1366,768,9-4-2022,23-19-14,158,depth_duration_stimuli/003587_2014-05-23_16-48-02_094959634447_rgbf002384-resize_2/003587_2014-05-23_16-48-02_094959634447_rgbf002384-resize_2-target.png,125,1.357,0,1155,118,meters,jsons/VE125_randls_6.json,391945,812411,35,Man
158,998883,DepthScenes,duration_manipulation_targetAtFixation,jsons/VE125_randls_6.json,http://54.235.29.9/FacialAge/BNav_EC2/DepthDuration/v2_depth_duration_MTurk/v2_DepthDuration_HTML.html#91,91,500,273,1366,768,9-4-2022,23-19-14,159,depth_duration_stimuli/000486_2014-06-09_20-47-20_260595134347_rgbf000143-resize_2/000486_2014-06-09_20-47-20_260595134347_rgbf000143-resize_2-target.png,125,4.8325,0,1193,129,meters,jsons/VE125_randls_6.json,391945,812411,35,Man
159,998883,DepthScenes,duration_manipulation_targetAtFixation,jsons/VE125_randls_6.json,http://54.235.29.9/FacialAge/BNav_EC2/DepthDuration/v2_depth_duration_MTurk/v2_DepthDuration_HTML.html#91,91,500,273,1366,768,9-4-2022,23-19-14,160,depth_duration_stimuli/003083_2014-06-15_15-21-03_094959634447_rgbf000063-resize_1/003083_2014-06-15_15-21-03_094959634447_rgbf000063-resize_1-target.png,125,4.1405,0,1147,118,meters,jsons/VE125_randls_6.json,391945,812411,35,Man
160,998883,DepthScenes,duration_manipulation_targetAtFixation,jsons/VE125_randls_6.json,http://54.235.29.9/FacialAge/BNav_EC2/DepthDuration/v2_depth_duration_MTurk/v2_DepthDuration_HTML.html#91,91,500,273,1366,768,9-4-2022,23-19-14,161,depth_duration_stimuli/000522_2014-06-08_13-35-06_260595134347_rgbf000244-resize_1/000522_2014-06-08_13-35-06_260595134347_rgbf000244-resize_1-target.png,125,2.3715,0,1209,128,meters,jsons/VE125_randls_6.json,391945,812411,35,Man
161,998883,DepthScenes,duration_manipulation_targetAtFixation,jsons/VE125_randls_6.json,http://54.235.29.9/FacialAge/BNav_EC2/DepthDuration/v2_depth_duration_MTurk/v2_DepthDuration_HTML.html#91,91,500,273,1366,768,9-4-2022,23-19-14,162,depth_duration_stimuli/002949_2014-06-26_15-57-42_094959634447_rgbf000079-resize_1/002949_2014-06-26_15-57-42_094959634447_rgbf000079-resize_1-target.png,125,1.8915,0,1087,118,meters,jsons/VE125_randls_6.json,391945,812411,35,Man
162,998883,DepthScenes,duration_manipulation_targetAtFixation,jsons/VE125_randls_6.json,http://54.235.29.9/FacialAge/BNav_EC2/DepthDuration/v2_depth_duration_MTurk/v2_DepthDuration_HTML.html#91,91,500,273,1366,768,9-4-2022,23-19-14,163,depth_duration_stimuli/001133_2014-06-17_14-49-16_260595134347_rgbf000100-resize_0/001133_2014-06-17_14-49-16_260595134347_rgbf000100-resize_0-target.png,125,4.2115,0,1148,129,meters,jsons/VE125_randls_6.json,391945,812411,35,Man
163,998883,DepthScenes,duration_manipulation_targetAtFixation,jsons/VE125_randls_6.json,http://54.235.29.9/FacialAge/BNav_EC2/DepthDuration/v2_depth_duration_MTurk/v2_DepthDuration_HTML.html#91,91,500,273,1366,768,9-4-2022,23-19-14,164,depth_duration_stimuli/001132_2014-06-17_14-48-54_260595134347_rgbf000100-resize_2/001132_2014-06-17_14-48-54_260595134347_rgbf000100-resize_2-target.png,125,3.753,0,1090,127,meters,jsons/VE125_randls_6.json,391945,812411,35,Man
