,subjID,experimentName,versionName,sequenceName,url,selected_row,windowWidth,windowHeight,screenWidth,screenHeight,startDate,startTime,trial,stimulus,duration,actual_depth,depth_estimate,trial_RT,log_sceneDuration,unitSelection,seq_filepath,experimentTime,totalTime,age,gender
0,999948,DepthScenes,duration_manipulation_targetAtFixation,jsons/v1_VE1000_randls_44.json,http://54.235.29.9/FacialAge/BNav_EC2/DepthDuration/v2_depth_duration_MTurk/v2_DepthDuration_HTML.html#97,97,1366,768,1366,768,8-22-2022,6-58-51,1,depth_duration_stimuli/001110_2014-06-15_17-25-28_260595134347_rgbf000150-resize_1/001110_2014-06-15_17-25-28_260595134347_rgbf000150-resize_1-target.png,1000,1.7115,12,6402,1013,meters,jsons/v1_VE1000_randls_44.json,882926,1087977,27,Man
1,999948,DepthScenes,duration_manipulation_targetAtFixation,jsons/v1_VE1000_randls_44.json,http://54.235.29.9/FacialAge/BNav_EC2/DepthDuration/v2_depth_duration_MTurk/v2_DepthDuration_HTML.html#97,97,1366,768,1366,768,8-22-2022,6-58-51,2,depth_duration_stimuli/000927_2014-06-09_16-32-30_260595134347_rgbf000123-resize_3/000927_2014-06-09_16-32-30_260595134347_rgbf000123-resize_3-target.png,1000,2.6785,2,7906,989,meters,jsons/v1_VE1000_randls_44.json,882926,1087977,27,Man
2,999948,DepthScenes,duration_manipulation_targetAtFixation,jsons/v1_VE1000_randls_44.json,http://54.235.29.9/FacialAge/BNav_EC2/DepthDuration/v2_depth_duration_MTurk/v2_DepthDuration_HTML.html#97,97,1366,768,1366,768,8-22-2022,6-58-51,3,depth_duration_stimuli/000773_2014-06-08_22-24-54_260595134347_rgbf000093-resize_1/000773_2014-06-08_22-24-54_260595134347_rgbf000093-resize_1-target.png,1000,4.973,5,4154,987,meters,jsons/v1_VE1000_randls_44.json,882926,1087977,27,Man
3,999948,DepthScenes,duration_manipulation_targetAtFixation,jsons/v1_VE1000_randls_44.json,http://54.235.29.9/FacialAge/BNav_EC2/DepthDuration/v2_depth_duration_MTurk/v2_DepthDuration_HTML.html#97,97,1366,768,1366,768,8-22-2022,6-58-51,4,depth_duration_stimuli/002414_2014-06-28_20-24-58_260595134347_rgbf000067-resize_4/002414_2014-06-28_20-24-58_260595134347_rgbf000067-resize_4-target.png,1000,4.363,4,4337,995,meters,jsons/v1_VE1000_randls_44.json,882926,1087977,27,Man
4,999948,DepthScenes,duration_manipulation_targetAtFixation,jsons/v1_VE1000_randls_44.json,http://54.235.29.9/FacialAge/BNav_EC2/DepthDuration/v2_depth_duration_MTurk/v2_DepthDuration_HTML.html#97,97,1366,768,1366,768,8-22-2022,6-58-51,5,depth_duration_stimuli/000009_2014-05-26_14-32-05_260595134347_rgbf000034-resize_3/000009_2014-05-26_14-32-05_260595134347_rgbf000034-resize_3-target.png,1000,3.8715,3,4442,1002,meters,jsons/v1_VE1000_randls_44.json,882926,1087977,27,Man
5,999948,DepthScenes,duration_manipulation_targetAtFixation,jsons/v1_VE1000_randls_44.json,http://54.235.29.9/FacialAge/BNav_EC2/DepthDuration/v2_depth_duration_MTurk/v2_DepthDuration_HTML.html#97,97,1366,768,1366,768,8-22-2022,6-58-51,6,depth_duration_stimuli/001828_2014-06-26_21-40-03_260595134347_rgbf000024-resize_0/001828_2014-06-26_21-40-03_260595134347_rgbf000024-resize_0-target.png,1000,4.8260000000000005,8,4477,1000,meters,jsons/v1_VE1000_randls_44.json,882926,1087977,27,Man
6,999948,DepthScenes,duration_manipulation_targetAtFixation,jsons/v1_VE1000_randls_44.json,http://54.235.29.9/FacialAge/BNav_EC2/DepthDuration/v2_depth_duration_MTurk/v2_DepthDuration_HTML.html#97,97,1366,768,1366,768,8-22-2022,6-58-51,7,depth_duration_stimuli/002570_2014-06-24_13-59-54_094959634447_rgbf000059-resize_0/002570_2014-06-24_13-59-54_094959634447_rgbf000059-resize_0-target.png,1000,4.037,5,5780,994,meters,jsons/v1_VE1000_randls_44.json,882926,1087977,27,Man
7,999948,DepthScenes,duration_manipulation_targetAtFixation,jsons/v1_VE1000_randls_44.json,http://54.235.29.9/FacialAge/BNav_EC2/DepthDuration/v2_depth_duration_MTurk/v2_DepthDuration_HTML.html#97,97,1366,768,1366,768,8-22-2022,6-58-51,8,depth_duration_stimuli/002467_2014-06-28_20-38-07_260595134347_rgbf000026-resize_2/002467_2014-06-28_20-38-07_260595134347_rgbf000026-resize_2-target.png,1000,4.742,8,5308,1007,meters,jsons/v1_VE1000_randls_44.json,882926,1087977,27,Man
8,999948,DepthScenes,duration_manipulation_targetAtFixation,jsons/v1_VE1000_randls_44.json,http://54.235.29.9/FacialAge/BNav_EC2/DepthDuration/v2_depth_duration_MTurk/v2_DepthDuration_HTML.html#97,97,1366,768,1366,768,8-22-2022,6-58-51,9,depth_duration_stimuli/002118_2014-06-25_20-32-08_260595134347_rgbf000078-resize_1/002118_2014-06-25_20-32-08_260595134347_rgbf000078-resize_1-target.png,1000,2.6460000000000004,5,5344,998,meters,jsons/v1_VE1000_randls_44.json,882926,1087977,27,Man
9,999948,DepthScenes,duration_manipulation_targetAtFixation,jsons/v1_VE1000_randls_44.json,http://54.235.29.9/FacialAge/BNav_EC2/DepthDuration/v2_depth_duration_MTurk/v2_DepthDuration_HTML.html#97,97,1366,768,1366,768,8-22-2022,6-58-51,10,depth_duration_stimuli/001516_2014-06-20_16-25-09_260595134347_rgbf000076-resize_2/001516_2014-06-20_16-25-09_260595134347_rgbf000076-resize_2-target.png,1000,1.7445,9,5834,1002,meters,jsons/v1_VE1000_randls_44.json,882926,1087977,27,Man
10,999948,DepthScenes,duration_manipulation_targetAtFixation,jsons/v1_VE1000_randls_44.json,http://54.235.29.9/FacialAge/BNav_EC2/DepthDuration/v2_depth_duration_MTurk/v2_DepthDuration_HTML.html#97,97,1366,768,1366,768,8-22-2022,6-58-51,11,depth_duration_stimuli/000810_2014-06-08_17-20-01_260595134347_rgbf000105-resize_0/000810_2014-06-08_17-20-01_260595134347_rgbf000105-resize_0-target.png,1000,1.4865,5,12454,998,meters,jsons/v1_VE1000_randls_44.json,882926,1087977,27,Man
11,999948,DepthScenes,duration_manipulation_targetAtFixation,jsons/v1_VE1000_randls_44.json,http://54.235.29.9/FacialAge/BNav_EC2/DepthDuration/v2_depth_duration_MTurk/v2_DepthDuration_HTML.html#97,97,1366,768,1366,768,8-22-2022,6-58-51,12,depth_duration_stimuli/001214_2014-06-17_16-13-55_260595134347_rgbf000111-resize_0/001214_2014-06-17_16-13-55_260595134347_rgbf000111-resize_0-target.png,1000,2.6505,4,5064,1007,meters,jsons/v1_VE1000_randls_44.json,882926,1087977,27,Man
12,999948,DepthScenes,duration_manipulation_targetAtFixation,jsons/v1_VE1000_randls_44.json,http://54.235.29.9/FacialAge/BNav_EC2/DepthDuration/v2_depth_duration_MTurk/v2_DepthDuration_HTML.html#97,97,1366,768,1366,768,8-22-2022,6-58-51,13,depth_duration_stimuli/000569_2014-06-09_22-51-47_260595134347_rgbf000141-resize_3/000569_2014-06-09_22-51-47_260595134347_rgbf000141-resize-original.jpg,1000,4.512,0,4304,997,meters,jsons/v1_VE1000_randls_44.json,882926,1087977,27,Man
13,999948,DepthScenes,duration_manipulation_targetAtFixation,jsons/v1_VE1000_randls_44.json,http://54.235.29.9/FacialAge/BNav_EC2/DepthDuration/v2_depth_duration_MTurk/v2_DepthDuration_HTML.html#97,97,1366,768,1366,768,8-22-2022,6-58-51,14,depth_duration_stimuli/000692_2014-06-08_13-09-42_260595134347_rgbf000199-resize_2/000692_2014-06-08_13-09-42_260595134347_rgbf000199-resize_2-target.png,1000,3.661,2,6002,986,meters,jsons/v1_VE1000_randls_44.json,882926,1087977,27,Man
14,999948,DepthScenes,duration_manipulation_targetAtFixation,jsons/v1_VE1000_randls_44.json,http://54.235.29.9/FacialAge/BNav_EC2/DepthDuration/v2_depth_duration_MTurk/v2_DepthDuration_HTML.html#97,97,1366,768,1366,768,8-22-2022,6-58-51,15,depth_duration_stimuli/001094_2014-06-15_17-36-00_260595134347_rgbf000205-resize_0/001094_2014-06-15_17-36-00_260595134347_rgbf000205-resize_0-target.png,1000,4.2175,5,4082,995,meters,jsons/v1_VE1000_randls_44.json,882926,1087977,27,Man
15,999948,DepthScenes,duration_manipulation_targetAtFixation,jsons/v1_VE1000_randls_44.json,http://54.235.29.9/FacialAge/BNav_EC2/DepthDuration/v2_depth_duration_MTurk/v2_DepthDuration_HTML.html#97,97,1366,768,1366,768,8-22-2022,6-58-51,16,depth_duration_stimuli/002445_2014-06-28_20-32-16_260595134347_rgbf000029-resize_4/002445_2014-06-28_20-32-16_260595134347_rgbf000029-resize_4-target.png,1000,2.5315,3,4543,999,meters,jsons/v1_VE1000_randls_44.json,882926,1087977,27,Man
16,999948,DepthScenes,duration_manipulation_targetAtFixation,jsons/v1_VE1000_randls_44.json,http://54.235.29.9/FacialAge/BNav_EC2/DepthDuration/v2_depth_duration_MTurk/v2_DepthDuration_HTML.html#97,97,1366,768,1366,768,8-22-2022,6-58-51,17,depth_duration_stimuli/000780_2014-06-08_22-28-29_260595134347_rgbf000126-resize_1/000780_2014-06-08_22-28-29_260595134347_rgbf000126-resize_1-target.png,1000,3.3825,5,4511,999,meters,jsons/v1_VE1000_randls_44.json,882926,1087977,27,Man
17,999948,DepthScenes,duration_manipulation_targetAtFixation,jsons/v1_VE1000_randls_44.json,http://54.235.29.9/FacialAge/BNav_EC2/DepthDuration/v2_depth_duration_MTurk/v2_DepthDuration_HTML.html#97,97,1366,768,1366,768,8-22-2022,6-58-51,18,depth_duration_stimuli/000470_2014-06-09_19-42-40_260595134347_rgbf000094-resize_1/000470_2014-06-09_19-42-40_260595134347_rgbf000094-resize_1-target.png,1000,1.831,6,3935,990,meters,jsons/v1_VE1000_randls_44.json,882926,1087977,27,Man
18,999948,DepthScenes,duration_manipulation_targetAtFixation,jsons/v1_VE1000_randls_44.json,http://54.235.29.9/FacialAge/BNav_EC2/DepthDuration/v2_depth_duration_MTurk/v2_DepthDuration_HTML.html#97,97,1366,768,1366,768,8-22-2022,6-58-51,19,depth_duration_stimuli/000109_2014-05-14_23-41-52_260595134347_rgbf000035-resize_9/000109_2014-05-14_23-41-52_260595134347_rgbf000035-resize_9-target.png,1000,1.3545,7,4055,977,meters,jsons/v1_VE1000_randls_44.json,882926,1087977,27,Man
19,999948,DepthScenes,duration_manipulation_targetAtFixation,jsons/v1_VE1000_randls_44.json,http://54.235.29.9/FacialAge/BNav_EC2/DepthDuration/v2_depth_duration_MTurk/v2_DepthDuration_HTML.html#97,97,1366,768,1366,768,8-22-2022,6-58-51,20,depth_duration_stimuli/002375_2014-06-28_20-13-44_260595134347_rgbf000032-resize_1/002375_2014-06-28_20-13-44_260595134347_rgbf000032-resize_1-target.png,1000,4.0175,5,3830,1001,meters,jsons/v1_VE1000_randls_44.json,882926,1087977,27,Man
20,999948,DepthScenes,duration_manipulation_targetAtFixation,jsons/v1_VE1000_randls_44.json,http://54.235.29.9/FacialAge/BNav_EC2/DepthDuration/v2_depth_duration_MTurk/v2_DepthDuration_HTML.html#97,97,1366,768,1366,768,8-22-2022,6-58-51,21,depth_duration_stimuli/002657_2014-06-13_15-29-54_094959634447_rgbf000150-resize_1/002657_2014-06-13_15-29-54_094959634447_rgbf000150-resize_1-target.png,1000,4.919,4,4336,999,meters,jsons/v1_VE1000_randls_44.json,882926,1087977,27,Man
21,999948,DepthScenes,duration_manipulation_targetAtFixation,jsons/v1_VE1000_randls_44.json,http://54.235.29.9/FacialAge/BNav_EC2/DepthDuration/v2_depth_duration_MTurk/v2_DepthDuration_HTML.html#97,97,1366,768,1366,768,8-22-2022,6-58-51,22,depth_duration_stimuli/002213_2014-06-28_18-37-58_260595134347_rgbf000055-resize_1/002213_2014-06-28_18-37-58_260595134347_rgbf000055-resize_1-target.png,1000,3.62,8,4083,999,meters,jsons/v1_VE1000_randls_44.json,882926,1087977,27,Man
22,999948,DepthScenes,duration_manipulation_targetAtFixation,jsons/v1_VE1000_randls_44.json,http://54.235.29.9/FacialAge/BNav_EC2/DepthDuration/v2_depth_duration_MTurk/v2_DepthDuration_HTML.html#97,97,1366,768,1366,768,8-22-2022,6-58-51,23,depth_duration_stimuli/000691_2014-06-08_13-08-50_260595134347_rgbf000132-resize_3/000691_2014-06-08_13-08-50_260595134347_rgbf000132-resize_3-target.png,1000,4.1530000000000005,4,4576,998,meters,jsons/v1_VE1000_randls_44.json,882926,1087977,27,Man
23,999948,DepthScenes,duration_manipulation_targetAtFixation,jsons/v1_VE1000_randls_44.json,http://54.235.29.9/FacialAge/BNav_EC2/DepthDuration/v2_depth_duration_MTurk/v2_DepthDuration_HTML.html#97,97,1366,768,1366,768,8-22-2022,6-58-51,24,depth_duration_stimuli/000642_2014-06-08_16-59-25_260595134347_rgbf000098-resize_2/000642_2014-06-08_16-59-25_260595134347_rgbf000098-resize_2-target.png,1000,2.8815,5,4638,994,meters,jsons/v1_VE1000_randls_44.json,882926,1087977,27,Man
24,999948,DepthScenes,duration_manipulation_targetAtFixation,jsons/v1_VE1000_randls_44.json,http://54.235.29.9/FacialAge/BNav_EC2/DepthDuration/v2_depth_duration_MTurk/v2_DepthDuration_HTML.html#97,97,1366,768,1366,768,8-22-2022,6-58-51,25,depth_duration_stimuli/002425_2014-06-28_20-27-29_260595134347_rgbf000031-resize_8/002425_2014-06-28_20-27-29_260595134347_rgbf000031-resize_8-target.png,1000,3.8960000000000004,6,4560,1011,meters,jsons/v1_VE1000_randls_44.json,882926,1087977,27,Man
25,999948,DepthScenes,duration_manipulation_targetAtFixation,jsons/v1_VE1000_randls_44.json,http://54.235.29.9/FacialAge/BNav_EC2/DepthDuration/v2_depth_duration_MTurk/v2_DepthDuration_HTML.html#97,97,1366,768,1366,768,8-22-2022,6-58-51,26,depth_duration_stimuli/001133_2014-06-17_14-49-16_260595134347_rgbf000100-resize_0/001133_2014-06-17_14-49-16_260595134347_rgbf000100-resize_0-target.png,1000,4.2115,4,4075,996,meters,jsons/v1_VE1000_randls_44.json,882926,1087977,27,Man
26,999948,DepthScenes,duration_manipulation_targetAtFixation,jsons/v1_VE1000_randls_44.json,http://54.235.29.9/FacialAge/BNav_EC2/DepthDuration/v2_depth_duration_MTurk/v2_DepthDuration_HTML.html#97,97,1366,768,1366,768,8-22-2022,6-58-51,27,depth_duration_stimuli/001132_2014-06-17_14-48-54_260595134347_rgbf000100-resize_2/001132_2014-06-17_14-48-54_260595134347_rgbf000100-resize_2-target.png,1000,3.753,8,7713,1006,meters,jsons/v1_VE1000_randls_44.json,882926,1087977,27,Man
27,999948,DepthScenes,duration_manipulation_targetAtFixation,jsons/v1_VE1000_randls_44.json,http://54.235.29.9/FacialAge/BNav_EC2/DepthDuration/v2_depth_duration_MTurk/v2_DepthDuration_HTML.html#97,97,1366,768,1366,768,8-22-2022,6-58-51,28,depth_duration_stimuli/001417_2014-06-19_16-25-36_260595134347_rgbf000115-resize_5/001417_2014-06-19_16-25-36_260595134347_rgbf000115-resize_5-target.png,1000,4.6255,4,4189,991,meters,jsons/v1_VE1000_randls_44.json,882926,1087977,27,Man
28,999948,DepthScenes,duration_manipulation_targetAtFixation,jsons/v1_VE1000_randls_44.json,http://54.235.29.9/FacialAge/BNav_EC2/DepthDuration/v2_depth_duration_MTurk/v2_DepthDuration_HTML.html#97,97,1366,768,1366,768,8-22-2022,6-58-51,29,depth_duration_stimuli/003081_2014-06-15_15-19-16_094959634447_rgbf000150-resize_1/003081_2014-06-15_15-19-16_094959634447_rgbf000150-resize_1-target.png,1000,3.9125,3,3991,996,meters,jsons/v1_VE1000_randls_44.json,882926,1087977,27,Man
29,999948,DepthScenes,duration_manipulation_targetAtFixation,jsons/v1_VE1000_randls_44.json,http://54.235.29.9/FacialAge/BNav_EC2/DepthDuration/v2_depth_duration_MTurk/v2_DepthDuration_HTML.html#97,97,1366,768,1366,768,8-22-2022,6-58-51,30,depth_duration_stimuli/000375_2014-06-08_11-17-29_260595134347_rgbf000133-resize_2/000375_2014-06-08_11-17-29_260595134347_rgbf000133-resize-original.jpg,1000,4.718,2,4196,1001,meters,jsons/v1_VE1000_randls_44.json,882926,1087977,27,Man
30,999948,DepthScenes,duration_manipulation_targetAtFixation,jsons/v1_VE1000_randls_44.json,http://54.235.29.9/FacialAge/BNav_EC2/DepthDuration/v2_depth_duration_MTurk/v2_DepthDuration_HTML.html#97,97,1366,768,1366,768,8-22-2022,6-58-51,31,depth_duration_stimuli/002279_2014-06-28_18-55-32_260595134347_rgbf000040-resize_5/002279_2014-06-28_18-55-32_260595134347_rgbf000040-resize_5-target.png,1000,1.5043333333333,1,4221,998,meters,jsons/v1_VE1000_randls_44.json,882926,1087977,27,Man
31,999948,DepthScenes,duration_manipulation_targetAtFixation,jsons/v1_VE1000_randls_44.json,http://54.235.29.9/FacialAge/BNav_EC2/DepthDuration/v2_depth_duration_MTurk/v2_DepthDuration_HTML.html#97,97,1366,768,1366,768,8-22-2022,6-58-51,32,depth_duration_stimuli/000635_2014-06-08_16-38-42_260595134347_rgbf000106-resize_1/000635_2014-06-08_16-38-42_260595134347_rgbf000106-resize_1-target.png,1000,2.074,8,4135,1001,meters,jsons/v1_VE1000_randls_44.json,882926,1087977,27,Man
32,999948,DepthScenes,duration_manipulation_targetAtFixation,jsons/v1_VE1000_randls_44.json,http://54.235.29.9/FacialAge/BNav_EC2/DepthDuration/v2_depth_duration_MTurk/v2_DepthDuration_HTML.html#97,97,1366,768,1366,768,8-22-2022,6-58-51,33,depth_duration_stimuli/000929_2014-06-09_16-33-19_260595134347_rgbf000139-resize_0/000929_2014-06-09_16-33-19_260595134347_rgbf000139-resize_0-target.png,1000,2.8680000000000003,5,44136,998,meters,jsons/v1_VE1000_randls_44.json,882926,1087977,27,Man
33,999948,DepthScenes,duration_manipulation_targetAtFixation,jsons/v1_VE1000_randls_44.json,http://54.235.29.9/FacialAge/BNav_EC2/DepthDuration/v2_depth_duration_MTurk/v2_DepthDuration_HTML.html#97,97,1366,768,1366,768,8-22-2022,6-58-51,34,depth_duration_stimuli/000457_2014-06-08_16-52-43_260595134347_rgbf000199-resize_1/000457_2014-06-08_16-52-43_260595134347_rgbf000199-resize_1-target.png,1000,3.6489999999999996,6,3974,1001,meters,jsons/v1_VE1000_randls_44.json,882926,1087977,27,Man
34,999948,DepthScenes,duration_manipulation_targetAtFixation,jsons/v1_VE1000_randls_44.json,http://54.235.29.9/FacialAge/BNav_EC2/DepthDuration/v2_depth_duration_MTurk/v2_DepthDuration_HTML.html#97,97,1366,768,1366,768,8-22-2022,6-58-51,35,depth_duration_stimuli/002039_2014-06-24_20-22-38_260595134347_rgbf000084-resize_1/002039_2014-06-24_20-22-38_260595134347_rgbf000084-resize_1-target.png,1000,4.408,5,4628,995,meters,jsons/v1_VE1000_randls_44.json,882926,1087977,27,Man
35,999948,DepthScenes,duration_manipulation_targetAtFixation,jsons/v1_VE1000_randls_44.json,http://54.235.29.9/FacialAge/BNav_EC2/DepthDuration/v2_depth_duration_MTurk/v2_DepthDuration_HTML.html#97,97,1366,768,1366,768,8-22-2022,6-58-51,36,depth_duration_stimuli/002103_2014-06-25_20-00-40_260595134347_rgbf000049-resize_0/002103_2014-06-25_20-00-40_260595134347_rgbf000049-resize_0-target.png,1000,4.105,8,4218,995,meters,jsons/v1_VE1000_randls_44.json,882926,1087977,27,Man
36,999948,DepthScenes,duration_manipulation_targetAtFixation,jsons/v1_VE1000_randls_44.json,http://54.235.29.9/FacialAge/BNav_EC2/DepthDuration/v2_depth_duration_MTurk/v2_DepthDuration_HTML.html#97,97,1366,768,1366,768,8-22-2022,6-58-51,37,depth_duration_stimuli/000739_2014-06-08_18-45-58_260595134347_rgbf000068-resize_1/000739_2014-06-08_18-45-58_260595134347_rgbf000068-resize_1-target.png,1000,3.534,6,3799,998,meters,jsons/v1_VE1000_randls_44.json,882926,1087977,27,Man
37,999948,DepthScenes,duration_manipulation_targetAtFixation,jsons/v1_VE1000_randls_44.json,http://54.235.29.9/FacialAge/BNav_EC2/DepthDuration/v2_depth_duration_MTurk/v2_DepthDuration_HTML.html#97,97,1366,768,1366,768,8-22-2022,6-58-51,38,depth_duration_stimuli/000734_2014-06-08_17-39-11_260595134347_rgbf000128-resize_2/000734_2014-06-08_17-39-11_260595134347_rgbf000128-resize_2-target.png,1000,4.098,9,3951,996,meters,jsons/v1_VE1000_randls_44.json,882926,1087977,27,Man
38,999948,DepthScenes,duration_manipulation_targetAtFixation,jsons/v1_VE1000_randls_44.json,http://54.235.29.9/FacialAge/BNav_EC2/DepthDuration/v2_depth_duration_MTurk/v2_DepthDuration_HTML.html#97,97,1366,768,1366,768,8-22-2022,6-58-51,39,depth_duration_stimuli/001175_2014-06-17_15-45-55_260595134347_rgbf000129-resize_4/001175_2014-06-17_15-45-55_260595134347_rgbf000129-resize_4-target.png,1000,4.255,10,4385,994,meters,jsons/v1_VE1000_randls_44.json,882926,1087977,27,Man
39,999948,DepthScenes,duration_manipulation_targetAtFixation,jsons/v1_VE1000_randls_44.json,http://54.235.29.9/FacialAge/BNav_EC2/DepthDuration/v2_depth_duration_MTurk/v2_DepthDuration_HTML.html#97,97,1366,768,1366,768,8-22-2022,6-58-51,40,depth_duration_stimuli/003490_2014-05-21_15-50-11_094959634447_rgbf000101-resize_3/003490_2014-05-21_15-50-11_094959634447_rgbf000101-resize_3-target.png,1000,3.6445,5,4923,996,meters,jsons/v1_VE1000_randls_44.json,882926,1087977,27,Man
40,999948,DepthScenes,duration_manipulation_targetAtFixation,jsons/v1_VE1000_randls_44.json,http://54.235.29.9/FacialAge/BNav_EC2/DepthDuration/v2_depth_duration_MTurk/v2_DepthDuration_HTML.html#97,97,1366,768,1366,768,8-22-2022,6-58-51,41,depth_duration_stimuli/002663_2014-06-13_15-50-26_094959634447_rgbf000075-resize_1/002663_2014-06-13_15-50-26_094959634447_rgbf000075-resize_1-target.png,1000,4.7495,8,4391,995,meters,jsons/v1_VE1000_randls_44.json,882926,1087977,27,Man
41,999948,DepthScenes,duration_manipulation_targetAtFixation,jsons/v1_VE1000_randls_44.json,http://54.235.29.9/FacialAge/BNav_EC2/DepthDuration/v2_depth_duration_MTurk/v2_DepthDuration_HTML.html#97,97,1366,768,1366,768,8-22-2022,6-58-51,42,depth_duration_stimuli/000409_2014-06-04_19-23-33_260595134347_rgbf000067-resize_0/000409_2014-06-04_19-23-33_260595134347_rgbf000067-resize_0-target.png,1000,3.7335,5,4232,994,meters,jsons/v1_VE1000_randls_44.json,882926,1087977,27,Man
42,999948,DepthScenes,duration_manipulation_targetAtFixation,jsons/v1_VE1000_randls_44.json,http://54.235.29.9/FacialAge/BNav_EC2/DepthDuration/v2_depth_duration_MTurk/v2_DepthDuration_HTML.html#97,97,1366,768,1366,768,8-22-2022,6-58-51,43,depth_duration_stimuli/001164_2014-06-17_15-35-46_260595134347_rgbf000085-resize_3/001164_2014-06-17_15-35-46_260595134347_rgbf000085-resize_3-target.png,1000,2.354,5,3944,1002,meters,jsons/v1_VE1000_randls_44.json,882926,1087977,27,Man
43,999948,DepthScenes,duration_manipulation_targetAtFixation,jsons/v1_VE1000_randls_44.json,http://54.235.29.9/FacialAge/BNav_EC2/DepthDuration/v2_depth_duration_MTurk/v2_DepthDuration_HTML.html#97,97,1366,768,1366,768,8-22-2022,6-58-51,44,depth_duration_stimuli/001136_2014-06-17_15-19-41_260595134347_rgbf000076-resize_3/001136_2014-06-17_15-19-41_260595134347_rgbf000076-resize_3-target.png,1000,1.8655,10,4401,997,meters,jsons/v1_VE1000_randls_44.json,882926,1087977,27,Man
44,999948,DepthScenes,duration_manipulation_targetAtFixation,jsons/v1_VE1000_randls_44.json,http://54.235.29.9/FacialAge/BNav_EC2/DepthDuration/v2_depth_duration_MTurk/v2_DepthDuration_HTML.html#97,97,1366,768,1366,768,8-22-2022,6-58-51,45,depth_duration_stimuli/000787_2014-06-08_22-33-53_260595134347_rgbf000175-resize_1/000787_2014-06-08_22-33-53_260595134347_rgbf000175-resize-original.jpg,1000,4.784,0,4078,992,meters,jsons/v1_VE1000_randls_44.json,882926,1087977,27,Man
45,999948,DepthScenes,duration_manipulation_targetAtFixation,jsons/v1_VE1000_randls_44.json,http://54.235.29.9/FacialAge/BNav_EC2/DepthDuration/v2_depth_duration_MTurk/v2_DepthDuration_HTML.html#97,97,1366,768,1366,768,8-22-2022,6-58-51,46,depth_duration_stimuli/000878_2014-06-08_22-52-45_260595134347_rgbf000045-resize_2/000878_2014-06-08_22-52-45_260595134347_rgbf000045-resize_2-target.png,1000,2.092,12,4454,1012,meters,jsons/v1_VE1000_randls_44.json,882926,1087977,27,Man
46,999948,DepthScenes,duration_manipulation_targetAtFixation,jsons/v1_VE1000_randls_44.json,http://54.235.29.9/FacialAge/BNav_EC2/DepthDuration/v2_depth_duration_MTurk/v2_DepthDuration_HTML.html#97,97,1366,768,1366,768,8-22-2022,6-58-51,47,depth_duration_stimuli/002953_2014-06-08_17-32-18_094959634447_rgbf000059-resize_5/002953_2014-06-08_17-32-18_094959634447_rgbf000059-resize_5-target.png,1000,1.551,5,4079,1001,meters,jsons/v1_VE1000_randls_44.json,882926,1087977,27,Man
47,999948,DepthScenes,duration_manipulation_targetAtFixation,jsons/v1_VE1000_randls_44.json,http://54.235.29.9/FacialAge/BNav_EC2/DepthDuration/v2_depth_duration_MTurk/v2_DepthDuration_HTML.html#97,97,1366,768,1366,768,8-22-2022,6-58-51,48,depth_duration_stimuli/001199_2014-06-17_16-03-48_260595134347_rgbf000077-resize_0/001199_2014-06-17_16-03-48_260595134347_rgbf000077-resize_0-target.png,1000,3.4375,5,5988,994,meters,jsons/v1_VE1000_randls_44.json,882926,1087977,27,Man
48,999948,DepthScenes,duration_manipulation_targetAtFixation,jsons/v1_VE1000_randls_44.json,http://54.235.29.9/FacialAge/BNav_EC2/DepthDuration/v2_depth_duration_MTurk/v2_DepthDuration_HTML.html#97,97,1366,768,1366,768,8-22-2022,6-58-51,49,depth_duration_stimuli/000502_2014-06-08_23-02-32_260595134347_rgbf000063-resize_4/000502_2014-06-08_23-02-32_260595134347_rgbf000063-resize_4-target.png,1000,2.431,7,4252,998,meters,jsons/v1_VE1000_randls_44.json,882926,1087977,27,Man
49,999948,DepthScenes,duration_manipulation_targetAtFixation,jsons/v1_VE1000_randls_44.json,http://54.235.29.9/FacialAge/BNav_EC2/DepthDuration/v2_depth_duration_MTurk/v2_DepthDuration_HTML.html#97,97,1366,768,1366,768,8-22-2022,6-58-51,50,depth_duration_stimuli/001806_2014-06-26_20-50-20_260595134347_rgbf000091-resize_1/001806_2014-06-26_20-50-20_260595134347_rgbf000091-resize_1-target.png,1000,2.7305,6,4756,993,meters,jsons/v1_VE1000_randls_44.json,882926,1087977,27,Man
50,999948,DepthScenes,duration_manipulation_targetAtFixation,jsons/v1_VE1000_randls_44.json,http://54.235.29.9/FacialAge/BNav_EC2/DepthDuration/v2_depth_duration_MTurk/v2_DepthDuration_HTML.html#97,97,1366,768,1366,768,8-22-2022,6-58-51,51,depth_duration_stimuli/001617_2014-06-20_11-35-32_260595134347_rgbf000066-resize_1/001617_2014-06-20_11-35-32_260595134347_rgbf000066-resize_1-target.png,1000,3.7910000000000004,8,3978,994,meters,jsons/v1_VE1000_randls_44.json,882926,1087977,27,Man
51,999948,DepthScenes,duration_manipulation_targetAtFixation,jsons/v1_VE1000_randls_44.json,http://54.235.29.9/FacialAge/BNav_EC2/DepthDuration/v2_depth_duration_MTurk/v2_DepthDuration_HTML.html#97,97,1366,768,1366,768,8-22-2022,6-58-51,52,depth_duration_stimuli/003621_2014-05-23_18-06-08_094959634447_rgbf000101-resize_1/003621_2014-05-23_18-06-08_094959634447_rgbf000101-resize_1-target.png,1000,3.9835,8,4391,997,meters,jsons/v1_VE1000_randls_44.json,882926,1087977,27,Man
52,999948,DepthScenes,duration_manipulation_targetAtFixation,jsons/v1_VE1000_randls_44.json,http://54.235.29.9/FacialAge/BNav_EC2/DepthDuration/v2_depth_duration_MTurk/v2_DepthDuration_HTML.html#97,97,1366,768,1366,768,8-22-2022,6-58-51,53,depth_duration_stimuli/001584_2014-06-20_11-07-43_260595134347_rgbf000002-resize_1/001584_2014-06-20_11-07-43_260595134347_rgbf000002-resize_1-target.png,1000,3.53,10,4815,987,meters,jsons/v1_VE1000_randls_44.json,882926,1087977,27,Man
53,999948,DepthScenes,duration_manipulation_targetAtFixation,jsons/v1_VE1000_randls_44.json,http://54.235.29.9/FacialAge/BNav_EC2/DepthDuration/v2_depth_duration_MTurk/v2_DepthDuration_HTML.html#97,97,1366,768,1366,768,8-22-2022,6-58-51,54,depth_duration_stimuli/001016_2014-06-09_16-16-10_260595134347_rgbf000112-resize_5/001016_2014-06-09_16-16-10_260595134347_rgbf000112-resize_5-target.png,1000,1.6565,6,4584,997,meters,jsons/v1_VE1000_randls_44.json,882926,1087977,27,Man
54,999948,DepthScenes,duration_manipulation_targetAtFixation,jsons/v1_VE1000_randls_44.json,http://54.235.29.9/FacialAge/BNav_EC2/DepthDuration/v2_depth_duration_MTurk/v2_DepthDuration_HTML.html#97,97,1366,768,1366,768,8-22-2022,6-58-51,55,depth_duration_stimuli/002340_2014-06-28_20-05-46_260595134347_rgbf000113-resize_0/002340_2014-06-28_20-05-46_260595134347_rgbf000113-resize_0-target.png,1000,2.4735,5,3968,1006,meters,jsons/v1_VE1000_randls_44.json,882926,1087977,27,Man
55,999948,DepthScenes,duration_manipulation_targetAtFixation,jsons/v1_VE1000_randls_44.json,http://54.235.29.9/FacialAge/BNav_EC2/DepthDuration/v2_depth_duration_MTurk/v2_DepthDuration_HTML.html#97,97,1366,768,1366,768,8-22-2022,6-58-51,56,depth_duration_stimuli/002630_2014-06-24_14-47-50_094959634447_rgbf000055-resize_1/002630_2014-06-24_14-47-50_094959634447_rgbf000055-resize_1-target.png,1000,3.0095,4,4134,1011,meters,jsons/v1_VE1000_randls_44.json,882926,1087977,27,Man
56,999948,DepthScenes,duration_manipulation_targetAtFixation,jsons/v1_VE1000_randls_44.json,http://54.235.29.9/FacialAge/BNav_EC2/DepthDuration/v2_depth_duration_MTurk/v2_DepthDuration_HTML.html#97,97,1366,768,1366,768,8-22-2022,6-58-51,57,depth_duration_stimuli/002758_2014-06-22_19-11-20_094959634447_rgbf000128-resize_1/002758_2014-06-22_19-11-20_094959634447_rgbf000128-resize_1-target.png,1000,2.555,8,17147,992,meters,jsons/v1_VE1000_randls_44.json,882926,1087977,27,Man
57,999948,DepthScenes,duration_manipulation_targetAtFixation,jsons/v1_VE1000_randls_44.json,http://54.235.29.9/FacialAge/BNav_EC2/DepthDuration/v2_depth_duration_MTurk/v2_DepthDuration_HTML.html#97,97,1366,768,1366,768,8-22-2022,6-58-51,58,depth_duration_stimuli/003070_2014-06-15_14-58-27_094959634447_rgbf000150-resize_3/003070_2014-06-15_14-58-27_094959634447_rgbf000150-resize_3-target.png,1000,2.9415,6,4543,1024,meters,jsons/v1_VE1000_randls_44.json,882926,1087977,27,Man
58,999948,DepthScenes,duration_manipulation_targetAtFixation,jsons/v1_VE1000_randls_44.json,http://54.235.29.9/FacialAge/BNav_EC2/DepthDuration/v2_depth_duration_MTurk/v2_DepthDuration_HTML.html#97,97,1366,768,1366,768,8-22-2022,6-58-51,59,depth_duration_stimuli/000943_2014-06-09_19-31-07_260595134347_rgbf000128-resize_1/000943_2014-06-09_19-31-07_260595134347_rgbf000128-resize_1-target.png,1000,1.9765,6,5278,1002,meters,jsons/v1_VE1000_randls_44.json,882926,1087977,27,Man
59,999948,DepthScenes,duration_manipulation_targetAtFixation,jsons/v1_VE1000_randls_44.json,http://54.235.29.9/FacialAge/BNav_EC2/DepthDuration/v2_depth_duration_MTurk/v2_DepthDuration_HTML.html#97,97,1366,768,1366,768,8-22-2022,6-58-51,60,depth_duration_stimuli/002725_2014-06-22_11-47-51_094959634447_rgbf000070-resize_1/002725_2014-06-22_11-47-51_094959634447_rgbf000070-resize_1-target.png,1000,2.195,10,4108,1012,meters,jsons/v1_VE1000_randls_44.json,882926,1087977,27,Man
60,999948,DepthScenes,duration_manipulation_targetAtFixation,jsons/v1_VE1000_randls_44.json,http://54.235.29.9/FacialAge/BNav_EC2/DepthDuration/v2_depth_duration_MTurk/v2_DepthDuration_HTML.html#97,97,1366,768,1366,768,8-22-2022,6-58-51,61,depth_duration_stimuli/002344_2014-06-28_20-06-29_260595134347_rgbf000030-resize_1/002344_2014-06-28_20-06-29_260595134347_rgbf000030-resize_1-target.png,1000,1.5795,5,4316,1004,meters,jsons/v1_VE1000_randls_44.json,882926,1087977,27,Man
61,999948,DepthScenes,duration_manipulation_targetAtFixation,jsons/v1_VE1000_randls_44.json,http://54.235.29.9/FacialAge/BNav_EC2/DepthDuration/v2_depth_duration_MTurk/v2_DepthDuration_HTML.html#97,97,1366,768,1366,768,8-22-2022,6-58-51,62,depth_duration_stimuli/000522_2014-06-08_13-35-06_260595134347_rgbf000244-resize_1/000522_2014-06-08_13-35-06_260595134347_rgbf000244-resize_1-target.png,1000,2.3715,8,3885,1007,meters,jsons/v1_VE1000_randls_44.json,882926,1087977,27,Man
62,999948,DepthScenes,duration_manipulation_targetAtFixation,jsons/v1_VE1000_randls_44.json,http://54.235.29.9/FacialAge/BNav_EC2/DepthDuration/v2_depth_duration_MTurk/v2_DepthDuration_HTML.html#97,97,1366,768,1366,768,8-22-2022,6-58-51,63,depth_duration_stimuli/002949_2014-06-26_15-57-42_094959634447_rgbf000079-resize_1/002949_2014-06-26_15-57-42_094959634447_rgbf000079-resize_1-target.png,1000,1.8915,6,4271,1003,meters,jsons/v1_VE1000_randls_44.json,882926,1087977,27,Man
63,999948,DepthScenes,duration_manipulation_targetAtFixation,jsons/v1_VE1000_randls_44.json,http://54.235.29.9/FacialAge/BNav_EC2/DepthDuration/v2_depth_duration_MTurk/v2_DepthDuration_HTML.html#97,97,1366,768,1366,768,8-22-2022,6-58-51,64,depth_duration_stimuli/002989_2014-06-15_12-25-03_094959634447_rgbf000150-resize_3/002989_2014-06-15_12-25-03_094959634447_rgbf000150-resize_3-target.png,1000,4.1975,12,4990,1007,meters,jsons/v1_VE1000_randls_44.json,882926,1087977,27,Man
64,999948,DepthScenes,duration_manipulation_targetAtFixation,jsons/v1_VE1000_randls_44.json,http://54.235.29.9/FacialAge/BNav_EC2/DepthDuration/v2_depth_duration_MTurk/v2_DepthDuration_HTML.html#97,97,1366,768,1366,768,8-22-2022,6-58-51,65,depth_duration_stimuli/000866_2014-06-09_20-45-42_260595134347_rgbf000139-resize_1/000866_2014-06-09_20-45-42_260595134347_rgbf000139-resize_1-target.png,1000,3.2155,8,4188,1007,meters,jsons/v1_VE1000_randls_44.json,882926,1087977,27,Man
65,999948,DepthScenes,duration_manipulation_targetAtFixation,jsons/v1_VE1000_randls_44.json,http://54.235.29.9/FacialAge/BNav_EC2/DepthDuration/v2_depth_duration_MTurk/v2_DepthDuration_HTML.html#97,97,1366,768,1366,768,8-22-2022,6-58-51,66,depth_duration_stimuli/001222_2014-06-17_16-24-06_260595134347_rgbf000073-resize_0/001222_2014-06-17_16-24-06_260595134347_rgbf000073-resize-original.jpg,1000,1.4385,0,4400,1006,meters,jsons/v1_VE1000_randls_44.json,882926,1087977,27,Man
66,999948,DepthScenes,duration_manipulation_targetAtFixation,jsons/v1_VE1000_randls_44.json,http://54.235.29.9/FacialAge/BNav_EC2/DepthDuration/v2_depth_duration_MTurk/v2_DepthDuration_HTML.html#97,97,1366,768,1366,768,8-22-2022,6-58-51,67,depth_duration_stimuli/000447_2014-06-08_16-15-46_260595134347_rgbf000130-resize_1/000447_2014-06-08_16-15-46_260595134347_rgbf000130-resize_1-target.png,1000,4.479,12,4496,997,meters,jsons/v1_VE1000_randls_44.json,882926,1087977,27,Man
67,999948,DepthScenes,duration_manipulation_targetAtFixation,jsons/v1_VE1000_randls_44.json,http://54.235.29.9/FacialAge/BNav_EC2/DepthDuration/v2_depth_duration_MTurk/v2_DepthDuration_HTML.html#97,97,1366,768,1366,768,8-22-2022,6-58-51,68,depth_duration_stimuli/001447_2014-06-19_17-00-32_260595134347_rgbf000082-resize_5/001447_2014-06-19_17-00-32_260595134347_rgbf000082-resize_5-target.png,1000,4.13775,4,4206,1005,meters,jsons/v1_VE1000_randls_44.json,882926,1087977,27,Man
68,999948,DepthScenes,duration_manipulation_targetAtFixation,jsons/v1_VE1000_randls_44.json,http://54.235.29.9/FacialAge/BNav_EC2/DepthDuration/v2_depth_duration_MTurk/v2_DepthDuration_HTML.html#97,97,1366,768,1366,768,8-22-2022,6-58-51,69,depth_duration_stimuli/000682_2014-06-08_23-14-58_260595134347_rgbf000041-resize_5/000682_2014-06-08_23-14-58_260595134347_rgbf000041-resize_5-target.png,1000,2.7239999999999998,6,4149,1011,meters,jsons/v1_VE1000_randls_44.json,882926,1087977,27,Man
69,999948,DepthScenes,duration_manipulation_targetAtFixation,jsons/v1_VE1000_randls_44.json,http://54.235.29.9/FacialAge/BNav_EC2/DepthDuration/v2_depth_duration_MTurk/v2_DepthDuration_HTML.html#97,97,1366,768,1366,768,8-22-2022,6-58-51,70,depth_duration_stimuli/001650_2014-06-20_12-09-00_260595134347_rgbf000087-resize_3/001650_2014-06-20_12-09-00_260595134347_rgbf000087-resize_3-target.png,1000,1.9505,5,4423,1002,meters,jsons/v1_VE1000_randls_44.json,882926,1087977,27,Man
70,999948,DepthScenes,duration_manipulation_targetAtFixation,jsons/v1_VE1000_randls_44.json,http://54.235.29.9/FacialAge/BNav_EC2/DepthDuration/v2_depth_duration_MTurk/v2_DepthDuration_HTML.html#97,97,1366,768,1366,768,8-22-2022,6-58-51,71,depth_duration_stimuli/002549_2014-06-24_13-41-39_094959634447_rgbf000022-resize_3/002549_2014-06-24_13-41-39_094959634447_rgbf000022-resize_3-target.png,1000,1.476,8,3836,996,meters,jsons/v1_VE1000_randls_44.json,882926,1087977,27,Man
71,999948,DepthScenes,duration_manipulation_targetAtFixation,jsons/v1_VE1000_randls_44.json,http://54.235.29.9/FacialAge/BNav_EC2/DepthDuration/v2_depth_duration_MTurk/v2_DepthDuration_HTML.html#97,97,1366,768,1366,768,8-22-2022,6-58-51,72,depth_duration_stimuli/002750_2014-06-22_19-08-03_094959634447_rgbf000094-resize_4/002750_2014-06-22_19-08-03_094959634447_rgbf000094-resize_4-target.png,1000,2.354,10,5184,1002,meters,jsons/v1_VE1000_randls_44.json,882926,1087977,27,Man
72,999948,DepthScenes,duration_manipulation_targetAtFixation,jsons/v1_VE1000_randls_44.json,http://54.235.29.9/FacialAge/BNav_EC2/DepthDuration/v2_depth_duration_MTurk/v2_DepthDuration_HTML.html#97,97,1366,768,1366,768,8-22-2022,6-58-51,73,depth_duration_stimuli/000917_2014-06-09_22-45-29_260595134347_rgbf000149-resize_3/000917_2014-06-09_22-45-29_260595134347_rgbf000149-resize_3-target.png,1000,4.1865,12,4519,989,meters,jsons/v1_VE1000_randls_44.json,882926,1087977,27,Man
73,999948,DepthScenes,duration_manipulation_targetAtFixation,jsons/v1_VE1000_randls_44.json,http://54.235.29.9/FacialAge/BNav_EC2/DepthDuration/v2_depth_duration_MTurk/v2_DepthDuration_HTML.html#97,97,1366,768,1366,768,8-22-2022,6-58-51,74,depth_duration_stimuli/002323_2014-06-28_20-01-54_260595134347_rgbf000051-resize_4/002323_2014-06-28_20-01-54_260595134347_rgbf000051-resize_4-target.png,1000,3.7310000000000003,15,4311,999,meters,jsons/v1_VE1000_randls_44.json,882926,1087977,27,Man
74,999948,DepthScenes,duration_manipulation_targetAtFixation,jsons/v1_VE1000_randls_44.json,http://54.235.29.9/FacialAge/BNav_EC2/DepthDuration/v2_depth_duration_MTurk/v2_DepthDuration_HTML.html#97,97,1366,768,1366,768,8-22-2022,6-58-51,75,depth_duration_stimuli/001158_2014-06-17_15-32-16_260595134347_rgbf000138-resize_2/001158_2014-06-17_15-32-16_260595134347_rgbf000138-resize_2-target.png,1000,4.5315,15,3982,999,meters,jsons/v1_VE1000_randls_44.json,882926,1087977,27,Man
75,999948,DepthScenes,duration_manipulation_targetAtFixation,jsons/v1_VE1000_randls_44.json,http://54.235.29.9/FacialAge/BNav_EC2/DepthDuration/v2_depth_duration_MTurk/v2_DepthDuration_HTML.html#97,97,1366,768,1366,768,8-22-2022,6-58-51,76,depth_duration_stimuli/000556_2014-06-09_22-42-56_260595134347_rgbf000214-resize_1/000556_2014-06-09_22-42-56_260595134347_rgbf000214-resize_1-target.png,1000,4.8415,8,4511,1004,meters,jsons/v1_VE1000_randls_44.json,882926,1087977,27,Man
76,999948,DepthScenes,duration_manipulation_targetAtFixation,jsons/v1_VE1000_randls_44.json,http://54.235.29.9/FacialAge/BNav_EC2/DepthDuration/v2_depth_duration_MTurk/v2_DepthDuration_HTML.html#97,97,1366,768,1366,768,8-22-2022,6-58-51,77,depth_duration_stimuli/003534_2014-05-22_15-06-10_094959634447_rgbf000102-resize_4/003534_2014-05-22_15-06-10_094959634447_rgbf000102-resize_4-target.png,1000,1.426,8,3962,1000,meters,jsons/v1_VE1000_randls_44.json,882926,1087977,27,Man
77,999948,DepthScenes,duration_manipulation_targetAtFixation,jsons/v1_VE1000_randls_44.json,http://54.235.29.9/FacialAge/BNav_EC2/DepthDuration/v2_depth_duration_MTurk/v2_DepthDuration_HTML.html#97,97,1366,768,1366,768,8-22-2022,6-58-51,78,depth_duration_stimuli/002637_2014-06-24_14-51-13_094959634447_rgbf000066-resize_4/002637_2014-06-24_14-51-13_094959634447_rgbf000066-resize_4-target.png,1000,1.9955,5,4214,996,meters,jsons/v1_VE1000_randls_44.json,882926,1087977,27,Man
78,999948,DepthScenes,duration_manipulation_targetAtFixation,jsons/v1_VE1000_randls_44.json,http://54.235.29.9/FacialAge/BNav_EC2/DepthDuration/v2_depth_duration_MTurk/v2_DepthDuration_HTML.html#97,97,1366,768,1366,768,8-22-2022,6-58-51,79,depth_duration_stimuli/000736_2014-06-08_18-24-15_260595134347_rgbf000206-resize_3/000736_2014-06-08_18-24-15_260595134347_rgbf000206-resize_3-target.png,1000,3.515,8,4318,1009,meters,jsons/v1_VE1000_randls_44.json,882926,1087977,27,Man
79,999948,DepthScenes,duration_manipulation_targetAtFixation,jsons/v1_VE1000_randls_44.json,http://54.235.29.9/FacialAge/BNav_EC2/DepthDuration/v2_depth_duration_MTurk/v2_DepthDuration_HTML.html#97,97,1366,768,1366,768,8-22-2022,6-58-51,80,depth_duration_stimuli/000137_2014-05-20_17-04-49_260595134347_rgbf000120-resize_1/000137_2014-05-20_17-04-49_260595134347_rgbf000120-resize_1-target.png,1000,3.786,9,4486,993,meters,jsons/v1_VE1000_randls_44.json,882926,1087977,27,Man
80,999948,DepthScenes,duration_manipulation_targetAtFixation,jsons/v1_VE1000_randls_44.json,http://54.235.29.9/FacialAge/BNav_EC2/DepthDuration/v2_depth_duration_MTurk/v2_DepthDuration_HTML.html#97,97,1366,768,1366,768,8-22-2022,6-58-51,81,depth_duration_stimuli/002784_2014-06-22_19-26-30_094959634447_rgbf000083-resize_3/002784_2014-06-22_19-26-30_094959634447_rgbf000083-resize_3-target.png,1000,1.8046666666667,5,3792,1002,meters,jsons/v1_VE1000_randls_44.json,882926,1087977,27,Man
81,999948,DepthScenes,duration_manipulation_targetAtFixation,jsons/v1_VE1000_randls_44.json,http://54.235.29.9/FacialAge/BNav_EC2/DepthDuration/v2_depth_duration_MTurk/v2_DepthDuration_HTML.html#97,97,1366,768,1366,768,8-22-2022,6-58-51,82,depth_duration_stimuli/001100_2014-06-15_17-46-26_260595134347_rgbf000225-resize_2/001100_2014-06-15_17-46-26_260595134347_rgbf000225-resize_2-target.png,1000,2.24,4,4268,999,meters,jsons/v1_VE1000_randls_44.json,882926,1087977,27,Man
82,999948,DepthScenes,duration_manipulation_targetAtFixation,jsons/v1_VE1000_randls_44.json,http://54.235.29.9/FacialAge/BNav_EC2/DepthDuration/v2_depth_duration_MTurk/v2_DepthDuration_HTML.html#97,97,1366,768,1366,768,8-22-2022,6-58-51,83,depth_duration_stimuli/002988_2014-06-15_12-24-20_094959634447_rgbf000150-resize_1/002988_2014-06-15_12-24-20_094959634447_rgbf000150-resize_1-target.png,1000,4.7669999999999995,3,3800,994,meters,jsons/v1_VE1000_randls_44.json,882926,1087977,27,Man
83,999948,DepthScenes,duration_manipulation_targetAtFixation,jsons/v1_VE1000_randls_44.json,http://54.235.29.9/FacialAge/BNav_EC2/DepthDuration/v2_depth_duration_MTurk/v2_DepthDuration_HTML.html#97,97,1366,768,1366,768,8-22-2022,6-58-51,84,depth_duration_stimuli/001052_2014-06-08_18-24-54_260595134347_rgbf000130-resize_1/001052_2014-06-08_18-24-54_260595134347_rgbf000130-resize_1-target.png,1000,4.1045,4,3907,993,meters,jsons/v1_VE1000_randls_44.json,882926,1087977,27,Man
84,999948,DepthScenes,duration_manipulation_targetAtFixation,jsons/v1_VE1000_randls_44.json,http://54.235.29.9/FacialAge/BNav_EC2/DepthDuration/v2_depth_duration_MTurk/v2_DepthDuration_HTML.html#97,97,1366,768,1366,768,8-22-2022,6-58-51,85,depth_duration_stimuli/002509_2014-06-24_13-19-22_094959634447_rgbf000077-resize_0/002509_2014-06-24_13-19-22_094959634447_rgbf000077-resize_0-target.png,1000,1.3065,5,3817,977,meters,jsons/v1_VE1000_randls_44.json,882926,1087977,27,Man
85,999948,DepthScenes,duration_manipulation_targetAtFixation,jsons/v1_VE1000_randls_44.json,http://54.235.29.9/FacialAge/BNav_EC2/DepthDuration/v2_depth_duration_MTurk/v2_DepthDuration_HTML.html#97,97,1366,768,1366,768,8-22-2022,6-58-51,86,depth_duration_stimuli/003338_2014-05-20_11-01-23_094959634447_rgbf000051-resize_6/003338_2014-05-20_11-01-23_094959634447_rgbf000051-resize_6-target.png,1000,1.693,8,4654,997,meters,jsons/v1_VE1000_randls_44.json,882926,1087977,27,Man
86,999948,DepthScenes,duration_manipulation_targetAtFixation,jsons/v1_VE1000_randls_44.json,http://54.235.29.9/FacialAge/BNav_EC2/DepthDuration/v2_depth_duration_MTurk/v2_DepthDuration_HTML.html#97,97,1366,768,1366,768,8-22-2022,6-58-51,87,depth_duration_stimuli/001150_2014-06-17_15-27-34_260595134347_rgbf000108-resize_2/001150_2014-06-17_15-27-34_260595134347_rgbf000108-resize_2-target.png,1000,4.0325,6,4123,1003,meters,jsons/v1_VE1000_randls_44.json,882926,1087977,27,Man
87,999948,DepthScenes,duration_manipulation_targetAtFixation,jsons/v1_VE1000_randls_44.json,http://54.235.29.9/FacialAge/BNav_EC2/DepthDuration/v2_depth_duration_MTurk/v2_DepthDuration_HTML.html#97,97,1366,768,1366,768,8-22-2022,6-58-51,88,depth_duration_stimuli/000665_2014-06-09_20-42-35_260595134347_rgbf000110-resize_1/000665_2014-06-09_20-42-35_260595134347_rgbf000110-resize_1-target.png,1000,3.057,6,6900,997,meters,jsons/v1_VE1000_randls_44.json,882926,1087977,27,Man
88,999948,DepthScenes,duration_manipulation_targetAtFixation,jsons/v1_VE1000_randls_44.json,http://54.235.29.9/FacialAge/BNav_EC2/DepthDuration/v2_depth_duration_MTurk/v2_DepthDuration_HTML.html#97,97,1366,768,1366,768,8-22-2022,6-58-51,89,depth_duration_stimuli/002043_2014-06-24_20-29-38_260595134347_rgbf000039-resize_4/002043_2014-06-24_20-29-38_260595134347_rgbf000039-resize_4-target.png,1000,2.8435,5,3923,1012,meters,jsons/v1_VE1000_randls_44.json,882926,1087977,27,Man
89,999948,DepthScenes,duration_manipulation_targetAtFixation,jsons/v1_VE1000_randls_44.json,http://54.235.29.9/FacialAge/BNav_EC2/DepthDuration/v2_depth_duration_MTurk/v2_DepthDuration_HTML.html#97,97,1366,768,1366,768,8-22-2022,6-58-51,90,depth_duration_stimuli/003048_2014-06-15_13-49-43_094959634447_rgbf000150-resize_1/003048_2014-06-15_13-49-43_094959634447_rgbf000150-resize_1-target.png,1000,4.0035,8,4296,988,meters,jsons/v1_VE1000_randls_44.json,882926,1087977,27,Man
90,999948,DepthScenes,duration_manipulation_targetAtFixation,jsons/v1_VE1000_randls_44.json,http://54.235.29.9/FacialAge/BNav_EC2/DepthDuration/v2_depth_duration_MTurk/v2_DepthDuration_HTML.html#97,97,1366,768,1366,768,8-22-2022,6-58-51,91,depth_duration_stimuli/001167_2014-06-17_15-38-07_260595134347_rgbf000108-resize_0/001167_2014-06-17_15-38-07_260595134347_rgbf000108-resize_0-target.png,1000,1.8505,9,4133,997,meters,jsons/v1_VE1000_randls_44.json,882926,1087977,27,Man
91,999948,DepthScenes,duration_manipulation_targetAtFixation,jsons/v1_VE1000_randls_44.json,http://54.235.29.9/FacialAge/BNav_EC2/DepthDuration/v2_depth_duration_MTurk/v2_DepthDuration_HTML.html#97,97,1366,768,1366,768,8-22-2022,6-58-51,92,depth_duration_stimuli/003587_2014-05-23_16-48-02_094959634447_rgbf002384-resize_2/003587_2014-05-23_16-48-02_094959634447_rgbf002384-resize_2-target.png,1000,1.357,10,4076,998,meters,jsons/v1_VE1000_randls_44.json,882926,1087977,27,Man
92,999948,DepthScenes,duration_manipulation_targetAtFixation,jsons/v1_VE1000_randls_44.json,http://54.235.29.9/FacialAge/BNav_EC2/DepthDuration/v2_depth_duration_MTurk/v2_DepthDuration_HTML.html#97,97,1366,768,1366,768,8-22-2022,6-58-51,93,depth_duration_stimuli/001808_2014-06-26_20-50-58_260595134347_rgbf000029-resize_1/001808_2014-06-26_20-50-58_260595134347_rgbf000029-resize_1-target.png,1000,4.249,12,4280,1019,meters,jsons/v1_VE1000_randls_44.json,882926,1087977,27,Man
93,999948,DepthScenes,duration_manipulation_targetAtFixation,jsons/v1_VE1000_randls_44.json,http://54.235.29.9/FacialAge/BNav_EC2/DepthDuration/v2_depth_duration_MTurk/v2_DepthDuration_HTML.html#97,97,1366,768,1366,768,8-22-2022,6-58-51,94,depth_duration_stimuli/001815_2014-06-26_20-52-55_260595134347_rgbf000020-resize_0/001815_2014-06-26_20-52-55_260595134347_rgbf000020-resize_0-target.png,1000,3.3865,15,4347,990,meters,jsons/v1_VE1000_randls_44.json,882926,1087977,27,Man
94,999948,DepthScenes,duration_manipulation_targetAtFixation,jsons/v1_VE1000_randls_44.json,http://54.235.29.9/FacialAge/BNav_EC2/DepthDuration/v2_depth_duration_MTurk/v2_DepthDuration_HTML.html#97,97,1366,768,1366,768,8-22-2022,6-58-51,95,depth_duration_stimuli/000469_2014-06-09_19-42-10_260595134347_rgbf000081-resize_1/000469_2014-06-09_19-42-10_260595134347_rgbf000081-resize_1-target.png,1000,1.652,12,5115,996,meters,jsons/v1_VE1000_randls_44.json,882926,1087977,27,Man
95,999948,DepthScenes,duration_manipulation_targetAtFixation,jsons/v1_VE1000_randls_44.json,http://54.235.29.9/FacialAge/BNav_EC2/DepthDuration/v2_depth_duration_MTurk/v2_DepthDuration_HTML.html#97,97,1366,768,1366,768,8-22-2022,6-58-51,96,depth_duration_stimuli/000483_2014-06-09_20-41-45_260595134347_rgbf000116-resize_4/000483_2014-06-09_20-41-45_260595134347_rgbf000116-resize_4-target.png,1000,1.337,8,4727,1010,meters,jsons/v1_VE1000_randls_44.json,882926,1087977,27,Man
96,999948,DepthScenes,duration_manipulation_targetAtFixation,jsons/v1_VE1000_randls_44.json,http://54.235.29.9/FacialAge/BNav_EC2/DepthDuration/v2_depth_duration_MTurk/v2_DepthDuration_HTML.html#97,97,1366,768,1366,768,8-22-2022,6-58-51,97,depth_duration_stimuli/001092_2014-06-15_17-34-58_260595134347_rgbf000171-resize_3/001092_2014-06-15_17-34-58_260595134347_rgbf000171-resize_3-target.png,1000,2.6935,6,4216,999,meters,jsons/v1_VE1000_randls_44.json,882926,1087977,27,Man
97,999948,DepthScenes,duration_manipulation_targetAtFixation,jsons/v1_VE1000_randls_44.json,http://54.235.29.9/FacialAge/BNav_EC2/DepthDuration/v2_depth_duration_MTurk/v2_DepthDuration_HTML.html#97,97,1366,768,1366,768,8-22-2022,6-58-51,98,depth_duration_stimuli/002545_2014-06-24_13-38-53_094959634447_rgbf000080-resize_4/002545_2014-06-24_13-38-53_094959634447_rgbf000080-resize_4-target.png,1000,1.9205,8,3880,1009,meters,jsons/v1_VE1000_randls_44.json,882926,1087977,27,Man
98,999948,DepthScenes,duration_manipulation_targetAtFixation,jsons/v1_VE1000_randls_44.json,http://54.235.29.9/FacialAge/BNav_EC2/DepthDuration/v2_depth_duration_MTurk/v2_DepthDuration_HTML.html#97,97,1366,768,1366,768,8-22-2022,6-58-51,99,depth_duration_stimuli/001540_2014-06-20_17-01-05_260595134347_rgbf000086-resize_2/001540_2014-06-20_17-01-05_260595134347_rgbf000086-resize-original.jpg,1000,1.459,0,4122,1021,meters,jsons/v1_VE1000_randls_44.json,882926,1087977,27,Man
99,999948,DepthScenes,duration_manipulation_targetAtFixation,jsons/v1_VE1000_randls_44.json,http://54.235.29.9/FacialAge/BNav_EC2/DepthDuration/v2_depth_duration_MTurk/v2_DepthDuration_HTML.html#97,97,1366,768,1366,768,8-22-2022,6-58-51,100,depth_duration_stimuli/001056_2014-06-08_18-46-44_260595134347_rgbf000068-resize_0/001056_2014-06-08_18-46-44_260595134347_rgbf000068-resize_0-target.png,1000,2.6625,8,4328,1002,meters,jsons/v1_VE1000_randls_44.json,882926,1087977,27,Man
100,999948,DepthScenes,duration_manipulation_targetAtFixation,jsons/v1_VE1000_randls_44.json,http://54.235.29.9/FacialAge/BNav_EC2/DepthDuration/v2_depth_duration_MTurk/v2_DepthDuration_HTML.html#97,97,1366,768,1366,768,8-22-2022,6-58-51,101,depth_duration_stimuli/002199_2014-06-28_18-33-56_260595134347_rgbf000074-resize_0/002199_2014-06-28_18-33-56_260595134347_rgbf000074-resize_0-target.png,1000,1.996,6,3913,996,meters,jsons/v1_VE1000_randls_44.json,882926,1087977,27,Man
101,999948,DepthScenes,duration_manipulation_targetAtFixation,jsons/v1_VE1000_randls_44.json,http://54.235.29.9/FacialAge/BNav_EC2/DepthDuration/v2_depth_duration_MTurk/v2_DepthDuration_HTML.html#97,97,1366,768,1366,768,8-22-2022,6-58-51,102,depth_duration_stimuli/002905_2014-06-03_18-04-43_094959634447_rgbf000151-resize_2/002905_2014-06-03_18-04-43_094959634447_rgbf000151-resize_2-target.png,1000,2.0295,5,5181,999,meters,jsons/v1_VE1000_randls_44.json,882926,1087977,27,Man
102,999948,DepthScenes,duration_manipulation_targetAtFixation,jsons/v1_VE1000_randls_44.json,http://54.235.29.9/FacialAge/BNav_EC2/DepthDuration/v2_depth_duration_MTurk/v2_DepthDuration_HTML.html#97,97,1366,768,1366,768,8-22-2022,6-58-51,103,depth_duration_stimuli/003423_2014-05-21_10-23-26_094959634447_rgbf002665-resize_2/003423_2014-05-21_10-23-26_094959634447_rgbf002665-resize_2-target.png,1000,3.2575,4,4432,1004,meters,jsons/v1_VE1000_randls_44.json,882926,1087977,27,Man
103,999948,DepthScenes,duration_manipulation_targetAtFixation,jsons/v1_VE1000_randls_44.json,http://54.235.29.9/FacialAge/BNav_EC2/DepthDuration/v2_depth_duration_MTurk/v2_DepthDuration_HTML.html#97,97,1366,768,1366,768,8-22-2022,6-58-51,104,depth_duration_stimuli/001066_2014-06-08_22-03-20_260595134347_rgbf000066-resize_4/001066_2014-06-08_22-03-20_260595134347_rgbf000066-resize_4-target.png,1000,4.2330000000000005,12,4567,1008,meters,jsons/v1_VE1000_randls_44.json,882926,1087977,27,Man
104,999948,DepthScenes,duration_manipulation_targetAtFixation,jsons/v1_VE1000_randls_44.json,http://54.235.29.9/FacialAge/BNav_EC2/DepthDuration/v2_depth_duration_MTurk/v2_DepthDuration_HTML.html#97,97,1366,768,1366,768,8-22-2022,6-58-51,105,depth_duration_stimuli/000742_2014-06-08_18-48-09_260595134347_rgbf000164-resize_4/000742_2014-06-08_18-48-09_260595134347_rgbf000164-resize_4-target.png,1000,4.632,2,4359,992,meters,jsons/v1_VE1000_randls_44.json,882926,1087977,27,Man
105,999948,DepthScenes,duration_manipulation_targetAtFixation,jsons/v1_VE1000_randls_44.json,http://54.235.29.9/FacialAge/BNav_EC2/DepthDuration/v2_depth_duration_MTurk/v2_DepthDuration_HTML.html#97,97,1366,768,1366,768,8-22-2022,6-58-51,106,depth_duration_stimuli/001810_2014-06-26_20-51-35_260595134347_rgbf000040-resize_3/001810_2014-06-26_20-51-35_260595134347_rgbf000040-resize_3-target.png,1000,2.2525,6,4752,993,meters,jsons/v1_VE1000_randls_44.json,882926,1087977,27,Man
106,999948,DepthScenes,duration_manipulation_targetAtFixation,jsons/v1_VE1000_randls_44.json,http://54.235.29.9/FacialAge/BNav_EC2/DepthDuration/v2_depth_duration_MTurk/v2_DepthDuration_HTML.html#97,97,1366,768,1366,768,8-22-2022,6-58-51,107,depth_duration_stimuli/003010_2014-06-15_12-54-35_094959634447_rgbf000112-resize_0/003010_2014-06-15_12-54-35_094959634447_rgbf000112-resize_0-target.png,1000,3.1185,15,4348,996,meters,jsons/v1_VE1000_randls_44.json,882926,1087977,27,Man
107,999948,DepthScenes,duration_manipulation_targetAtFixation,jsons/v1_VE1000_randls_44.json,http://54.235.29.9/FacialAge/BNav_EC2/DepthDuration/v2_depth_duration_MTurk/v2_DepthDuration_HTML.html#97,97,1366,768,1366,768,8-22-2022,6-58-51,108,depth_duration_stimuli/002272_2014-06-28_18-53-56_260595134347_rgbf000067-resize_2/002272_2014-06-28_18-53-56_260595134347_rgbf000067-resize_2-target.png,1000,1.138,5,5075,993,meters,jsons/v1_VE1000_randls_44.json,882926,1087977,27,Man
108,999948,DepthScenes,duration_manipulation_targetAtFixation,jsons/v1_VE1000_randls_44.json,http://54.235.29.9/FacialAge/BNav_EC2/DepthDuration/v2_depth_duration_MTurk/v2_DepthDuration_HTML.html#97,97,1366,768,1366,768,8-22-2022,6-58-51,109,depth_duration_stimuli/001571_2014-06-20_17-21-32_260595134347_rgbf000089-resize_1/001571_2014-06-20_17-21-32_260595134347_rgbf000089-resize_1-target.png,1000,1.86,4,6227,1007,meters,jsons/v1_VE1000_randls_44.json,882926,1087977,27,Man
109,999948,DepthScenes,duration_manipulation_targetAtFixation,jsons/v1_VE1000_randls_44.json,http://54.235.29.9/FacialAge/BNav_EC2/DepthDuration/v2_depth_duration_MTurk/v2_DepthDuration_HTML.html#97,97,1366,768,1366,768,8-22-2022,6-58-51,110,depth_duration_stimuli/002788_2014-06-22_19-36-03_094959634447_rgbf000088-resize_2/002788_2014-06-22_19-36-03_094959634447_rgbf000088-resize_2-target.png,1000,1.6465,10,4198,996,meters,jsons/v1_VE1000_randls_44.json,882926,1087977,27,Man
110,999948,DepthScenes,duration_manipulation_targetAtFixation,jsons/v1_VE1000_randls_44.json,http://54.235.29.9/FacialAge/BNav_EC2/DepthDuration/v2_depth_duration_MTurk/v2_DepthDuration_HTML.html#97,97,1366,768,1366,768,8-22-2022,6-58-51,111,depth_duration_stimuli/000749_2014-06-08_21-55-06_260595134347_rgbf000070-resize_2/000749_2014-06-08_21-55-06_260595134347_rgbf000070-resize_2-target.png,1000,2.331,12,4288,1001,meters,jsons/v1_VE1000_randls_44.json,882926,1087977,27,Man
111,999948,DepthScenes,duration_manipulation_targetAtFixation,jsons/v1_VE1000_randls_44.json,http://54.235.29.9/FacialAge/BNav_EC2/DepthDuration/v2_depth_duration_MTurk/v2_DepthDuration_HTML.html#97,97,1366,768,1366,768,8-22-2022,6-58-51,112,depth_duration_stimuli/001244_2014-06-17_16-47-45_260595134347_rgbf000030-resize_4/001244_2014-06-17_16-47-45_260595134347_rgbf000030-resize_4-target.png,1000,2.0425,7,4349,999,meters,jsons/v1_VE1000_randls_44.json,882926,1087977,27,Man
112,999948,DepthScenes,duration_manipulation_targetAtFixation,jsons/v1_VE1000_randls_44.json,http://54.235.29.9/FacialAge/BNav_EC2/DepthDuration/v2_depth_duration_MTurk/v2_DepthDuration_HTML.html#97,97,1366,768,1366,768,8-22-2022,6-58-51,113,depth_duration_stimuli/003495_2014-05-21_16-01-51_094959634447_rgbf000100-resize_3/003495_2014-05-21_16-01-51_094959634447_rgbf000100-resize_3-target.png,1000,1.6255,4,4317,1005,meters,jsons/v1_VE1000_randls_44.json,882926,1087977,27,Man
113,999948,DepthScenes,duration_manipulation_targetAtFixation,jsons/v1_VE1000_randls_44.json,http://54.235.29.9/FacialAge/BNav_EC2/DepthDuration/v2_depth_duration_MTurk/v2_DepthDuration_HTML.html#97,97,1366,768,1366,768,8-22-2022,6-58-51,114,depth_duration_stimuli/000906_2014-06-08_13-35-43_260595134347_rgbf000155-resize_1/000906_2014-06-08_13-35-43_260595134347_rgbf000155-resize_1-target.png,1000,2.8489999999999998,10,4878,1014,meters,jsons/v1_VE1000_randls_44.json,882926,1087977,27,Man
114,999948,DepthScenes,duration_manipulation_targetAtFixation,jsons/v1_VE1000_randls_44.json,http://54.235.29.9/FacialAge/BNav_EC2/DepthDuration/v2_depth_duration_MTurk/v2_DepthDuration_HTML.html#97,97,1366,768,1366,768,8-22-2022,6-58-51,115,depth_duration_stimuli/002805_2014-06-22_19-54-03_094959634447_rgbf000079-resize_1/002805_2014-06-22_19-54-03_094959634447_rgbf000079-resize_1-target.png,1000,3.1439999999999997,12,4714,996,meters,jsons/v1_VE1000_randls_44.json,882926,1087977,27,Man
115,999948,DepthScenes,duration_manipulation_targetAtFixation,jsons/v1_VE1000_randls_44.json,http://54.235.29.9/FacialAge/BNav_EC2/DepthDuration/v2_depth_duration_MTurk/v2_DepthDuration_HTML.html#97,97,1366,768,1366,768,8-22-2022,6-58-51,116,depth_duration_stimuli/001170_2014-06-17_15-43-44_260595134347_rgbf000096-resize_6/001170_2014-06-17_15-43-44_260595134347_rgbf000096-resize-original.jpg,1000,1.1909999999999998,0,4008,1011,meters,jsons/v1_VE1000_randls_44.json,882926,1087977,27,Man
116,999948,DepthScenes,duration_manipulation_targetAtFixation,jsons/v1_VE1000_randls_44.json,http://54.235.29.9/FacialAge/BNav_EC2/DepthDuration/v2_depth_duration_MTurk/v2_DepthDuration_HTML.html#97,97,1366,768,1366,768,8-22-2022,6-58-51,117,depth_duration_stimuli/000414_2014-06-04_19-49-13_260595134347_rgbf000044-resize_0/000414_2014-06-04_19-49-13_260595134347_rgbf000044-resize_0-target.png,1000,4.329,15,4719,1006,meters,jsons/v1_VE1000_randls_44.json,882926,1087977,27,Man
117,999948,DepthScenes,duration_manipulation_targetAtFixation,jsons/v1_VE1000_randls_44.json,http://54.235.29.9/FacialAge/BNav_EC2/DepthDuration/v2_depth_duration_MTurk/v2_DepthDuration_HTML.html#97,97,1366,768,1366,768,8-22-2022,6-58-51,118,depth_duration_stimuli/003129_2014-05-12_10-48-10_094959634447_rgbf000100-resize_0/003129_2014-05-12_10-48-10_094959634447_rgbf000100-resize_0-target.png,1000,4.9305,10,4402,1001,meters,jsons/v1_VE1000_randls_44.json,882926,1087977,27,Man
118,999948,DepthScenes,duration_manipulation_targetAtFixation,jsons/v1_VE1000_randls_44.json,http://54.235.29.9/FacialAge/BNav_EC2/DepthDuration/v2_depth_duration_MTurk/v2_DepthDuration_HTML.html#97,97,1366,768,1366,768,8-22-2022,6-58-51,119,depth_duration_stimuli/002763_2014-06-22_19-13-10_094959634447_rgbf000075-resize_4/002763_2014-06-22_19-13-10_094959634447_rgbf000075-resize_4-target.png,1000,1.68375,8,4035,991,meters,jsons/v1_VE1000_randls_44.json,882926,1087977,27,Man
119,999948,DepthScenes,duration_manipulation_targetAtFixation,jsons/v1_VE1000_randls_44.json,http://54.235.29.9/FacialAge/BNav_EC2/DepthDuration/v2_depth_duration_MTurk/v2_DepthDuration_HTML.html#97,97,1366,768,1366,768,8-22-2022,6-58-51,120,depth_duration_stimuli/002209_2014-06-28_18-36-10_260595134347_rgbf000051-resize_1/002209_2014-06-28_18-36-10_260595134347_rgbf000051-resize_1-target.png,1000,2.057,5,4819,993,meters,jsons/v1_VE1000_randls_44.json,882926,1087977,27,Man
120,999948,DepthScenes,duration_manipulation_targetAtFixation,jsons/v1_VE1000_randls_44.json,http://54.235.29.9/FacialAge/BNav_EC2/DepthDuration/v2_depth_duration_MTurk/v2_DepthDuration_HTML.html#97,97,1366,768,1366,768,8-22-2022,6-58-51,121,depth_duration_stimuli/000436_2014-06-09_22-25-11_260595134347_rgbf000137-resize_1/000436_2014-06-09_22-25-11_260595134347_rgbf000137-resize_1-target.png,1000,4.0705,15,4469,1005,meters,jsons/v1_VE1000_randls_44.json,882926,1087977,27,Man
121,999948,DepthScenes,duration_manipulation_targetAtFixation,jsons/v1_VE1000_randls_44.json,http://54.235.29.9/FacialAge/BNav_EC2/DepthDuration/v2_depth_duration_MTurk/v2_DepthDuration_HTML.html#97,97,1366,768,1366,768,8-22-2022,6-58-51,122,depth_duration_stimuli/002444_2014-06-28_20-32-08_260595134347_rgbf000027-resize_0/002444_2014-06-28_20-32-08_260595134347_rgbf000027-resize_0-target.png,1000,4.388999999999999,15,4225,1006,meters,jsons/v1_VE1000_randls_44.json,882926,1087977,27,Man
122,999948,DepthScenes,duration_manipulation_targetAtFixation,jsons/v1_VE1000_randls_44.json,http://54.235.29.9/FacialAge/BNav_EC2/DepthDuration/v2_depth_duration_MTurk/v2_DepthDuration_HTML.html#97,97,1366,768,1366,768,8-22-2022,6-58-51,123,depth_duration_stimuli/001029_2014-06-08_13-17-57_260595134347_rgbf000065-resize_1/001029_2014-06-08_13-17-57_260595134347_rgbf000065-resize_1-target.png,1000,3.0835,12,3874,1009,meters,jsons/v1_VE1000_randls_44.json,882926,1087977,27,Man
123,999948,DepthScenes,duration_manipulation_targetAtFixation,jsons/v1_VE1000_randls_44.json,http://54.235.29.9/FacialAge/BNav_EC2/DepthDuration/v2_depth_duration_MTurk/v2_DepthDuration_HTML.html#97,97,1366,768,1366,768,8-22-2022,6-58-51,124,depth_duration_stimuli/000677_2014-06-08_23-10-32_260595134347_rgbf000158-resize_6/000677_2014-06-08_23-10-32_260595134347_rgbf000158-resize_6-target.png,1000,3.556,15,4232,1002,meters,jsons/v1_VE1000_randls_44.json,882926,1087977,27,Man
124,999948,DepthScenes,duration_manipulation_targetAtFixation,jsons/v1_VE1000_randls_44.json,http://54.235.29.9/FacialAge/BNav_EC2/DepthDuration/v2_depth_duration_MTurk/v2_DepthDuration_HTML.html#97,97,1366,768,1366,768,8-22-2022,6-58-51,125,depth_duration_stimuli/001059_2014-06-08_21-53-27_260595134347_rgbf000061-resize_4/001059_2014-06-08_21-53-27_260595134347_rgbf000061-resize_4-target.png,1000,2.4185,10,4698,996,meters,jsons/v1_VE1000_randls_44.json,882926,1087977,27,Man
125,999948,DepthScenes,duration_manipulation_targetAtFixation,jsons/v1_VE1000_randls_44.json,http://54.235.29.9/FacialAge/BNav_EC2/DepthDuration/v2_depth_duration_MTurk/v2_DepthDuration_HTML.html#97,97,1366,768,1366,768,8-22-2022,6-58-51,126,depth_duration_stimuli/001032_2014-06-08_13-23-17_260595134347_rgbf000021-resize_3/001032_2014-06-08_13-23-17_260595134347_rgbf000021-resize_3-target.png,1000,3.2725,10,4293,997,meters,jsons/v1_VE1000_randls_44.json,882926,1087977,27,Man
126,999948,DepthScenes,duration_manipulation_targetAtFixation,jsons/v1_VE1000_randls_44.json,http://54.235.29.9/FacialAge/BNav_EC2/DepthDuration/v2_depth_duration_MTurk/v2_DepthDuration_HTML.html#97,97,1366,768,1366,768,8-22-2022,6-58-51,127,depth_duration_stimuli/002964_2014-06-08_17-46-11_094959634447_rgbf000091-resize_4/002964_2014-06-08_17-46-11_094959634447_rgbf000091-resize_4-target.png,1000,1.6909999999999998,4,4096,1012,meters,jsons/v1_VE1000_randls_44.json,882926,1087977,27,Man
127,999948,DepthScenes,duration_manipulation_targetAtFixation,jsons/v1_VE1000_randls_44.json,http://54.235.29.9/FacialAge/BNav_EC2/DepthDuration/v2_depth_duration_MTurk/v2_DepthDuration_HTML.html#97,97,1366,768,1366,768,8-22-2022,6-58-51,128,depth_duration_stimuli/002136_2014-06-25_21-18-03_260595134347_rgbf000109-resize_3/002136_2014-06-25_21-18-03_260595134347_rgbf000109-resize_3-target.png,1000,1.9569999999999999,6,4471,1001,meters,jsons/v1_VE1000_randls_44.json,882926,1087977,27,Man
128,999948,DepthScenes,duration_manipulation_targetAtFixation,jsons/v1_VE1000_randls_44.json,http://54.235.29.9/FacialAge/BNav_EC2/DepthDuration/v2_depth_duration_MTurk/v2_DepthDuration_HTML.html#97,97,1366,768,1366,768,8-22-2022,6-58-51,129,depth_duration_stimuli/001011_2014-06-08_23-18-54_260595134347_rgbf000044-resize_4/001011_2014-06-08_23-18-54_260595134347_rgbf000044-resize_4-target.png,1000,2.4730000000000003,8,4113,998,meters,jsons/v1_VE1000_randls_44.json,882926,1087977,27,Man
129,999948,DepthScenes,duration_manipulation_targetAtFixation,jsons/v1_VE1000_randls_44.json,http://54.235.29.9/FacialAge/BNav_EC2/DepthDuration/v2_depth_duration_MTurk/v2_DepthDuration_HTML.html#97,97,1366,768,1366,768,8-22-2022,6-58-51,130,depth_duration_stimuli/002875_2014-06-01_15-19-00_094959634447_rgbf000151-resize_1/002875_2014-06-01_15-19-00_094959634447_rgbf000151-resize_1-target.png,1000,1.9675,5,4103,1006,meters,jsons/v1_VE1000_randls_44.json,882926,1087977,27,Man
130,999948,DepthScenes,duration_manipulation_targetAtFixation,jsons/v1_VE1000_randls_44.json,http://54.235.29.9/FacialAge/BNav_EC2/DepthDuration/v2_depth_duration_MTurk/v2_DepthDuration_HTML.html#97,97,1366,768,1366,768,8-22-2022,6-58-51,131,depth_duration_stimuli/001055_2014-06-08_18-45-35_260595134347_rgbf000111-resize_4/001055_2014-06-08_18-45-35_260595134347_rgbf000111-resize_4-target.png,1000,2.4290000000000003,10,5312,985,meters,jsons/v1_VE1000_randls_44.json,882926,1087977,27,Man
131,999948,DepthScenes,duration_manipulation_targetAtFixation,jsons/v1_VE1000_randls_44.json,http://54.235.29.9/FacialAge/BNav_EC2/DepthDuration/v2_depth_duration_MTurk/v2_DepthDuration_HTML.html#97,97,1366,768,1366,768,8-22-2022,6-58-51,132,depth_duration_stimuli/000549_2014-06-08_22-10-24_260595134347_rgbf000247-resize_3/000549_2014-06-08_22-10-24_260595134347_rgbf000247-resize_3-target.png,1000,1.841,5,4730,1002,meters,jsons/v1_VE1000_randls_44.json,882926,1087977,27,Man
132,999948,DepthScenes,duration_manipulation_targetAtFixation,jsons/v1_VE1000_randls_44.json,http://54.235.29.9/FacialAge/BNav_EC2/DepthDuration/v2_depth_duration_MTurk/v2_DepthDuration_HTML.html#97,97,1366,768,1366,768,8-22-2022,6-58-51,133,depth_duration_stimuli/001449_2014-06-19_17-01-27_260595134347_rgbf000116-resize_2/001449_2014-06-19_17-01-27_260595134347_rgbf000116-resize_2-target.png,1000,3.452,8,3675,999,meters,jsons/v1_VE1000_randls_44.json,882926,1087977,27,Man
133,999948,DepthScenes,duration_manipulation_targetAtFixation,jsons/v1_VE1000_randls_44.json,http://54.235.29.9/FacialAge/BNav_EC2/DepthDuration/v2_depth_duration_MTurk/v2_DepthDuration_HTML.html#97,97,1366,768,1366,768,8-22-2022,6-58-51,134,depth_duration_stimuli/001450_2014-06-19_17-02-03_260595134347_rgbf000203-resize_4/001450_2014-06-19_17-02-03_260595134347_rgbf000203-resize_4-target.png,1000,4.0106666666667,12,4271,1008,meters,jsons/v1_VE1000_randls_44.json,882926,1087977,27,Man
134,999948,DepthScenes,duration_manipulation_targetAtFixation,jsons/v1_VE1000_randls_44.json,http://54.235.29.9/FacialAge/BNav_EC2/DepthDuration/v2_depth_duration_MTurk/v2_DepthDuration_HTML.html#97,97,1366,768,1366,768,8-22-2022,6-58-51,135,depth_duration_stimuli/002072_2014-06-24_21-48-06_260595134347_rgbf000115-resize_0/002072_2014-06-24_21-48-06_260595134347_rgbf000115-resize-original.jpg,1000,4.702,0,4644,923,meters,jsons/v1_VE1000_randls_44.json,882926,1087977,27,Man
135,999948,DepthScenes,duration_manipulation_targetAtFixation,jsons/v1_VE1000_randls_44.json,http://54.235.29.9/FacialAge/BNav_EC2/DepthDuration/v2_depth_duration_MTurk/v2_DepthDuration_HTML.html#97,97,1366,768,1366,768,8-22-2022,6-58-51,136,depth_duration_stimuli/000493_2014-06-09_21-01-18_260595134347_rgbf000196-resize_3/000493_2014-06-09_21-01-18_260595134347_rgbf000196-resize_3-target.png,1000,3.44,12,4419,993,meters,jsons/v1_VE1000_randls_44.json,882926,1087977,27,Man
136,999948,DepthScenes,duration_manipulation_targetAtFixation,jsons/v1_VE1000_randls_44.json,http://54.235.29.9/FacialAge/BNav_EC2/DepthDuration/v2_depth_duration_MTurk/v2_DepthDuration_HTML.html#97,97,1366,768,1366,768,8-22-2022,6-58-51,137,depth_duration_stimuli/000191_2014-05-12_17-07-38_260595134347_rgbf000199-resize_0/000191_2014-05-12_17-07-38_260595134347_rgbf000199-resize_0-target.png,1000,3.7995,15,4891,999,meters,jsons/v1_VE1000_randls_44.json,882926,1087977,27,Man
137,999948,DepthScenes,duration_manipulation_targetAtFixation,jsons/v1_VE1000_randls_44.json,http://54.235.29.9/FacialAge/BNav_EC2/DepthDuration/v2_depth_duration_MTurk/v2_DepthDuration_HTML.html#97,97,1366,768,1366,768,8-22-2022,6-58-51,138,depth_duration_stimuli/002057_2014-06-24_21-00-13_260595134347_rgbf000120-resize_1/002057_2014-06-24_21-00-13_260595134347_rgbf000120-resize_1-target.png,1000,2.967,15,4667,995,meters,jsons/v1_VE1000_randls_44.json,882926,1087977,27,Man
138,999948,DepthScenes,duration_manipulation_targetAtFixation,jsons/v1_VE1000_randls_44.json,http://54.235.29.9/FacialAge/BNav_EC2/DepthDuration/v2_depth_duration_MTurk/v2_DepthDuration_HTML.html#97,97,1366,768,1366,768,8-22-2022,6-58-51,139,depth_duration_stimuli/000709_2014-06-08_13-51-55_260595134347_rgbf000068-resize_3/000709_2014-06-08_13-51-55_260595134347_rgbf000068-resize_3-target.png,1000,1.8030000000000002,8,4095,993,meters,jsons/v1_VE1000_randls_44.json,882926,1087977,27,Man
139,999948,DepthScenes,duration_manipulation_targetAtFixation,jsons/v1_VE1000_randls_44.json,http://54.235.29.9/FacialAge/BNav_EC2/DepthDuration/v2_depth_duration_MTurk/v2_DepthDuration_HTML.html#97,97,1366,768,1366,768,8-22-2022,6-58-51,140,depth_duration_stimuli/000788_2014-06-08_22-34-36_260595134347_rgbf000131-resize_1/000788_2014-06-08_22-34-36_260595134347_rgbf000131-resize_1-target.png,1000,3.359,8,4453,1011,meters,jsons/v1_VE1000_randls_44.json,882926,1087977,27,Man
140,999948,DepthScenes,duration_manipulation_targetAtFixation,jsons/v1_VE1000_randls_44.json,http://54.235.29.9/FacialAge/BNav_EC2/DepthDuration/v2_depth_duration_MTurk/v2_DepthDuration_HTML.html#97,97,1366,768,1366,768,8-22-2022,6-58-51,141,depth_duration_stimuli/001235_2014-06-17_16-37-36_260595134347_rgbf000084-resize_4/001235_2014-06-17_16-37-36_260595134347_rgbf000084-resize_4-target.png,1000,3.6605,10,5288,1022,meters,jsons/v1_VE1000_randls_44.json,882926,1087977,27,Man
141,999948,DepthScenes,duration_manipulation_targetAtFixation,jsons/v1_VE1000_randls_44.json,http://54.235.29.9/FacialAge/BNav_EC2/DepthDuration/v2_depth_duration_MTurk/v2_DepthDuration_HTML.html#97,97,1366,768,1366,768,8-22-2022,6-58-51,142,depth_duration_stimuli/000758_2014-06-08_22-05-08_260595134347_rgbf000085-resize_0/000758_2014-06-08_22-05-08_260595134347_rgbf000085-resize_0-target.png,1000,3.3810000000000002,10,4385,999,meters,jsons/v1_VE1000_randls_44.json,882926,1087977,27,Man
142,999948,DepthScenes,duration_manipulation_targetAtFixation,jsons/v1_VE1000_randls_44.json,http://54.235.29.9/FacialAge/BNav_EC2/DepthDuration/v2_depth_duration_MTurk/v2_DepthDuration_HTML.html#97,97,1366,768,1366,768,8-22-2022,6-58-51,143,depth_duration_stimuli/000854_2014-06-09_19-43-13_260595134347_rgbf000066-resize_0/000854_2014-06-09_19-43-13_260595134347_rgbf000066-resize_0-target.png,1000,3.068,8,4022,1010,meters,jsons/v1_VE1000_randls_44.json,882926,1087977,27,Man
143,999948,DepthScenes,duration_manipulation_targetAtFixation,jsons/v1_VE1000_randls_44.json,http://54.235.29.9/FacialAge/BNav_EC2/DepthDuration/v2_depth_duration_MTurk/v2_DepthDuration_HTML.html#97,97,1366,768,1366,768,8-22-2022,6-58-51,144,depth_duration_stimuli/003492_2014-05-21_15-50-55_094959634447_rgbf000828-resize_1/003492_2014-05-21_15-50-55_094959634447_rgbf000828-resize_1-target.png,1000,4.06875,16,6105,988,meters,jsons/v1_VE1000_randls_44.json,882926,1087977,27,Man
144,999948,DepthScenes,duration_manipulation_targetAtFixation,jsons/v1_VE1000_randls_44.json,http://54.235.29.9/FacialAge/BNav_EC2/DepthDuration/v2_depth_duration_MTurk/v2_DepthDuration_HTML.html#97,97,1366,768,1366,768,8-22-2022,6-58-51,145,depth_duration_stimuli/002568_2014-06-24_13-59-21_094959634447_rgbf000062-resize_4/002568_2014-06-24_13-59-21_094959634447_rgbf000062-resize_4-target.png,1000,3.015,10,4508,1003,meters,jsons/v1_VE1000_randls_44.json,882926,1087977,27,Man
145,999948,DepthScenes,duration_manipulation_targetAtFixation,jsons/v1_VE1000_randls_44.json,http://54.235.29.9/FacialAge/BNav_EC2/DepthDuration/v2_depth_duration_MTurk/v2_DepthDuration_HTML.html#97,97,1366,768,1366,768,8-22-2022,6-58-51,146,depth_duration_stimuli/001498_2014-06-19_17-45-14_260595134347_rgbf000129-resize_4/001498_2014-06-19_17-45-14_260595134347_rgbf000129-resize-original.jpg,1000,1.4075,0,4746,1000,meters,jsons/v1_VE1000_randls_44.json,882926,1087977,27,Man
146,999948,DepthScenes,duration_manipulation_targetAtFixation,jsons/v1_VE1000_randls_44.json,http://54.235.29.9/FacialAge/BNav_EC2/DepthDuration/v2_depth_duration_MTurk/v2_DepthDuration_HTML.html#97,97,1366,768,1366,768,8-22-2022,6-58-51,147,depth_duration_stimuli/002748_2014-06-22_19-07-22_094959634447_rgbf000078-resize_1/002748_2014-06-22_19-07-22_094959634447_rgbf000078-resize_1-target.png,1000,4.6705,15,4256,995,meters,jsons/v1_VE1000_randls_44.json,882926,1087977,27,Man
147,999948,DepthScenes,duration_manipulation_targetAtFixation,jsons/v1_VE1000_randls_44.json,http://54.235.29.9/FacialAge/BNav_EC2/DepthDuration/v2_depth_duration_MTurk/v2_DepthDuration_HTML.html#97,97,1366,768,1366,768,8-22-2022,6-58-51,148,depth_duration_stimuli/002995_2014-06-15_12-31-26_094959634447_rgbf000150-resize_1/002995_2014-06-15_12-31-26_094959634447_rgbf000150-resize_1-target.png,1000,3.8360000000000003,10,4326,997,meters,jsons/v1_VE1000_randls_44.json,882926,1087977,27,Man
148,999948,DepthScenes,duration_manipulation_targetAtFixation,jsons/v1_VE1000_randls_44.json,http://54.235.29.9/FacialAge/BNav_EC2/DepthDuration/v2_depth_duration_MTurk/v2_DepthDuration_HTML.html#97,97,1366,768,1366,768,8-22-2022,6-58-51,149,depth_duration_stimuli/003292_2014-05-14_21-53-49_094959634447_rgbf000100-resize_2/003292_2014-05-14_21-53-49_094959634447_rgbf000100-resize_2-target.png,1000,3.4815,8,4392,995,meters,jsons/v1_VE1000_randls_44.json,882926,1087977,27,Man
149,999948,DepthScenes,duration_manipulation_targetAtFixation,jsons/v1_VE1000_randls_44.json,http://54.235.29.9/FacialAge/BNav_EC2/DepthDuration/v2_depth_duration_MTurk/v2_DepthDuration_HTML.html#97,97,1366,768,1366,768,8-22-2022,6-58-51,150,depth_duration_stimuli/002639_2014-06-24_14-51-37_094959634447_rgbf000074-resize_4/002639_2014-06-24_14-51-37_094959634447_rgbf000074-resize_4-target.png,1000,4.0375,12,4258,1012,meters,jsons/v1_VE1000_randls_44.json,882926,1087977,27,Man
150,999948,DepthScenes,duration_manipulation_targetAtFixation,jsons/v1_VE1000_randls_44.json,http://54.235.29.9/FacialAge/BNav_EC2/DepthDuration/v2_depth_duration_MTurk/v2_DepthDuration_HTML.html#97,97,1366,768,1366,768,8-22-2022,6-58-51,151,depth_duration_stimuli/001555_2014-06-20_17-12-10_260595134347_rgbf000065-resize_4/001555_2014-06-20_17-12-10_260595134347_rgbf000065-resize_4-target.png,1000,1.633,8,5529,1000,meters,jsons/v1_VE1000_randls_44.json,882926,1087977,27,Man
151,999948,DepthScenes,duration_manipulation_targetAtFixation,jsons/v1_VE1000_randls_44.json,http://54.235.29.9/FacialAge/BNav_EC2/DepthDuration/v2_depth_duration_MTurk/v2_DepthDuration_HTML.html#97,97,1366,768,1366,768,8-22-2022,6-58-51,152,depth_duration_stimuli/000103_2014-05-14_22-01-17_260595134347_rgbf000152-resize_5/000103_2014-05-14_22-01-17_260595134347_rgbf000152-resize_5-target.png,1000,1.993,15,4363,1008,meters,jsons/v1_VE1000_randls_44.json,882926,1087977,27,Man
152,999948,DepthScenes,duration_manipulation_targetAtFixation,jsons/v1_VE1000_randls_44.json,http://54.235.29.9/FacialAge/BNav_EC2/DepthDuration/v2_depth_duration_MTurk/v2_DepthDuration_HTML.html#97,97,1366,768,1366,768,8-22-2022,6-58-51,153,depth_duration_stimuli/002600_2014-06-24_14-27-04_094959634447_rgbf000074-resize_2/002600_2014-06-24_14-27-04_094959634447_rgbf000074-resize_2-target.png,1000,2.7575,10,4434,1001,meters,jsons/v1_VE1000_randls_44.json,882926,1087977,27,Man
153,999948,DepthScenes,duration_manipulation_targetAtFixation,jsons/v1_VE1000_randls_44.json,http://54.235.29.9/FacialAge/BNav_EC2/DepthDuration/v2_depth_duration_MTurk/v2_DepthDuration_HTML.html#97,97,1366,768,1366,768,8-22-2022,6-58-51,154,depth_duration_stimuli/003228_2014-05-14_13-42-35_094959634447_rgbf000101-resize_1/003228_2014-05-14_13-42-35_094959634447_rgbf000101-resize_1-target.png,1000,1.9680000000000002,5,4139,1002,meters,jsons/v1_VE1000_randls_44.json,882926,1087977,27,Man
154,999948,DepthScenes,duration_manipulation_targetAtFixation,jsons/v1_VE1000_randls_44.json,http://54.235.29.9/FacialAge/BNav_EC2/DepthDuration/v2_depth_duration_MTurk/v2_DepthDuration_HTML.html#97,97,1366,768,1366,768,8-22-2022,6-58-51,155,depth_duration_stimuli/000486_2014-06-09_20-47-20_260595134347_rgbf000143-resize_2/000486_2014-06-09_20-47-20_260595134347_rgbf000143-resize_2-target.png,1000,4.8325,7,4233,1000,meters,jsons/v1_VE1000_randls_44.json,882926,1087977,27,Man
155,999948,DepthScenes,duration_manipulation_targetAtFixation,jsons/v1_VE1000_randls_44.json,http://54.235.29.9/FacialAge/BNav_EC2/DepthDuration/v2_depth_duration_MTurk/v2_DepthDuration_HTML.html#97,97,1366,768,1366,768,8-22-2022,6-58-51,156,depth_duration_stimuli/003083_2014-06-15_15-21-03_094959634447_rgbf000063-resize_1/003083_2014-06-15_15-21-03_094959634447_rgbf000063-resize_1-target.png,1000,4.1405,18,5366,988,meters,jsons/v1_VE1000_randls_44.json,882926,1087977,27,Man
156,999948,DepthScenes,duration_manipulation_targetAtFixation,jsons/v1_VE1000_randls_44.json,http://54.235.29.9/FacialAge/BNav_EC2/DepthDuration/v2_depth_duration_MTurk/v2_DepthDuration_HTML.html#97,97,1366,768,1366,768,8-22-2022,6-58-51,157,depth_duration_stimuli/000506_2014-06-08_23-21-00_260595134347_rgbf000070-resize_7/000506_2014-06-08_23-21-00_260595134347_rgbf000070-resize_7-target.png,1000,4.0585,12,4494,999,meters,jsons/v1_VE1000_randls_44.json,882926,1087977,27,Man
157,999948,DepthScenes,duration_manipulation_targetAtFixation,jsons/v1_VE1000_randls_44.json,http://54.235.29.9/FacialAge/BNav_EC2/DepthDuration/v2_depth_duration_MTurk/v2_DepthDuration_HTML.html#97,97,1366,768,1366,768,8-22-2022,6-58-51,158,depth_duration_stimuli/003079_2014-06-15_15-18-20_094959634447_rgbf000152-resize_8/003079_2014-06-15_15-18-20_094959634447_rgbf000152-resize_8-target.png,1000,2.8775,15,5081,990,meters,jsons/v1_VE1000_randls_44.json,882926,1087977,27,Man
158,999948,DepthScenes,duration_manipulation_targetAtFixation,jsons/v1_VE1000_randls_44.json,http://54.235.29.9/FacialAge/BNav_EC2/DepthDuration/v2_depth_duration_MTurk/v2_DepthDuration_HTML.html#97,97,1366,768,1366,768,8-22-2022,6-58-51,159,depth_duration_stimuli/000368_2014-06-09_15-53-01_260595134347_rgbf000155-resize_2/000368_2014-06-09_15-53-01_260595134347_rgbf000155-resize_2-target.png,1000,2.4859999999999998,4,4003,1002,meters,jsons/v1_VE1000_randls_44.json,882926,1087977,27,Man
159,999948,DepthScenes,duration_manipulation_targetAtFixation,jsons/v1_VE1000_randls_44.json,http://54.235.29.9/FacialAge/BNav_EC2/DepthDuration/v2_depth_duration_MTurk/v2_DepthDuration_HTML.html#97,97,1366,768,1366,768,8-22-2022,6-58-51,160,depth_duration_stimuli/002678_2014-06-13_16-15-32_094959634447_rgbf000151-resize_6/002678_2014-06-13_16-15-32_094959634447_rgbf000151-resize_6-target.png,1000,2.1830000000000003,5,3854,990,meters,jsons/v1_VE1000_randls_44.json,882926,1087977,27,Man
160,999948,DepthScenes,duration_manipulation_targetAtFixation,jsons/v1_VE1000_randls_44.json,http://54.235.29.9/FacialAge/BNav_EC2/DepthDuration/v2_depth_duration_MTurk/v2_DepthDuration_HTML.html#97,97,1366,768,1366,768,8-22-2022,6-58-51,161,depth_duration_stimuli/002153_2014-06-25_21-27-18_260595134347_rgbf000038-resize_5/002153_2014-06-25_21-27-18_260595134347_rgbf000038-resize_5-target.png,1000,2.505,5,4098,1002,meters,jsons/v1_VE1000_randls_44.json,882926,1087977,27,Man
161,999948,DepthScenes,duration_manipulation_targetAtFixation,jsons/v1_VE1000_randls_44.json,http://54.235.29.9/FacialAge/BNav_EC2/DepthDuration/v2_depth_duration_MTurk/v2_DepthDuration_HTML.html#97,97,1366,768,1366,768,8-22-2022,6-58-51,162,depth_duration_stimuli/002660_2014-06-13_15-44-18_094959634447_rgbf001878-resize_2/002660_2014-06-13_15-44-18_094959634447_rgbf001878-resize_2-target.png,1000,3.576,10,4382,996,meters,jsons/v1_VE1000_randls_44.json,882926,1087977,27,Man
162,999948,DepthScenes,duration_manipulation_targetAtFixation,jsons/v1_VE1000_randls_44.json,http://54.235.29.9/FacialAge/BNav_EC2/DepthDuration/v2_depth_duration_MTurk/v2_DepthDuration_HTML.html#97,97,1366,768,1366,768,8-22-2022,6-58-51,163,depth_duration_stimuli/001570_2014-06-20_17-21-09_260595134347_rgbf000135-resize_4/001570_2014-06-20_17-21-09_260595134347_rgbf000135-resize_4-target.png,1000,4.467,15,4861,989,meters,jsons/v1_VE1000_randls_44.json,882926,1087977,27,Man
163,999948,DepthScenes,duration_manipulation_targetAtFixation,jsons/v1_VE1000_randls_44.json,http://54.235.29.9/FacialAge/BNav_EC2/DepthDuration/v2_depth_duration_MTurk/v2_DepthDuration_HTML.html#97,97,1366,768,1366,768,8-22-2022,6-58-51,164,depth_duration_stimuli/001392_2014-06-19_16-07-59_260595134347_rgbf000046-resize_1/001392_2014-06-19_16-07-59_260595134347_rgbf000046-resize_1-target.png,1000,4.135,15,4610,1000,meters,jsons/v1_VE1000_randls_44.json,882926,1087977,27,Man
